<?xml version="1.0" encoding="UTF-8"?>
<Bundle xmlns="http://hl7.org/fhir">
   <id value="samenvatting-zwangerschap1"/>
   <type value="transaction"/>
   <entry>
      <fullUrl value="Composition/samenvatting-zwangerschap1"/>
      <resource>
         <Composition>
            <id value="samenvatting-zwangerschap1"/>
            <status value="final"/>
            <type>
               <coding>
                  <system value="http://loinc.org"/>
                  <code value="15508-5"/>
                  <display value="Labor and delivery records"/>
               </coding>
            </type>
            <subject>
               <reference value="Patient?identifier=123"/>
            </subject>
            <date value="2012-01-04T09:10:14Z"/>
            <author>
               <reference value="Practitioner?identifier=00001111"/>
            </author>
            <title value="Example Prio 1 Huidige Zwangerschap"/>
            <section>999910413van der Wouden<entry>
                  <reference value="Patient/VANDERWOUDEN"/>
               </entry>
               <entry>
                  <reference value="EpisodeOfCare/dossier-van-der-wouden-zwangerschap-1"/>
               </entry>
               <entry>
                  <reference value="Patient/zwangerschap-1-kind-1"/>
               </entry>
               <entry>
                  <reference value="Organization/Verloskundigenpraktijk-B"/>
               </entry>
               <entry>
                  <reference value="Condition/zwangerschap-1"/>
               </entry>
               <entry>
                  <reference value="Procedure/bevalling-zwangerschap-1"/>
               </entry>
               <entry>
                  <reference value="Procedure/vaginale_kunstverlossing-zwangerschap-1-kind-1"/>
               </entry>
               <entry>
                  <reference value="Observation/graviditeit-zwangerschap-1"/>
               </entry>
               <entry>
                  <reference value="Observation/pariteit_voor_deze_zwangerschap-zwangerschap-1"/>
               </entry>
               <entry>
                  <reference value="Observation/wijze_einde_zwangerschap-zwangerschap-1"/>
               </entry>
               <entry>
                  <reference value="Observation/datum_einde_zwangerschap-zwangerschap-1"/>
               </entry>
               <entry>
                  <reference value="Observation/tijdstip_begin_actieve_ontsluiting-zwangerschap-1"/>
               </entry>
               <entry>
                  <reference value="Observation/hoeveelheid_bloedverlies-zwangerschap-1"/>
               </entry>
               <entry>
                  <reference value="Observation/conditie_perineum_postpartum-zwangerschap-1"/>
               </entry>
               <entry>
                  <reference value="Observation/baring-zwangerschap-1-kind-1"/>
               </entry>
               <entry>
                  <reference value="Observation/tijdstip_actief_meepersen-zwangerschap-1-kind-1"/>
               </entry>
               <entry>
                  <reference value="Observation/type_partus-zwangerschap-1-kind-1"/>
               </entry>
               <entry>
                  <reference value="Observation/apgarscore_na_5_min-zwangerschap-1-kind-1"/>
               </entry>
               <entry>
                  <reference value="Observation/geboortegewicht-zwangerschap-1-kind-1"/>
               </entry>
            </section>
         </Composition>
      </resource>
      <request>
         <method value="PUT"/>
         <url value="Composition/samenvatting-zwangerschap1"/>
      </request>
   </entry>999910413van der Wouden<entry>
      <fullUrl value="Patient/VANDERWOUDEN"/>
      <resource>
         <Patient>
            <id value="VANDERWOUDEN"/>
            <meta>
               <profile value="http://fhir.nl/fhir/StructureDefinition/nl-core-patient"/>
            </meta>
            <identifier>
               <value value="999910413"/>
            </identifier>
            <name>
               <family value="van der Wouden">
                  <extension url="http://hl7.org/fhir/StructureDefinition/humanname-own-name">
                     <valueString value="van der Wouden"/>
                  </extension>
               </family>
            </name>
         </Patient>
      </resource>
      <request>
         <method value="PUT"/>
         <url value="Patient/VANDERWOUDEN"/>
      </request>
   </entry>
   <entry>
      <fullUrl value="EpisodeOfCare/dossier-van-der-wouden-zwangerschap-1"/>
      <resource>
         <EpisodeOfCare>
            <id value="dossier-van-der-wouden-zwangerschap-1"/>
            <meta>
               <profile value="http://nictiz.nl/fhir/StructureDefinition/bc-MaternalRecord"/>
            </meta>
            <status value="finished"/>
            <type>
               <coding>
                  <system value="http://snomed.info/sct"/>
                  <code value="364320009"/>
                  <display value="Pregnancy observable (observable entity)"/>
               </coding>
            </type>
            <diagnosis>
               <condition>
                  <reference value="zwangerschap-1"/>
               </condition>
            </diagnosis>
            <patient>
               <reference value="Patient/VANDERWOUDEN"/>
               <display value="van der Wouden"/>
            </patient>
         </EpisodeOfCare>
      </resource>
      <request>
         <method value="PUT"/>
         <url value="EpisodeOfCare/dossier-van-der-wouden-zwangerschap-1"/>
      </request>
   </entry>
   <entry>
      <fullUrl value="Patient/zwangerschap-1-kind-1"/>
      <resource>
         <Patient>
            <id value="zwangerschap-1-kind-1"/>
            <meta>
               <profile value="http://fhir.nl/fhir/StructureDefinition/nl-core-patient"/>
            </meta>
            <birthDate value="2016-05-17"/>
         </Patient>
      </resource>
      <request>
         <method value="PUT"/>
         <url value="Patient/zwangerschap-1-kind-1"/>
      </request>
   </entry>
   <entry>
      <fullUrl value="Organization/Verloskundigenpraktijk-B"/>
      <resource>
         <Organization>
            <id value="Verloskundigenpraktijk-B"/>
            <meta>
               <profile value="http://fhir.nl/fhir/StructureDefinition/nl-core-organization"/>
            </meta>
            <identifier>
               <value value="1500"/>
            </identifier>
            <name value="Verloskundigenpraktijk B"/>
         </Organization>
      </resource>
      <request>
         <method value="PUT"/>
         <url value="Organization/Verloskundigenpraktijk-B"/>
      </request>
   </entry>
   <entry>
      <fullUrl value="Condition/zwangerschap-1"/>
      <resource>
         <Condition>
            <id value="zwangerschap-1"/>
            <meta>
               <profile value="http://nictiz.nl/fhir/StructureDefinition/zib-Pregnancy"/>
            </meta>
            <code>
               <coding>
                  <system value="http://snomed.info/sct"/>
                  <code value="364320009"/>
                  <display value="Pregnancy observable (observable entity)"/>
               </coding>
            </code>
            <subject>
               <reference value="Patient/VANDERWOUDEN"/>
               <display value="van der Wouden"/>
            </subject>
            <context>
               <reference value="EpisodeOfCare/zwangerschapsdossier-zwangerschap-1"/>
            </context>
         </Condition>
      </resource>
      <request>
         <method value="PUT"/>
         <url value="Condition/zwangerschap-1"/>
      </request>
   </entry>
   <entry>
      <fullUrl value="Procedure/bevalling-zwangerschap-1"/>
      <resource>
         <Procedure>
            <id value="bevalling-zwangerschap-1"/>
            <meta>
               <profile value="http://nictiz.nl/fhir/StructureDefinition/bc-DeliveryProcedure"/>
            </meta>
            <status value="completed"/>
            <category>
               <coding>
                  <system value="http://snomed.info/sct"/>
                  <code value="386637004"/>
                  <display value="Obstetric procedure (procedure)"/>
               </coding>
            </category>
            <code>
               <coding>
                  <system value="http://snomed.info/sct"/>
                  <code value="236973005"/>
                  <display value="Delivery procedure (procedure)"/>
               </coding>
            </code>
            <subject>
               <reference value="Patient/VANDERWOUDEN"/>
               <display value="van der Wouden"/>
            </subject>
            <context value="EpisodeOfCare/zwangerschapsdossier-zwangerschap-1"/>
            <performedPeriod>
               <start value="5-16-2016T21:46:00+01:00"/>
            </performedPeriod>
            <reasonReference>
               <reference value="Condition/zwangerschap-1"/>
            </reasonReference>
         </Procedure>
      </resource>
      <request>
         <method value="PUT"/>
         <url value="Procedure/bevalling-zwangerschap-1"/>
      </request>
   </entry>
   <entry>
      <fullUrl value="Procedure/vaginale_kunstverlossing-zwangerschap-1-kind-1"/>
      <resource>
         <Procedure>
            <id value="vaginale_kunstverlossing-zwangerschap-1-kind-1"/>
            <meta>
               <profile value="http://nictiz.nl/fhir/StructureDefinition/bc-ObstetricProcedure"/>
            </meta>
            <status value="completed"/>
            <category>
               <coding>
                  <system value="http://snomed.info/sct"/>
                  <code value="386637004"/>
                  <display value="Obstetric procedure (procedure)"/>
               </coding>
            </category>
            <code>
               <coding>
                  <system value="http://snomed.info/sct"/>
                  <code value="3311000146109"/>
                  <display value="Vaginale kunstverlossing"/>
               </coding>
            </code>
            <subject>
               <reference value="Patient/VANDERWOUDEN"/>
               <display value="van der Wouden"/>
            </subject>
            <context value="EpisodeOfCare/zwangerschapsdossier-zwangerschap-1"/>
            <reasonReference>
               <reference value="Condition/zwangerschap-1"/>
            </reasonReference>
         </Procedure>
      </resource>
      <request>
         <method value="PUT"/>
         <url value="Procedure/vaginale_kunstverlossing-zwangerschap-1-kind-1"/>
      </request>
   </entry>
   <entry>
      <fullUrl value="Observation/graviditeit-zwangerschap-1"/>
      <resource>
         <Observation>
            <id value="graviditeit-zwangerschap-1"/>
            <meta>
               <profile value="http://nictiz.nl/fhir/StructureDefinition/zib-Pregnancy-Gravidity"/>
            </meta>
            <extension url="http://nictiz.nl/fhir/StructureDefinition/Observation-focus-stu3">
               <valueReference>
                  <reference value="Condition/zwangerschap-1"/>
               </valueReference>
            </extension>
            <status value="final"/>
            <code>
               <coding>
                  <system value="http://loinc.org"/>
                  <code value="11996-6"/>
                  <display value="Gravidity"/>
               </coding>
            </code>
            <subject>
               <reference value="Patient/VANDERWOUDEN"/>
               <display value="van der Wouden"/>
            </subject>
            <context value="EpisodeOfCare/zwangerschapsdossier-zwangerschap-1"/>
            <valueQuantity>
               <value value="1"/>
            </valueQuantity>
         </Observation>
      </resource>
      <request>
         <method value="PUT"/>
         <url value="Observation/graviditeit-zwangerschap-1"/>
      </request>
   </entry>
   <entry>
      <fullUrl value="Observation/pariteit_voor_deze_zwangerschap-zwangerschap-1"/>
      <resource>
         <Observation>
            <id value="pariteit_voor_deze_zwangerschap-zwangerschap-1"/>
            <meta>
               <profile value="http://nictiz.nl/fhir/StructureDefinition/zib-Pregnancy-Parity"/>
            </meta>
            <extension url="http://nictiz.nl/fhir/StructureDefinition/Observation-focus-stu3">
               <valueReference>
                  <reference value="Condition/zwangerschap-1"/>
               </valueReference>
            </extension>
            <status value="final"/>
            <code>
               <coding>
                  <system value="http://loinc.org"/>
                  <code value="11977-6"/>
                  <display value="Parity"/>
               </coding>
            </code>
            <subject>
               <reference value="Patient/VANDERWOUDEN"/>
               <display value="van der Wouden"/>
            </subject>
            <context value="EpisodeOfCare/zwangerschapsdossier-zwangerschap-1"/>
            <valueQuantity>
               <value value="0"/>
            </valueQuantity>
         </Observation>
      </resource>
      <request>
         <method value="PUT"/>
         <url value="Observation/pariteit_voor_deze_zwangerschap-zwangerschap-1"/>
      </request>
   </entry>
   <entry>
      <fullUrl value="Observation/wijze_einde_zwangerschap-zwangerschap-1"/>
      <resource>
         <Observation>
            <id value="wijze_einde_zwangerschap-zwangerschap-1"/>
            <meta>
               <profile value="http://nictiz.nl/fhir/StructureDefinition/bc-PregnancyObservation"/>
            </meta>
            <extension url="http://nictiz.nl/fhir/StructureDefinition/Observation-focus-stu3">
               <valueReference>
                  <reference value="Condition/zwangerschap-1"/>
               </valueReference>
            </extension>
            <status value="final"/>
            <code>
               <coding>
                  <system value="urn:oid:2.16.840.1.113883.2.4.4.13"/>
                  <code value="EindeZw"/>
                  <display value="Wijze einde zwangerschap"/>
               </coding>
            </code>
            <subject>
               <reference value="Patient/VANDERWOUDEN"/>
               <display value="van der Wouden"/>
            </subject>
            <context value="EpisodeOfCare/zwangerschapsdossier-zwangerschap-1"/>
            <valueCodeableConcept>
               <coding>
                  <system value="urn:oid:2.16.840.1.113883.2.4.4.13.46"/>
                  <code value="1"/>
                  <display value="Partus"/>
               </coding>
            </valueCodeableConcept>
         </Observation>
      </resource>
      <request>
         <method value="PUT"/>
         <url value="Observation/wijze_einde_zwangerschap-zwangerschap-1"/>
      </request>
   </entry>
   <entry>
      <fullUrl value="Observation/datum_einde_zwangerschap-zwangerschap-1"/>
      <resource>
         <Observation>
            <id value="datum_einde_zwangerschap-zwangerschap-1"/>
            <meta>
               <profile value="http://nictiz.nl/fhir/StructureDefinition/bc-PregnancyObservation"/>
            </meta>
            <extension url="http://nictiz.nl/fhir/StructureDefinition/Observation-focus-stu3">
               <valueReference>
                  <reference value="Condition/zwangerschap-1"/>
               </valueReference>
            </extension>
            <status value="final"/>
            <code>
               <coding>
                  <system value="http://snomed.info/sct"/>
                  <code value="118951000146109"/>
                  <display value="Date of end of pregnancy (observable entity)"/>
               </coding>
            </code>
            <subject>
               <reference value="Patient/VANDERWOUDEN"/>
               <display value="van der Wouden"/>
            </subject>
            <context value="EpisodeOfCare/zwangerschapsdossier-zwangerschap-1"/>
            <valueDateTime value="2016-05-17+02:00"/>
         </Observation>
      </resource>
      <request>
         <method value="PUT"/>
         <url value="Observation/datum_einde_zwangerschap-zwangerschap-1"/>
      </request>
   </entry>
   <entry>
      <fullUrl value="Observation/tijdstip_begin_actieve_ontsluiting-zwangerschap-1"/>
      <resource>
         <Observation>
            <id value="tijdstip_begin_actieve_ontsluiting-zwangerschap-1"/>
            <meta>
               <profile value="http://nictiz.nl/fhir/StructureDefinition/bc-DeliveryObservation"/>
            </meta>
            <extension url="http://nictiz.nl/fhir/StructureDefinition/Observation-focus-stu3">
               <valueReference>
                  <reference value="Procedure/bevalling-zwangerschap-1"/>
               </valueReference>
            </extension>
            <status value="final"/>
            <code>
               <coding>
                  <system value="http://snomed.info/sct"/>
                  <code value="249120008"/>
                  <display value="Onset of labor first stage (observable entity)"/>
               </coding>
            </code>
            <subject>
               <reference value="Patient/VANDERWOUDEN"/>
               <display value="van der Wouden"/>
            </subject>
            <context value="EpisodeOfCare/zwangerschapsdossier-zwangerschap-1"/>
            <valueDateTime value="5-16-2016T21:46:00+01:00"/>
         </Observation>
      </resource>
      <request>
         <method value="PUT"/>
         <url value="Observation/tijdstip_begin_actieve_ontsluiting-zwangerschap-1"/>
      </request>
   </entry>
   <entry>
      <fullUrl value="Observation/hoeveelheid_bloedverlies-zwangerschap-1"/>
      <resource>
         <Observation>
            <id value="hoeveelheid_bloedverlies-zwangerschap-1"/>
            <meta>
               <profile value="http://nictiz.nl/fhir/StructureDefinition/bc-DeliveryObservation"/>
            </meta>
            <extension url="http://nictiz.nl/fhir/StructureDefinition/Observation-focus-stu3">
               <valueReference>
                  <reference value="Procedure/bevalling-zwangerschap-1"/>
               </valueReference>
            </extension>
            <status value="final"/>
            <code>
               <coding>
                  <system value="http://snomed.info/sct"/>
                  <code value="364332008"/>
                  <display value="Blood loss in labour"/>
               </coding>
            </code>
            <subject>
               <reference value="Patient/VANDERWOUDEN"/>
               <display value="van der Wouden"/>
            </subject>
            <context value="EpisodeOfCare/zwangerschapsdossier-zwangerschap-1"/>
            <valueQuantity>
               <value value="600"/>
               <unit value="ml"/>
               <system value="http://unitsofmeasure.org"/>
               <code value="ml"/>
            </valueQuantity>
         </Observation>
      </resource>
      <request>
         <method value="PUT"/>
         <url value="Observation/hoeveelheid_bloedverlies-zwangerschap-1"/>
      </request>
   </entry>
   <entry>
      <fullUrl value="Observation/conditie_perineum_postpartum-zwangerschap-1"/>
      <resource>
         <Observation>
            <id value="conditie_perineum_postpartum-zwangerschap-1"/>
            <meta>
               <profile value="http://nictiz.nl/fhir/StructureDefinition/bc-DeliveryObservation"/>
            </meta>
            <extension url="http://nictiz.nl/fhir/StructureDefinition/Observation-focus-stu3">
               <valueReference>
                  <reference value="Procedure/bevalling-zwangerschap-1"/>
               </valueReference>
            </extension>
            <status value="final"/>
            <code>
               <coding>
                  <system value="http://snomed.info/sct"/>
                  <code value="364297003"/>
                  <display value="Female perineum observable (observable entity)"/>
               </coding>
            </code>
            <subject>
               <reference value="Patient/VANDERWOUDEN"/>
               <display value="van der Wouden"/>
            </subject>
            <context value="EpisodeOfCare/zwangerschapsdossier-zwangerschap-1"/>
            <valueCodeableConcept>
               <coding>
                  <system value="http://snomed.info/sct"/>
                  <code value="609344008"/>
                  <display value="Episiotomiewond"/>
               </coding>
            </valueCodeableConcept>
         </Observation>
      </resource>
      <request>
         <method value="PUT"/>
         <url value="Observation/conditie_perineum_postpartum-zwangerschap-1"/>
      </request>
   </entry>
   <entry>
      <fullUrl value="Observation/baring-zwangerschap-1-kind-1"/>
      <resource>
         <Observation>
            <id value="baring-zwangerschap-1-kind-1"/>
            <meta>
               <profile value="http://nictiz.nl/fhir/StructureDefinition/bc-Birth"/>
            </meta>
            <extension url="http://nictiz.nl/fhir/StructureDefinition/Observation-focus-stu3">
               <valueReference>
                  <reference value="Procedure/bevalling-zwangerschap-1"/>
               </valueReference>
            </extension>
            <extension url="http://nictiz.nl/fhir/StructureDefinition/Observation-focus-stu3">
               <valueReference>
                  <reference value="Patient/zwangerschap-1-kind-1"/>
               </valueReference>
            </extension>
            <status value="final"/>
            <code>
               <coding>
                  <system value="http://snomed.info/sct"/>
                  <code value="3950001"/>
                  <display value="Birth (finding)"/>
               </coding>
            </code>
            <subject>
               <reference value="Patient/VANDERWOUDEN"/>
               <display value="van der Wouden"/>
            </subject>
            <context value="EpisodeOfCare/zwangerschapsdossier-zwangerschap-1"/>
            <valueCodeableConcept>
               <coding>
                  <system value="http://snomed.info/sct"/>
                  <code value="3950001"/>
                  <display value="Birth (finding)"/>
               </coding>
            </valueCodeableConcept>
         </Observation>
      </resource>
      <request>
         <method value="PUT"/>
         <url value="Observation/baring-zwangerschap-1-kind-1"/>
      </request>
   </entry>
   <entry>
      <fullUrl value="Observation/tijdstip_actief_meepersen-zwangerschap-1-kind-1"/>
      <resource>
         <Observation>
            <id value="tijdstip_actief_meepersen-zwangerschap-1-kind-1"/>
            <meta>
               <profile value="http://nictiz.nl/fhir/StructureDefinition/bc-BirthObservation"/>
            </meta>
            <extension url="http://nictiz.nl/fhir/StructureDefinition/Observation-focus-stu3">
               <valueReference>
                  <reference value="Observation/geboorte-zwangerschap-1-kind-1-zwangerschap-1"/>
               </valueReference>
            </extension>
            <status value="final"/>
            <code>
               <coding>
                  <system value="http://snomed.info/sct"/>
                  <code value="249163006"/>
                  <display value="Onset of pushing (in labor) (observable entity)"/>
               </coding>
            </code>
            <subject>
               <reference value="Patient/VANDERWOUDEN"/>
               <display value="van der Wouden"/>
            </subject>
            <context value="EpisodeOfCare/zwangerschapsdossier-zwangerschap-1"/>
            <valueDateTime value="5-17-2016T01:01:00+01:00"/>
         </Observation>
      </resource>
      <request>
         <method value="PUT"/>
         <url value="Observation/tijdstip_actief_meepersen-zwangerschap-1-kind-1"/>
      </request>
   </entry>
   <entry>
      <fullUrl value="Observation/type_partus-zwangerschap-1-kind-1"/>
      <resource>
         <Observation>
            <id value="type_partus-zwangerschap-1-kind-1"/>
            <meta>
               <profile value="http://nictiz.nl/fhir/StructureDefinition/bc-BirthObservation"/>
            </meta>
            <extension url="http://nictiz.nl/fhir/StructureDefinition/Observation-focus-stu3">
               <valueReference/>
            </extension>
            <status value="final"/>
            <code>
               <coding>
                  <system value="http://snomed.info/sct"/>
                  <code value="364336006"/>
                  <display value="Pattern of delivery (observable entity)"/>
               </coding>
            </code>
            <subject>
               <reference value="Patient/VANDERWOUDEN"/>
               <display value="van der Wouden"/>
            </subject>
            <context value="EpisodeOfCare/zwangerschapsdossier-zwangerschap-1"/>
            <valueCodeableConcept>
               <coding>
                  <system value="http://snomed.info/sct"/>
                  <code value="3311000146109"/>
                  <display value="Vaginale kunstverlossing"/>
               </coding>
            </valueCodeableConcept>
         </Observation>
      </resource>
      <request>
         <method value="PUT"/>
         <url value="Observation/type_partus-zwangerschap-1-kind-1"/>
      </request>
   </entry>
   <entry>
      <fullUrl value="Observation/apgarscore_na_5_min-zwangerschap-1-kind-1"/>
      <resource>
         <Observation>
            <id value="apgarscore_na_5_min-zwangerschap-1-kind-1"/>
            <meta>
               <profile value="http://nictiz.nl/fhir/StructureDefinition/zib-ApgarScore"/>
            </meta>
            <status value="final"/>
            <code>
               <coding>
                  <system value="http://loinc.org"/>
                  <code value="9274-2"/>
                  <display value="5 minute Apgar Score"/>
               </coding>
            </code>
            <subject>
               <reference value="Patient/zwangerschap-1-kind-1"/>
            </subject>
            <context value="EpisodeOfCare/zwangerschapsdossier-zwangerschap-1"/>
            <valueQuantity>
               <value value="6"/>
            </valueQuantity>
         </Observation>
      </resource>
      <request>
         <method value="PUT"/>
         <url value="Observation/apgarscore_na_5_min-zwangerschap-1-kind-1"/>
      </request>
   </entry>
   <entry>
      <fullUrl value="Observation/geboortegewicht-zwangerschap-1-kind-1"/>
      <resource>
         <Observation>
            <id value="geboortegewicht-zwangerschap-1-kind-1"/>
            <meta>
               <profile value="http://nictiz.nl/fhir/StructureDefinition/bc-BirthWeight"/>
            </meta>
            <status value="final"/>
            <code>
               <coding>
                  <system value="http://loinc.org"/>
                  <code value="8339-4"/>
                  <display value="Birth weight Measured"/>
               </coding>
            </code>
            <subject>
               <reference value="Patient/zwangerschap-1-kind-1"/>
            </subject>
            <context value="EpisodeOfCare/zwangerschapsdossier-zwangerschap-1"/>
            <valueQuantity>
               <value value="4810"/>
               <unit value="gram"/>
               <system value="http://unitsofmeasure.org"/>
               <code value="g"/>
            </valueQuantity>
         </Observation>
      </resource>
      <request>
         <method value="PUT"/>
         <url value="Observation/geboortegewicht-zwangerschap-1-kind-1"/>
      </request>
   </entry>
</Bundle>
