<Bundle xmlns="http://hl7.org/fhir">
   <id value="mg-mp-mg-tst-TA-Scenarioset6-v20-6-6"/>
   <type value="transaction"/>
   <entry>
      <fullUrl value="urn:uuid:c33f1c52-6a95-11ec-0000-020000000000"/>
      <resource>
         <MedicationDispense>
            <id value="mp-AdmAgr-mp9-MBH200variabelehoeveelheid2TA"/>
            <meta>
               <profile value="http://nictiz.nl/fhir/StructureDefinition/mp-AdministrationAgreement"/>
            </meta>
            <extension url="http://nictiz.nl/fhir/StructureDefinition/ext-AdministrationAgreement.AdministrationAgreementDateTime">
               <valueDateTime value="${DATE, T, D, +0}T09:18:00+02:00"/>
            </extension>
            <extension url="http://nictiz.nl/fhir/StructureDefinition/ext-RenderedDosageInstruction">
               <valueString value="Vanaf T, tot en met T + 28 dagen, 2 maal per dag 10 à 15 ml, Eerst oplossen in water, mond spoelen, daarna uitspugen, OROMUCOSAAL"/>
            </extension>
            <extension url="http://nictiz.nl/fhir/StructureDefinition/ext-TimeInterval.Period">
               <valuePeriod>
                  <start value="${DATE, T, D, +0}T00:00:00+02:00"/>
                  <end value="${DATE, T, D, +28}T23:59:59+02:00"/>
               </valuePeriod>
            </extension>
            <extension url="http://nictiz.nl/fhir/StructureDefinition/ext-PharmaceuticalTreatment.Identifier">
               <valueIdentifier>
                  <system value="urn:oid:2.16.840.1.113883.2.4.3.11.999.77.1.1"/>
                  <value value="MBH_200_variabelehoeveelheid2"/>
               </valueIdentifier>
            </extension>
            <identifier>
               <system value="urn:oid:2.16.840.1.113883.2.4.3.11.999.77.422037009.1"/>
               <value value="MBH_200_variabelehoeveelheid2_TA"/>
            </identifier>
            <status value="unknown"/>
            <category>
               <coding>
                  <system value="http://snomed.info/sct"/>
                  <code value="422037009"/>
                  <display value="toedieningsafspraak"/>
               </coding>
            </category>
            <medicationReference>
               <reference value="urn:uuid:c33f1c70-6a95-11ec-0000-020000000000"/>
               <type value="Medication"/>
               <display value="WATERSTOFPEROXIDE 3% CONC VOOR MONDSP FNA MR"/>
            </medicationReference>
            <subject>
               <reference value="urn:uuid:c33f1c34-6a95-11ec-0000-020000000000"/>
               <type value="Patient"/>
               <display value="Patient, G. XXX_Hemsbergen"/>
            </subject>
            <performer>
               <actor>
                  <reference value="urn:uuid:c33f1c8e-6a95-11ec-0000-020000000000"/>
                  <type value="Organization"/>
                  <display value="Healthcare provider (organization), Apotheek de Gulle Gaper"/>
               </actor>
            </performer>
            <authorizingPrescription>
               <type value="MedicationRequest"/>
               <identifier>
                  <system value="urn:oid:2.16.840.1.113883.2.4.3.11.999.77.16076005.1"/>
                  <value value="MBH_200_variabelehoeveelheid2_MA"/>
               </identifier>
               <display value="relatie naar medicatieafspraak met identificatie: MBH_200_variabelehoeveelheid2_MA || 2.16.840.1.113883.2.4.3.11.999.77.16076005.1"/>
            </authorizingPrescription>
            <dosageInstruction>
               <additionalInstruction>
                  <coding>
                     <system value="https://referentiemodel.nhg.org/tabellen/nhg-tabel-25-gebruiksvoorschrift#aanvullend-numeriek"/>
                     <code value="27"/>
                     <display value="Eerst oplossen in water"/>
                  </coding>
               </additionalInstruction>
               <additionalInstruction>
                  <coding>
                     <system value="https://referentiemodel.nhg.org/tabellen/nhg-tabel-25-gebruiksvoorschrift#aanvullend-numeriek"/>
                     <code value="69"/>
                     <display value="mond spoelen, daarna uitspugen"/>
                  </coding>
               </additionalInstruction>
               <timing>
                  <repeat>
                     <frequency value="2"/>
                     <period value="1"/>
                     <periodUnit value="d"/>
                  </repeat>
               </timing>
               <route>
                  <coding>
                     <system value="urn:oid:2.16.840.1.113883.2.4.4.9"/>
                     <code value="34"/>
                     <display value="OROMUCOSAAL"/>
                  </coding>
               </route>
               <doseAndRate>
                  <doseRange>
                     <low>
                        <extension url="http://hl7.org/fhir/StructureDefinition/iso21090-PQ-translation">
                           <valueQuantity>
                              <value value="10"/>
                              <unit value="milliliter"/>
                              <system value="urn:oid:2.16.840.1.113883.2.4.4.1.900.2"/>
                              <code value="233"/>
                           </valueQuantity>
                        </extension>
                        <value value="10"/>
                        <unit value="milliliter"/>
                        <system value="http://unitsofmeasure.org"/>
                        <code value="ml"/>
                     </low>
                     <high>
                        <extension url="http://hl7.org/fhir/StructureDefinition/iso21090-PQ-translation">
                           <valueQuantity>
                              <value value="15"/>
                              <unit value="milliliter"/>
                              <system value="urn:oid:2.16.840.1.113883.2.4.4.1.900.2"/>
                              <code value="233"/>
                           </valueQuantity>
                        </extension>
                        <value value="15"/>
                        <unit value="milliliter"/>
                        <system value="http://unitsofmeasure.org"/>
                        <code value="ml"/>
                     </high>
                  </doseRange>
               </doseAndRate>
            </dosageInstruction>
         </MedicationDispense>
      </resource>
      <request>
         <method value="POST"/>
         <url value="MedicationDispense"/>
      </request>
   </entry>
   <entry>
      <fullUrl value="urn:uuid:c33f1c34-6a95-11ec-0000-020000000000"/>
      <resource>
         <Patient>
            <id value="nl-core-Patient-mp9-G-XXX-Hemsbergen"/>
            <meta>
               <profile value="http://nictiz.nl/fhir/StructureDefinition/nl-core-Patient"/>
            </meta>
            <identifier>
               <system value="http://fhir.nl/fhir/NamingSystem/bsn"/>
               <value value="999900602"/>
            </identifier>
            <name>
               <extension url="http://hl7.org/fhir/StructureDefinition/humanname-assembly-order">
                  <valueCode value="NL1"/>
               </extension>
               <use value="official"/>
               <text value="G. XXX_Hemsbergen"/>
               <family value="XXX_Hemsbergen">
                  <extension url="http://hl7.org/fhir/StructureDefinition/humanname-own-name">
                     <valueString value="XXX_Hemsbergen"/>
                  </extension>
               </family>
               <given value="G.">
                  <extension url="http://hl7.org/fhir/StructureDefinition/iso21090-EN-qualifier">
                     <valueCode value="IN"/>
                  </extension>
               </given>
            </name>
            <gender value="female">
               <extension url="http://nictiz.nl/fhir/StructureDefinition/ext-CodeSpecification">
                  <valueCodeableConcept>
                     <coding>
                        <system value="http://terminology.hl7.org/CodeSystem/v3-AdministrativeGender"/>
                        <code value="F"/>
                        <display value="Vrouw"/>
                     </coding>
                  </valueCodeableConcept>
               </extension>
            </gender>
            <birthDate value="1963-11-02"/>
         </Patient>
      </resource>
      <request>
         <method value="POST"/>
         <url value="Patient"/>
      </request>
   </entry>
   <entry>
      <fullUrl value="urn:uuid:c33f1c8e-6a95-11ec-0000-020000000000"/>
      <resource>
         <Organization>
            <id value="nl-core-HPrv-Org-mp9-2165281100733-01236578"/>
            <meta>
               <profile value="http://nictiz.nl/fhir/StructureDefinition/nl-core-HealthcareProvider-Organization"/>
            </meta>
            <identifier>
               <system value="http://fhir.nl/fhir/NamingSystem/ura"/>
               <value value="01236578"/>
            </identifier>
            <name value="Apotheek de Gulle Gaper"/>
         </Organization>
      </resource>
      <request>
         <method value="POST"/>
         <url value="Organization"/>
      </request>
   </entry>
   <entry>
      <fullUrl value="urn:uuid:c33f1c70-6a95-11ec-0000-020000000000"/>
      <resource>
         <Medication>
            <id value="nl-core-PhPrd-mp9-21684011138832447-261815"/>
            <meta>
               <profile value="http://nictiz.nl/fhir/StructureDefinition/nl-core-PharmaceuticalProduct"/>
            </meta>
            <code>
               <coding>
                  <system value="urn:oid:2.16.840.1.113883.2.4.4.7"/>
                  <code value="261815"/>
                  <display value="WATERSTOFPEROXIDE 3% CONC VOOR MONDSP FNA MR"/>
                  <userSelected value="true"/>
               </coding>
               <coding>
                  <system value="urn:oid:2.16.840.1.113883.2.4.4.10"/>
                  <code value="72994"/>
                  <display value="WATERSTOFPEROXIDE CONC VOOR MONDSPOELING 30MG/ML"/>
               </coding>
               <coding>
                  <system value="urn:oid:2.16.840.1.113883.2.4.4.1"/>
                  <code value="119903"/>
                  <display value="WATERSTOFPEROXIDE CONC VOOR MONDSPOELING 30MG/ML"/>
               </coding>
               <text value="WATERSTOFPEROXIDE 3% CONC VOOR MONDSP FNA MR"/>
            </code>
         </Medication>
      </resource>
      <request>
         <method value="POST"/>
         <url value="Medication"/>
      </request>
   </entry>
</Bundle>
