<Bundle xmlns="http://hl7.org/fhir">
   <id value="mg-mgrp-999900481-ALL"/>
   <type value="transaction"/>
   <entry>
      <fullUrl value="https://example.org/MedicationRequest/89b22b3e-6b11-11ec-0000-020000000000"/>
      <resource>
         <MedicationRequest>
            <meta>
               <profile value="http://nictiz.nl/fhir/StructureDefinition/mp-MedicationAgreement"/>
            </meta>
            <extension url="http://nictiz.nl/fhir/StructureDefinition/ext-RenderedDosageInstruction">
               <valueString value="Vanaf T - 4 maanden, tot en met T + 8 maanden, 1 maal per dag 1 stuk, Bij het eten innemen, Oraal"/>
            </extension>
            <extension url="http://nictiz.nl/fhir/StructureDefinition/ext-TimeInterval.Period">
               <valuePeriod>
                  <start value="${DATE, T, M, -4}T00:00:00+02:00"/>
                  <end value="${DATE, T, M, +8}T23:59:59+02:00"/>
               </valuePeriod>
            </extension>
            <extension url="http://nictiz.nl/fhir/StructureDefinition/ext-PharmaceuticalTreatment.Identifier">
               <valueIdentifier>
                  <system value="urn:oid:2.16.840.1.113883.2.4.3.11.999.77.1.1"/>
                  <value value="MBH_300_aanvullendeinstructie"/>
               </valueIdentifier>
            </extension>
            <identifier>
               <system value="urn:oid:2.16.840.1.113883.2.4.3.11.999.77.16076005.1"/>
               <value value="MBH_300_aanvullendeinstructie_MA"/>
            </identifier>
            <status value="unknown"/>
            <intent value="order"/>
            <category>
               <coding>
                  <system value="http://snomed.info/sct"/>
                  <code value="33633005"/>
                  <display value="voorschrijven van geneesmiddel"/>
               </coding>
            </category>
            <medicationReference>
               <reference value="Medication/a07ec504-6ac4-11ec-0000-020000000000"/>
               <type value="Medication"/>
               <display value="Acetylsalicylzuur tabletmsr 100mg"/>
            </medicationReference>
            <subject>
               <reference value="Patient/72cf5c78-6afc-11ec-0000-020000000000"/>
               <type value="Patient"/>
               <display value="Patient, D. XXX_Dixhoorn"/>
            </subject>
            <authoredOn value="${DATE, T, M, -4}T08:00:00+02:00"/>
            <requester>
               <reference value="PractitionerRole/4560482e-6aec-11ec-0000-020000000000"/>
               <type value="PractitionerRole"/>
               <display value="Healthcare professional (role), Bertine van Doorn, Huisartsen, niet nader gespecificeerd, Huisartsenpraktijk Pulver &amp; Partners"/>
            </requester>
            <dosageInstruction>
               <additionalInstruction>
                  <coding>
                     <system value="http://terminology.hl7.org/CodeSystem/v3-NullFlavor"/>
                     <code value="OTH"/>
                     <display value="overig"/>
                  </coding>
                  <text value="Bij het eten innemen"/>
               </additionalInstruction>
               <timing>
                  <repeat>
                     <frequency value="1"/>
                     <period value="1"/>
                     <periodUnit value="d"/>
                  </repeat>
               </timing>
               <route>
                  <coding>
                     <system value="urn:oid:2.16.840.1.113883.2.4.4.9"/>
                     <code value="9"/>
                     <display value="Oraal"/>
                  </coding>
               </route>
               <doseAndRate>
                  <doseQuantity>
                     <extension url="http://hl7.org/fhir/StructureDefinition/iso21090-PQ-translation">
                        <valueQuantity>
                           <value value="1"/>
                           <unit value="stuk"/>
                           <system value="urn:oid:2.16.840.1.113883.2.4.4.1.900.2"/>
                           <code value="245"/>
                        </valueQuantity>
                     </extension>
                     <value value="1"/>
                     <unit value="stuk"/>
                     <system value="http://unitsofmeasure.org"/>
                     <code value="1"/>
                  </doseQuantity>
               </doseAndRate>
            </dosageInstruction>
         </MedicationRequest>
      </resource>
      <request>
         <method value="POST"/>
         <url value="MedicationRequest"/>
      </request>
   </entry>
   <entry>
      <fullUrl value="https://example.org/MedicationRequest/b71188db-6b52-11ec-0000-020000000000"/>
      <resource>
         <MedicationRequest>
            <meta>
               <profile value="http://nictiz.nl/fhir/StructureDefinition/mp-MedicationAgreement"/>
            </meta>
            <extension url="http://nictiz.nl/fhir/StructureDefinition/ext-RenderedDosageInstruction">
               <valueString value="Vanaf T - 21 dagen, 1 maal per dag 1 stuk, Oraal"/>
            </extension>
            <extension url="http://nictiz.nl/fhir/StructureDefinition/ext-TimeInterval.Period">
               <valuePeriod>
                  <start value="${DATE, T, D, -21}T00:00:00+02:00"/>
               </valuePeriod>
            </extension>
            <extension url="http://nictiz.nl/fhir/StructureDefinition/ext-PharmaceuticalTreatment.Identifier">
               <valueIdentifier>
                  <system value="urn:oid:2.16.840.1.113883.2.4.3.11.999.77.1.1"/>
                  <value value="MBH_300_toelichting"/>
               </valueIdentifier>
            </extension>
            <identifier>
               <system value="urn:oid:2.16.840.1.113883.2.4.3.11.999.77.16076005.1"/>
               <value value="MBH_300_toelichting_MA"/>
            </identifier>
            <status value="unknown"/>
            <intent value="order"/>
            <category>
               <coding>
                  <system value="http://snomed.info/sct"/>
                  <code value="33633005"/>
                  <display value="voorschrijven van geneesmiddel"/>
               </coding>
            </category>
            <medicationReference>
               <reference value="Medication/097956e9-6aa6-11ec-0000-020000000000"/>
               <type value="Medication"/>
               <display value="FUROSEMIDE 40MG TABLET"/>
            </medicationReference>
            <subject>
               <reference value="Patient/72cf5c78-6afc-11ec-0000-020000000000"/>
               <type value="Patient"/>
               <display value="Patient, D. XXX_Dixhoorn"/>
            </subject>
            <authoredOn value="${DATE, T, D, -21}T08:02:00+02:00"/>
            <requester>
               <reference value="PractitionerRole/4560482e-6aec-11ec-0000-020000000000"/>
               <type value="PractitionerRole"/>
               <display value="Healthcare professional (role), Bertine van Doorn, Huisartsen, niet nader gespecificeerd, Huisartsenpraktijk Pulver &amp; Partners"/>
            </requester>
            <note>
               <text value="In overleg met specialist"/>
            </note>
            <dosageInstruction>
               <timing>
                  <repeat>
                     <frequency value="1"/>
                     <period value="1"/>
                     <periodUnit value="d"/>
                  </repeat>
               </timing>
               <route>
                  <coding>
                     <system value="urn:oid:2.16.840.1.113883.2.4.4.9"/>
                     <code value="9"/>
                     <display value="Oraal"/>
                  </coding>
               </route>
               <doseAndRate>
                  <doseQuantity>
                     <extension url="http://hl7.org/fhir/StructureDefinition/iso21090-PQ-translation">
                        <valueQuantity>
                           <value value="1"/>
                           <unit value="stuk"/>
                           <system value="urn:oid:2.16.840.1.113883.2.4.4.1.900.2"/>
                           <code value="245"/>
                        </valueQuantity>
                     </extension>
                     <value value="1"/>
                     <unit value="stuk"/>
                     <system value="http://unitsofmeasure.org"/>
                     <code value="1"/>
                  </doseQuantity>
               </doseAndRate>
            </dosageInstruction>
         </MedicationRequest>
      </resource>
      <request>
         <method value="POST"/>
         <url value="MedicationRequest"/>
      </request>
   </entry>
   <entry>
      <fullUrl value="https://example.org/MedicationRequest/67787f5d-6aa6-11ec-0000-020000000000"/>
      <resource>
         <MedicationRequest>
            <meta>
               <profile value="http://nictiz.nl/fhir/StructureDefinition/mp-MedicationAgreement"/>
            </meta>
            <extension url="http://nictiz.nl/fhir/StructureDefinition/ext-RenderedDosageInstruction">
               <valueString value="Vanaf T - 13 dagen, tot en met T + 14 dagen, 1 maal per week 5 stuks, Oraal"/>
            </extension>
            <extension url="http://nictiz.nl/fhir/StructureDefinition/ext-TimeInterval.Period">
               <valuePeriod>
                  <start value="${DATE, T, D, -13}T00:00:00+02:00"/>
                  <end value="${DATE, T, D, +14}T23:59:59+02:00"/>
               </valuePeriod>
            </extension>
            <extension url="http://nictiz.nl/fhir/StructureDefinition/ext-PharmaceuticalTreatment.Identifier">
               <valueIdentifier>
                  <system value="urn:oid:2.16.840.1.113883.2.4.3.11.999.77.1.1"/>
                  <value value="MBH_300_redenvanvoorschrijven"/>
               </valueIdentifier>
            </extension>
            <identifier>
               <system value="urn:oid:2.16.840.1.113883.2.4.3.11.999.77.16076005.1"/>
               <value value="MBH_300_redenvanvoorschrijven_MA"/>
            </identifier>
            <status value="unknown"/>
            <intent value="order"/>
            <category>
               <coding>
                  <system value="http://snomed.info/sct"/>
                  <code value="33633005"/>
                  <display value="voorschrijven van geneesmiddel"/>
               </coding>
            </category>
            <medicationReference>
               <reference value="Medication/c58f9604-6b3a-11ec-0000-020000000000"/>
               <type value="Medication"/>
               <display value="Methotrexaat tablet 2,5mg"/>
            </medicationReference>
            <subject>
               <reference value="Patient/72cf5c78-6afc-11ec-0000-020000000000"/>
               <type value="Patient"/>
               <display value="Patient, D. XXX_Dixhoorn"/>
            </subject>
            <authoredOn value="${DATE, T, D, -13}T08:05:00+02:00"/>
            <requester>
               <reference value="PractitionerRole/4560482e-6aec-11ec-0000-020000000000"/>
               <type value="PractitionerRole"/>
               <display value="Healthcare professional (role), Bertine van Doorn, Huisartsen, niet nader gespecificeerd, Huisartsenpraktijk Pulver &amp; Partners"/>
            </requester>
            <reasonReference>
               <reference value="Condition/7e2146d6-6b7d-11ec-0000-020000000000"/>
               <type value="Condition"/>
               <display value="Problem"/>
            </reasonReference>
            <dosageInstruction>
               <timing>
                  <repeat>
                     <frequency value="1"/>
                     <period value="1"/>
                     <periodUnit value="wk"/>
                  </repeat>
               </timing>
               <route>
                  <coding>
                     <system value="urn:oid:2.16.840.1.113883.2.4.4.9"/>
                     <code value="9"/>
                     <display value="Oraal"/>
                  </coding>
               </route>
               <doseAndRate>
                  <doseQuantity>
                     <extension url="http://hl7.org/fhir/StructureDefinition/iso21090-PQ-translation">
                        <valueQuantity>
                           <value value="5"/>
                           <unit value="stuk"/>
                           <system value="urn:oid:2.16.840.1.113883.2.4.4.1.900.2"/>
                           <code value="245"/>
                        </valueQuantity>
                     </extension>
                     <value value="5"/>
                     <unit value="stuk"/>
                     <system value="http://unitsofmeasure.org"/>
                     <code value="1"/>
                  </doseQuantity>
               </doseAndRate>
            </dosageInstruction>
         </MedicationRequest>
      </resource>
      <request>
         <method value="POST"/>
         <url value="MedicationRequest"/>
      </request>
   </entry>
   <entry>
      <fullUrl value="https://example.org/MedicationRequest/e283ff6b-6ae0-11ec-0000-020000000000"/>
      <resource>
         <MedicationRequest>
            <meta>
               <profile value="http://nictiz.nl/fhir/StructureDefinition/mp-MedicationAgreement"/>
            </meta>
            <extension url="http://nictiz.nl/fhir/StructureDefinition/ext-MedicationAgreement.MedicationAgreementAdditionalInformation">
               <valueCodeableConcept>
                  <coding>
                     <system value="urn:oid:2.16.840.1.113883.2.4.3.11.60.20.77.5.2.14.2050"/>
                     <code value="1"/>
                     <display value="Bewust hoge dosering"/>
                  </coding>
               </valueCodeableConcept>
            </extension>
            <extension url="http://nictiz.nl/fhir/StructureDefinition/ext-RenderedDosageInstruction">
               <valueString value="Vanaf T - 4 dagen, tot en met T + 5 dagen, 3 maal per dag 1 stuk, Oraal"/>
            </extension>
            <extension url="http://nictiz.nl/fhir/StructureDefinition/ext-TimeInterval.Period">
               <valuePeriod>
                  <start value="${DATE, T, D, -4}T00:00:00+02:00"/>
                  <end value="${DATE, T, D, +5}T23:59:59+02:00"/>
               </valuePeriod>
            </extension>
            <extension url="http://nictiz.nl/fhir/StructureDefinition/ext-PharmaceuticalTreatment.Identifier">
               <valueIdentifier>
                  <system value="urn:oid:2.16.840.1.113883.2.4.3.11.999.77.1.1"/>
                  <value value="MBH_300_aanvullendeinformatiewensen"/>
               </valueIdentifier>
            </extension>
            <identifier>
               <system value="urn:oid:2.16.840.1.113883.2.4.3.11.999.77.16076005.1"/>
               <value value="MBH_300_aanvullendeinformatiewensen_MA"/>
            </identifier>
            <status value="unknown"/>
            <intent value="order"/>
            <category>
               <coding>
                  <system value="http://snomed.info/sct"/>
                  <code value="33633005"/>
                  <display value="voorschrijven van geneesmiddel"/>
               </coding>
            </category>
            <medicationReference>
               <reference value="Medication/ebaaab1d-6b29-11ec-0000-020000000000"/>
               <type value="Medication"/>
               <display value="FENETICILLINE CAPSULE 500MG"/>
            </medicationReference>
            <subject>
               <reference value="Patient/72cf5c78-6afc-11ec-0000-020000000000"/>
               <type value="Patient"/>
               <display value="Patient, D. XXX_Dixhoorn"/>
            </subject>
            <authoredOn value="${DATE, T, D, -5}T08:06:00+02:00"/>
            <requester>
               <reference value="PractitionerRole/4560482e-6aec-11ec-0000-020000000000"/>
               <type value="PractitionerRole"/>
               <display value="Healthcare professional (role), Bertine van Doorn, Huisartsen, niet nader gespecificeerd, Huisartsenpraktijk Pulver &amp; Partners"/>
            </requester>
            <dosageInstruction>
               <timing>
                  <repeat>
                     <frequency value="3"/>
                     <period value="1"/>
                     <periodUnit value="d"/>
                  </repeat>
               </timing>
               <route>
                  <coding>
                     <system value="urn:oid:2.16.840.1.113883.2.4.4.9"/>
                     <code value="9"/>
                     <display value="Oraal"/>
                  </coding>
               </route>
               <doseAndRate>
                  <doseQuantity>
                     <extension url="http://hl7.org/fhir/StructureDefinition/iso21090-PQ-translation">
                        <valueQuantity>
                           <value value="1"/>
                           <unit value="stuk"/>
                           <system value="urn:oid:2.16.840.1.113883.2.4.4.1.900.2"/>
                           <code value="245"/>
                        </valueQuantity>
                     </extension>
                     <value value="1"/>
                     <unit value="stuk"/>
                     <system value="http://unitsofmeasure.org"/>
                     <code value="1"/>
                  </doseQuantity>
               </doseAndRate>
            </dosageInstruction>
         </MedicationRequest>
      </resource>
      <request>
         <method value="POST"/>
         <url value="MedicationRequest"/>
      </request>
   </entry>
   <entry>
      <fullUrl value="https://example.org/MedicationRequest/ef5e583b-6ac1-11ec-0000-020000000000"/>
      <resource>
         <MedicationRequest>
            <meta>
               <profile value="http://nictiz.nl/fhir/StructureDefinition/mp-MedicationAgreement"/>
            </meta>
            <extension url="http://nictiz.nl/fhir/StructureDefinition/ext-MedicationAgreement.MedicationAgreementAdditionalInformation">
               <valueCodeableConcept>
                  <coding>
                     <system value="urn:oid:2.16.840.1.113883.2.4.3.11.60.20.77.5.2.14.2050"/>
                     <code value="3"/>
                     <display value="Bewust afwijkende toedieningsweg"/>
                  </coding>
               </valueCodeableConcept>
            </extension>
            <extension url="http://nictiz.nl/fhir/StructureDefinition/ext-RenderedDosageInstruction">
               <valueString value="Vanaf T - 5 dagen, tot en met T + 2 dagen, 2 maal per dag 1 druppel, In het rechter oog, oculair"/>
            </extension>
            <extension url="http://nictiz.nl/fhir/StructureDefinition/ext-TimeInterval.Period">
               <valuePeriod>
                  <start value="${DATE, T, D, -5}T00:00:00+02:00"/>
                  <end value="${DATE, T, D, +2}T23:59:59+02:00"/>
               </valuePeriod>
            </extension>
            <extension url="http://nictiz.nl/fhir/StructureDefinition/ext-PharmaceuticalTreatment.Identifier">
               <valueIdentifier>
                  <system value="urn:oid:2.16.840.1.113883.2.4.3.11.999.77.1.1"/>
                  <value value="MBH_300_Toedieningsweg"/>
               </valueIdentifier>
            </extension>
            <identifier>
               <system value="urn:oid:2.16.840.1.113883.2.4.3.11.999.77.16076005.1"/>
               <value value="MBH_300_Toedieningsweg_MA"/>
            </identifier>
            <status value="unknown"/>
            <intent value="order"/>
            <category>
               <coding>
                  <system value="http://snomed.info/sct"/>
                  <code value="33633005"/>
                  <display value="voorschrijven van geneesmiddel"/>
               </coding>
            </category>
            <medicationReference>
               <reference value="Medication/9f01ff1d-6afd-11ec-0000-020000000000"/>
               <type value="Medication"/>
               <display value="DEXAMETHASON/FRAMYCETINE/GRAMICIDINE OORDR"/>
            </medicationReference>
            <subject>
               <reference value="Patient/72cf5c78-6afc-11ec-0000-020000000000"/>
               <type value="Patient"/>
               <display value="Patient, D. XXX_Dixhoorn"/>
            </subject>
            <authoredOn value="${DATE, T, D, -5}T08:15:00+02:00"/>
            <requester>
               <reference value="PractitionerRole/4560482e-6aec-11ec-0000-020000000000"/>
               <type value="PractitionerRole"/>
               <display value="Healthcare professional (role), Bertine van Doorn, Huisartsen, niet nader gespecificeerd, Huisartsenpraktijk Pulver &amp; Partners"/>
            </requester>
            <dosageInstruction>
               <additionalInstruction>
                  <coding>
                     <system value="http://terminology.hl7.org/CodeSystem/v3-NullFlavor"/>
                     <code value="OTH"/>
                     <display value="overig"/>
                  </coding>
                  <text value="In het rechter oog"/>
               </additionalInstruction>
               <timing>
                  <repeat>
                     <frequency value="2"/>
                     <period value="1"/>
                     <periodUnit value="d"/>
                  </repeat>
               </timing>
               <route>
                  <coding>
                     <system value="urn:oid:2.16.840.1.113883.2.4.4.9"/>
                     <code value="7"/>
                     <display value="oculair"/>
                  </coding>
               </route>
               <doseAndRate>
                  <doseQuantity>
                     <extension url="http://hl7.org/fhir/StructureDefinition/iso21090-PQ-translation">
                        <valueQuantity>
                           <value value="1"/>
                           <unit value="Druppel"/>
                           <system value="urn:oid:2.16.840.1.113883.2.4.4.1.900.2"/>
                           <code value="303"/>
                        </valueQuantity>
                     </extension>
                     <value value="1"/>
                     <unit value="Druppel"/>
                     <system value="http://unitsofmeasure.org"/>
                     <code value="[drp]"/>
                  </doseQuantity>
               </doseAndRate>
            </dosageInstruction>
         </MedicationRequest>
      </resource>
      <request>
         <method value="POST"/>
         <url value="MedicationRequest"/>
      </request>
   </entry>
   <entry>
      <fullUrl value="https://example.org/MedicationRequest/bc39e66d-6b72-11ec-0000-020000000000"/>
      <resource>
         <MedicationRequest>
            <meta>
               <profile value="http://nictiz.nl/fhir/StructureDefinition/mp-VariableDosingRegimen"/>
            </meta>
            <extension url="http://nictiz.nl/fhir/StructureDefinition/ext-PharmaceuticalTreatment.Identifier">
               <valueIdentifier>
                  <system value="urn:oid:2.16.840.1.113883.2.4.3.11.999.77.1.1"/>
                  <value value="MBH_300_WDS_aanvullendeinstructie"/>
               </valueIdentifier>
            </extension>
            <extension url="http://nictiz.nl/fhir/StructureDefinition/ext-RenderedDosageInstruction">
               <valueString value="Vanaf T - 5 dagen, gedurende 7 dagen, eerst gedurende 3 dagen 1 maal per dag 3 stuks, dan gedurende 4 dagen 1 maal per dag 2 stuks, Zelfde tijd elke dag, Oraal"/>
            </extension>
            <extension url="http://nictiz.nl/fhir/StructureDefinition/ext-TimeInterval.Period">
               <valuePeriod>
                  <extension url="http://nictiz.nl/fhir/StructureDefinition/ext-TimeInterval.Duration">
                     <valueDuration>
                        <value value="7"/>
                        <unit value="dag"/>
                        <system value="http://unitsofmeasure.org"/>
                        <code value="d"/>
                     </valueDuration>
                  </extension>
                  <start value="${DATE, T, D, -5}T00:00:00+02:00"/>
               </valuePeriod>
            </extension>
            <identifier>
               <system value="urn:oid:2.16.840.1.113883.2.4.3.11.999.77.632.1"/>
               <value value="MBH_300_WDS_aanvullendeinstructie_WDS"/>
            </identifier>
            <status value="unknown"/>
            <intent value="order"/>
            <category>
               <coding>
                  <system value="http://snomed.info/sct"/>
                  <code value="395067002"/>
                  <display value="optimaliseren van dosering van medicatie"/>
               </coding>
            </category>
            <medicationReference>
               <reference value="Medication/ca0c3ae9-6aff-11ec-0000-020000000000"/>
               <type value="Medication"/>
               <display value="ACENOCOUMAROL TABLET 1MG"/>
            </medicationReference>
            <subject>
               <reference value="Patient/72cf5c78-6afc-11ec-0000-020000000000"/>
               <type value="Patient"/>
               <display value="Patient, D. XXX_Dixhoorn"/>
            </subject>
            <authoredOn value="${DATE, T, D, -5}T13:30:00+02:00"/>
            <requester>
               <reference value="PractitionerRole/8d3d1824-6aeb-11ec-0000-020000000000"/>
               <type value="PractitionerRole"/>
               <display value="Healthcare professional (role), Tanja de Bakker, Trombosediensten, Trombosedienst Ons Dorp"/>
            </requester>
            <basedOn>
               <type value="MedicationRequest"/>
               <identifier>
                  <system value="urn:oid:2.16.840.1.113883.2.4.3.11.999.77.16076005.1"/>
                  <value value="MBH_300_WDS_aanvullendeinstructie_MA"/>
               </identifier>
               <display value="relatie naar medicatieafspraak met identificatie: MBH_300_WDS_aanvullendeinstructie_MA || 2.16.840.1.113883.2.4.3.11.999.77.16076005.1"/>
            </basedOn>
            <dosageInstruction>
               <sequence value="1"/>
               <additionalInstruction>
                  <coding>
                     <system value="http://terminology.hl7.org/CodeSystem/v3-NullFlavor"/>
                     <code value="OTH"/>
                     <display value="overig"/>
                  </coding>
                  <text value="Zelfde tijd elke dag"/>
               </additionalInstruction>
               <timing>
                  <repeat>
                     <boundsDuration>
                        <value value="3"/>
                        <unit value="dag"/>
                        <system value="http://unitsofmeasure.org"/>
                        <code value="d"/>
                     </boundsDuration>
                     <frequency value="1"/>
                     <period value="1"/>
                     <periodUnit value="d"/>
                  </repeat>
               </timing>
               <route>
                  <coding>
                     <system value="urn:oid:2.16.840.1.113883.2.4.4.9"/>
                     <code value="9"/>
                     <display value="Oraal"/>
                  </coding>
               </route>
               <doseAndRate>
                  <doseQuantity>
                     <extension url="http://hl7.org/fhir/StructureDefinition/iso21090-PQ-translation">
                        <valueQuantity>
                           <value value="3"/>
                           <unit value="stuk"/>
                           <system value="urn:oid:2.16.840.1.113883.2.4.4.1.900.2"/>
                           <code value="245"/>
                        </valueQuantity>
                     </extension>
                     <value value="3"/>
                     <unit value="stuk"/>
                     <system value="http://unitsofmeasure.org"/>
                     <code value="1"/>
                  </doseQuantity>
               </doseAndRate>
            </dosageInstruction>
            <dosageInstruction>
               <sequence value="2"/>
               <additionalInstruction>
                  <coding>
                     <system value="http://terminology.hl7.org/CodeSystem/v3-NullFlavor"/>
                     <code value="OTH"/>
                     <display value="overig"/>
                  </coding>
                  <text value="Zelfde tijd elke dag"/>
               </additionalInstruction>
               <timing>
                  <repeat>
                     <boundsDuration>
                        <value value="4"/>
                        <unit value="dag"/>
                        <system value="http://unitsofmeasure.org"/>
                        <code value="d"/>
                     </boundsDuration>
                     <frequency value="1"/>
                     <period value="1"/>
                     <periodUnit value="d"/>
                  </repeat>
               </timing>
               <route>
                  <coding>
                     <system value="urn:oid:2.16.840.1.113883.2.4.4.9"/>
                     <code value="9"/>
                     <display value="Oraal"/>
                  </coding>
               </route>
               <doseAndRate>
                  <doseQuantity>
                     <extension url="http://hl7.org/fhir/StructureDefinition/iso21090-PQ-translation">
                        <valueQuantity>
                           <value value="2"/>
                           <unit value="stuk"/>
                           <system value="urn:oid:2.16.840.1.113883.2.4.4.1.900.2"/>
                           <code value="245"/>
                        </valueQuantity>
                     </extension>
                     <value value="2"/>
                     <unit value="stuk"/>
                     <system value="http://unitsofmeasure.org"/>
                     <code value="1"/>
                  </doseQuantity>
               </doseAndRate>
            </dosageInstruction>
         </MedicationRequest>
      </resource>
      <request>
         <method value="POST"/>
         <url value="MedicationRequest"/>
      </request>
   </entry>
   <entry>
      <fullUrl value="https://example.org/MedicationRequest/e2ab0fed-6aaa-11ec-0000-020000000000"/>
      <resource>
         <MedicationRequest>
            <meta>
               <profile value="http://nictiz.nl/fhir/StructureDefinition/mp-VariableDosingRegimen"/>
            </meta>
            <extension url="http://nictiz.nl/fhir/StructureDefinition/ext-PharmaceuticalTreatment.Identifier">
               <valueIdentifier>
                  <system value="urn:oid:2.16.840.1.113883.2.4.3.11.999.77.1.1"/>
                  <value value="MBH_300_WDS_toelichting"/>
               </valueIdentifier>
            </extension>
            <extension url="http://nictiz.nl/fhir/StructureDefinition/ext-RenderedDosageInstruction">
               <valueString value="Vanaf T - 5 dagen, gedurende 2 weken, cyclus van 3 dagen: steeds eerst gedurende 2 dagen 1 maal per dag 1 stuk, dan gedurende 1 dag 1 maal per dag 0.5 stuk, Oraal"/>
            </extension>
            <extension url="http://nictiz.nl/fhir/StructureDefinition/ext-TimeInterval.Period">
               <valuePeriod>
                  <extension url="http://nictiz.nl/fhir/StructureDefinition/ext-TimeInterval.Duration">
                     <valueDuration>
                        <value value="2"/>
                        <unit value="week"/>
                        <system value="http://unitsofmeasure.org"/>
                        <code value="wk"/>
                     </valueDuration>
                  </extension>
                  <start value="${DATE, T, D, -5}T00:00:00+02:00"/>
               </valuePeriod>
            </extension>
            <modifierExtension url="http://nictiz.nl/fhir/StructureDefinition/ext-InstructionsForUse.RepeatPeriodCyclicalSchedule">
               <valueDuration>
                  <value value="3"/>
                  <unit value="dag"/>
                  <system value="http://unitsofmeasure.org"/>
                  <code value="d"/>
               </valueDuration>
            </modifierExtension>
            <identifier>
               <system value="urn:oid:2.16.840.1.113883.2.4.3.11.999.77.632.1"/>
               <value value="MBH_300_WDS_toelichting_WDS"/>
            </identifier>
            <status value="unknown"/>
            <intent value="order"/>
            <category>
               <coding>
                  <system value="http://snomed.info/sct"/>
                  <code value="395067002"/>
                  <display value="optimaliseren van dosering van medicatie"/>
               </coding>
            </category>
            <medicationReference>
               <reference value="Medication/4c6ca204-6b1b-11ec-0000-020000000000"/>
               <type value="Medication"/>
               <display value="FENPRCOUMON TABLET 3MG"/>
            </medicationReference>
            <subject>
               <reference value="Patient/72cf5c78-6afc-11ec-0000-020000000000"/>
               <type value="Patient"/>
               <display value="Patient, D. XXX_Dixhoorn"/>
            </subject>
            <authoredOn value="${DATE, T, D, -5}T08:05:00+02:00"/>
            <requester>
               <reference value="PractitionerRole/8d3d1824-6aeb-11ec-0000-020000000000"/>
               <type value="PractitionerRole"/>
               <display value="Healthcare professional (role), Tanja de Bakker, Trombosediensten, Trombosedienst Ons Dorp"/>
            </requester>
            <basedOn>
               <type value="MedicationRequest"/>
               <identifier>
                  <system value="urn:oid:2.16.840.1.113883.2.4.3.11.999.77.16076005.1"/>
                  <value value="MBH_300_WDS_toelichting_MA"/>
               </identifier>
               <display value="relatie naar medicatieafspraak met identificatie: MBH_300_WDS_toelichting_MA || 2.16.840.1.113883.2.4.3.11.999.77.16076005.1"/>
            </basedOn>
            <note>
               <text value="gemeten INR-waarde: 2,6"/>
            </note>
            <dosageInstruction>
               <sequence value="1"/>
               <timing>
                  <repeat>
                     <boundsDuration>
                        <value value="2"/>
                        <unit value="dag"/>
                        <system value="http://unitsofmeasure.org"/>
                        <code value="d"/>
                     </boundsDuration>
                     <frequency value="1"/>
                     <period value="1"/>
                     <periodUnit value="d"/>
                  </repeat>
               </timing>
               <route>
                  <coding>
                     <system value="urn:oid:2.16.840.1.113883.2.4.4.9"/>
                     <code value="9"/>
                     <display value="Oraal"/>
                  </coding>
               </route>
               <doseAndRate>
                  <doseQuantity>
                     <extension url="http://hl7.org/fhir/StructureDefinition/iso21090-PQ-translation">
                        <valueQuantity>
                           <value value="1"/>
                           <unit value="stuk"/>
                           <system value="urn:oid:2.16.840.1.113883.2.4.4.1.900.2"/>
                           <code value="245"/>
                        </valueQuantity>
                     </extension>
                     <value value="1"/>
                     <unit value="stuk"/>
                     <system value="http://unitsofmeasure.org"/>
                     <code value="1"/>
                  </doseQuantity>
               </doseAndRate>
            </dosageInstruction>
            <dosageInstruction>
               <sequence value="2"/>
               <timing>
                  <repeat>
                     <boundsDuration>
                        <value value="1"/>
                        <unit value="dag"/>
                        <system value="http://unitsofmeasure.org"/>
                        <code value="d"/>
                     </boundsDuration>
                     <frequency value="1"/>
                     <period value="1"/>
                     <periodUnit value="d"/>
                  </repeat>
               </timing>
               <route>
                  <coding>
                     <system value="urn:oid:2.16.840.1.113883.2.4.4.9"/>
                     <code value="9"/>
                     <display value="Oraal"/>
                  </coding>
               </route>
               <doseAndRate>
                  <doseQuantity>
                     <extension url="http://hl7.org/fhir/StructureDefinition/iso21090-PQ-translation">
                        <valueQuantity>
                           <value value="0.5"/>
                           <unit value="stuk"/>
                           <system value="urn:oid:2.16.840.1.113883.2.4.4.1.900.2"/>
                           <code value="245"/>
                        </valueQuantity>
                     </extension>
                     <value value="0.5"/>
                     <unit value="stuk"/>
                     <system value="http://unitsofmeasure.org"/>
                     <code value="1"/>
                  </doseQuantity>
               </doseAndRate>
            </dosageInstruction>
         </MedicationRequest>
      </resource>
      <request>
         <method value="POST"/>
         <url value="MedicationRequest"/>
      </request>
   </entry>
   <entry>
      <fullUrl value="https://example.org/MedicationRequest/9fee20a1-6b5c-11ec-0000-020000000000"/>
      <resource>
         <MedicationRequest>
            <meta>
               <profile value="http://nictiz.nl/fhir/StructureDefinition/mp-DispenseRequest"/>
            </meta>
            <extension url="http://nictiz.nl/fhir/StructureDefinition/ext-PharmaceuticalTreatment.Identifier">
               <valueIdentifier>
                  <system value="urn:oid:2.16.840.1.113883.2.4.3.11.999.77.1.1"/>
                  <value value="MBH_300_toelichting"/>
               </valueIdentifier>
            </extension>
            <identifier>
               <system value="urn:oid:2.16.840.1.113883.2.4.3.11.999.77.52711000146108.1"/>
               <value value="MBH_300_toelichting_VV"/>
            </identifier>
            <status value="unknown"/>
            <intent value="order"/>
            <category>
               <coding>
                  <system value="http://snomed.info/sct"/>
                  <code value="52711000146108"/>
                  <display value="verstrekkingsverzoek"/>
               </coding>
            </category>
            <medicationReference>
               <reference value="Medication/097956e9-6aa6-11ec-0000-020000000000"/>
               <type value="Medication"/>
               <display value="FUROSEMIDE 40MG TABLET"/>
            </medicationReference>
            <subject>
               <reference value="Patient/72cf5c78-6afc-11ec-0000-020000000000"/>
               <type value="Patient"/>
               <display value="Patient, D. XXX_Dixhoorn"/>
            </subject>
            <authoredOn value="${DATE, T, D, -21}T08:02:00+02:00"/>
            <requester>
               <reference value="PractitionerRole/4560482e-6aec-11ec-0000-020000000000"/>
               <type value="PractitionerRole"/>
               <display value="Healthcare professional (role), Bertine van Doorn, Huisartsen, niet nader gespecificeerd, Huisartsenpraktijk Pulver &amp; Partners"/>
            </requester>
            <performer>
               <reference value="Organization/98d231d8-6b0c-11ec-0000-020000000000"/>
               <type value="Organization"/>
               <display value="Healthcare provider (organization), Apotheek De Gulle Gaper"/>
            </performer>
            <basedOn>
               <type value="MedicationRequest"/>
               <identifier>
                  <system value="urn:oid:2.16.840.1.113883.2.4.3.11.999.77.16076005.1"/>
                  <value value="MBH_300_toelichting_MA"/>
               </identifier>
               <display value="relatie naar medicatieafspraak  met identificatie: MBH_300_toelichting_MA || 2.16.840.1.113883.2.4.3.11.999.77.16076005.1"/>
            </basedOn>
            <note>
               <text value="Extra verstrekkingsverzoek omdat patient medicatie is kwijtgeraakt"/>
            </note>
            <dispenseRequest>
               <quantity>
                  <extension url="http://hl7.org/fhir/StructureDefinition/iso21090-PQ-translation">
                     <valueQuantity>
                        <value value="30"/>
                        <unit value="stuk"/>
                        <system value="urn:oid:2.16.840.1.113883.2.4.4.1.900.2"/>
                        <code value="245"/>
                     </valueQuantity>
                  </extension>
                  <value value="30"/>
                  <unit value="stuk"/>
                  <system value="http://unitsofmeasure.org"/>
                  <code value="1"/>
               </quantity>
            </dispenseRequest>
         </MedicationRequest>
      </resource>
      <request>
         <method value="POST"/>
         <url value="MedicationRequest"/>
      </request>
   </entry>
   <entry>
      <fullUrl value="https://example.org/MedicationRequest/234008a1-6ac8-11ec-0000-020000000000"/>
      <resource>
         <MedicationRequest>
            <meta>
               <profile value="http://nictiz.nl/fhir/StructureDefinition/mp-DispenseRequest"/>
            </meta>
            <extension url="http://nictiz.nl/fhir/StructureDefinition/ext-DispenseRequest.AdditionalWishes">
               <valueCodeableConcept>
                  <coding>
                     <system value="urn:oid:2.16.840.1.113883.2.4.3.11.60.20.77.5.2.14.2051"/>
                     <code value="3"/>
                     <display value="Bezorgen"/>
                  </coding>
               </valueCodeableConcept>
            </extension>
            <extension url="http://nictiz.nl/fhir/StructureDefinition/ext-PharmaceuticalTreatment.Identifier">
               <valueIdentifier>
                  <system value="urn:oid:2.16.840.1.113883.2.4.3.11.999.77.1.1"/>
                  <value value="MBH_300_aanvullendeinformatiewensen"/>
               </valueIdentifier>
            </extension>
            <identifier>
               <system value="urn:oid:2.16.840.1.113883.2.4.3.11.999.77.52711000146108.1"/>
               <value value="MBH_300_aanvullendeinformatiewensen_VV"/>
            </identifier>
            <status value="unknown"/>
            <intent value="order"/>
            <category>
               <coding>
                  <system value="http://snomed.info/sct"/>
                  <code value="52711000146108"/>
                  <display value="verstrekkingsverzoek"/>
               </coding>
            </category>
            <medicationReference>
               <reference value="Medication/ebaaab1d-6b29-11ec-0000-020000000000"/>
               <type value="Medication"/>
               <display value="FENETICILLINE CAPSULE 500MG"/>
            </medicationReference>
            <subject>
               <reference value="Patient/72cf5c78-6afc-11ec-0000-020000000000"/>
               <type value="Patient"/>
               <display value="Patient, D. XXX_Dixhoorn"/>
            </subject>
            <authoredOn value="${DATE, T, D, -5}T08:06:00+02:00"/>
            <requester>
               <reference value="PractitionerRole/4560482e-6aec-11ec-0000-020000000000"/>
               <type value="PractitionerRole"/>
               <display value="Healthcare professional (role), Bertine van Doorn, Huisartsen, niet nader gespecificeerd, Huisartsenpraktijk Pulver &amp; Partners"/>
            </requester>
            <performer>
               <reference value="Organization/98d231d8-6b0c-11ec-0000-020000000000"/>
               <type value="Organization"/>
               <display value="Healthcare provider (organization), Apotheek De Gulle Gaper"/>
            </performer>
            <basedOn>
               <type value="MedicationRequest"/>
               <identifier>
                  <system value="urn:oid:2.16.840.1.113883.2.4.3.11.999.77.16076005.1"/>
                  <value value="MBH_300_aanvullendeinformatiewensen_MA"/>
               </identifier>
               <display value="relatie naar medicatieafspraak  met identificatie: MBH_300_aanvullendeinformatiewensen_MA || 2.16.840.1.113883.2.4.3.11.999.77.16076005.1"/>
            </basedOn>
            <dispenseRequest>
               <quantity>
                  <extension url="http://hl7.org/fhir/StructureDefinition/iso21090-PQ-translation">
                     <valueQuantity>
                        <value value="30"/>
                        <unit value="stuk"/>
                        <system value="urn:oid:2.16.840.1.113883.2.4.4.1.900.2"/>
                        <code value="245"/>
                     </valueQuantity>
                  </extension>
                  <value value="30"/>
                  <unit value="stuk"/>
                  <system value="http://unitsofmeasure.org"/>
                  <code value="1"/>
               </quantity>
            </dispenseRequest>
         </MedicationRequest>
      </resource>
      <request>
         <method value="POST"/>
         <url value="MedicationRequest"/>
      </request>
   </entry>
   <entry>
      <fullUrl value="https://example.org/MedicationDispense/53377b48-6b27-11ec-0000-020000000000"/>
      <resource>
         <MedicationDispense>
            <meta>
               <profile value="http://nictiz.nl/fhir/StructureDefinition/mp-AdministrationAgreement"/>
            </meta>
            <extension url="http://nictiz.nl/fhir/StructureDefinition/ext-AdministrationAgreement.AdministrationAgreementDateTime">
               <valueDateTime value="${DATE, T, M, -4}T09:00:00+02:00"/>
            </extension>
            <extension url="http://nictiz.nl/fhir/StructureDefinition/ext-RenderedDosageInstruction">
               <valueString value="Vanaf T - 4 maanden, tot en met T + 8 maanden, 1 maal per dag 1 stuk, Bij het eten innemen, Oraal"/>
            </extension>
            <extension url="http://nictiz.nl/fhir/StructureDefinition/ext-TimeInterval.Period">
               <valuePeriod>
                  <start value="${DATE, T, M, -4}T00:00:00+02:00"/>
                  <end value="${DATE, T, M, +8}T23:59:59+02:00"/>
               </valuePeriod>
            </extension>
            <extension url="http://nictiz.nl/fhir/StructureDefinition/ext-PharmaceuticalTreatment.Identifier">
               <valueIdentifier>
                  <system value="urn:oid:2.16.840.1.113883.2.4.3.11.999.77.1.1"/>
                  <value value="MBH_300_aanvullendeinstructie"/>
               </valueIdentifier>
            </extension>
            <identifier>
               <system value="urn:oid:2.16.840.1.113883.2.4.3.11.999.77.422037009.1"/>
               <value value="MBH_300_aanvullendeinstructie_TA"/>
            </identifier>
            <status value="unknown"/>
            <category>
               <coding>
                  <system value="http://snomed.info/sct"/>
                  <code value="422037009"/>
                  <display value="toedieningsafspraak"/>
               </coding>
            </category>
            <medicationReference>
               <reference value="Medication/e353031d-6b40-11ec-0000-020000000000"/>
               <type value="Medication"/>
               <display value="ASPIRINE PROTECT EC TABLET MSR 100MG"/>
            </medicationReference>
            <subject>
               <reference value="Patient/72cf5c78-6afc-11ec-0000-020000000000"/>
               <type value="Patient"/>
               <display value="Patient, D. XXX_Dixhoorn"/>
            </subject>
            <performer>
               <actor>
                  <reference value="Organization/98d231d8-6b0c-11ec-0000-020000000000"/>
                  <type value="Organization"/>
                  <display value="Healthcare provider (organization), Apotheek De Gulle Gaper"/>
               </actor>
            </performer>
            <authorizingPrescription>
               <type value="MedicationRequest"/>
               <identifier>
                  <system value="urn:oid:2.16.840.1.113883.2.4.3.11.999.77.16076005.1"/>
                  <value value="MBH_300_aanvullendeinstructie_MA"/>
               </identifier>
               <display value="relatie naar medicatieafspraak met identificatie: MBH_300_aanvullendeinstructie_MA || 2.16.840.1.113883.2.4.3.11.999.77.16076005.1"/>
            </authorizingPrescription>
            <dosageInstruction>
               <additionalInstruction>
                  <coding>
                     <system value="http://terminology.hl7.org/CodeSystem/v3-NullFlavor"/>
                     <code value="OTH"/>
                     <display value="overig"/>
                  </coding>
                  <text value="Bij het eten innemen"/>
               </additionalInstruction>
               <timing>
                  <repeat>
                     <frequency value="1"/>
                     <period value="1"/>
                     <periodUnit value="d"/>
                  </repeat>
               </timing>
               <route>
                  <coding>
                     <system value="urn:oid:2.16.840.1.113883.2.4.4.9"/>
                     <code value="9"/>
                     <display value="Oraal"/>
                  </coding>
               </route>
               <doseAndRate>
                  <doseQuantity>
                     <extension url="http://hl7.org/fhir/StructureDefinition/iso21090-PQ-translation">
                        <valueQuantity>
                           <value value="1"/>
                           <unit value="stuk"/>
                           <system value="urn:oid:2.16.840.1.113883.2.4.4.1.900.2"/>
                           <code value="245"/>
                        </valueQuantity>
                     </extension>
                     <value value="1"/>
                     <unit value="stuk"/>
                     <system value="http://unitsofmeasure.org"/>
                     <code value="1"/>
                  </doseQuantity>
               </doseAndRate>
            </dosageInstruction>
         </MedicationDispense>
      </resource>
      <request>
         <method value="POST"/>
         <url value="MedicationDispense"/>
      </request>
   </entry>
   <entry>
      <fullUrl value="https://example.org/MedicationDispense/4a55b302-6afa-11ec-0000-020000000000"/>
      <resource>
         <MedicationDispense>
            <meta>
               <profile value="http://nictiz.nl/fhir/StructureDefinition/mp-AdministrationAgreement"/>
            </meta>
            <extension url="http://nictiz.nl/fhir/StructureDefinition/ext-AdministrationAgreement.AdministrationAgreementDateTime">
               <valueDateTime value="${DATE, T, D, -21}T09:02:00+02:00"/>
            </extension>
            <extension url="http://nictiz.nl/fhir/StructureDefinition/ext-RenderedDosageInstruction">
               <valueString value="Vanaf T - 21 dagen, 1 maal per dag 1 stuk, Oraal"/>
            </extension>
            <extension url="http://nictiz.nl/fhir/StructureDefinition/ext-TimeInterval.Period">
               <valuePeriod>
                  <start value="${DATE, T, D, -21}T00:00:00+02:00"/>
               </valuePeriod>
            </extension>
            <extension url="http://nictiz.nl/fhir/StructureDefinition/ext-PharmaceuticalTreatment.Identifier">
               <valueIdentifier>
                  <system value="urn:oid:2.16.840.1.113883.2.4.3.11.999.77.1.1"/>
                  <value value="MBH_300_toelichting"/>
               </valueIdentifier>
            </extension>
            <identifier>
               <system value="urn:oid:2.16.840.1.113883.2.4.3.11.999.77.422037009.1"/>
               <value value="MBH_300_toelichting_TA"/>
            </identifier>
            <status value="unknown"/>
            <category>
               <coding>
                  <system value="http://snomed.info/sct"/>
                  <code value="422037009"/>
                  <display value="toedieningsafspraak"/>
               </coding>
            </category>
            <medicationReference>
               <reference value="Medication/ff75311d-6b1a-11ec-0000-020000000000"/>
               <type value="Medication"/>
               <display value="FUROSEMIDE SANDOZ TABLET 40MG"/>
            </medicationReference>
            <subject>
               <reference value="Patient/72cf5c78-6afc-11ec-0000-020000000000"/>
               <type value="Patient"/>
               <display value="Patient, D. XXX_Dixhoorn"/>
            </subject>
            <performer>
               <actor>
                  <reference value="Organization/98d231d8-6b0c-11ec-0000-020000000000"/>
                  <type value="Organization"/>
                  <display value="Healthcare provider (organization), Apotheek De Gulle Gaper"/>
               </actor>
            </performer>
            <authorizingPrescription>
               <type value="MedicationRequest"/>
               <identifier>
                  <system value="urn:oid:2.16.840.1.113883.2.4.3.11.999.77.16076005.1"/>
                  <value value="MBH_300_toelichting_MA"/>
               </identifier>
               <display value="relatie naar medicatieafspraak met identificatie: MBH_300_toelichting_MA || 2.16.840.1.113883.2.4.3.11.999.77.16076005.1"/>
            </authorizingPrescription>
            <note>
               <text value="In overleg met specialist"/>
            </note>
            <dosageInstruction>
               <timing>
                  <repeat>
                     <frequency value="1"/>
                     <period value="1"/>
                     <periodUnit value="d"/>
                  </repeat>
               </timing>
               <route>
                  <coding>
                     <system value="urn:oid:2.16.840.1.113883.2.4.4.9"/>
                     <code value="9"/>
                     <display value="Oraal"/>
                  </coding>
               </route>
               <doseAndRate>
                  <doseQuantity>
                     <extension url="http://hl7.org/fhir/StructureDefinition/iso21090-PQ-translation">
                        <valueQuantity>
                           <value value="1"/>
                           <unit value="stuk"/>
                           <system value="urn:oid:2.16.840.1.113883.2.4.4.1.900.2"/>
                           <code value="245"/>
                        </valueQuantity>
                     </extension>
                     <value value="1"/>
                     <unit value="stuk"/>
                     <system value="http://unitsofmeasure.org"/>
                     <code value="1"/>
                  </doseQuantity>
               </doseAndRate>
            </dosageInstruction>
         </MedicationDispense>
      </resource>
      <request>
         <method value="POST"/>
         <url value="MedicationDispense"/>
      </request>
   </entry>
   <entry>
      <fullUrl value="https://example.org/MedicationDispense/5a864f0d-6b40-11ec-0000-020000000000"/>
      <resource>
         <MedicationDispense>
            <meta>
               <profile value="http://nictiz.nl/fhir/StructureDefinition/mp-AdministrationAgreement"/>
            </meta>
            <extension url="http://nictiz.nl/fhir/StructureDefinition/ext-AdministrationAgreement.AdministrationAgreementDateTime">
               <valueDateTime value="${DATE, T, D, -13}T09:05:00+02:00"/>
            </extension>
            <extension url="http://nictiz.nl/fhir/StructureDefinition/ext-RenderedDosageInstruction">
               <valueString value="Vanaf T - 13 dagen, tot en met T + 14 dagen, 1 maal per week 5 stuks, Oraal"/>
            </extension>
            <extension url="http://nictiz.nl/fhir/StructureDefinition/ext-TimeInterval.Period">
               <valuePeriod>
                  <start value="${DATE, T, D, -13}T00:00:00+02:00"/>
                  <end value="${DATE, T, D, +14}T23:59:59+02:00"/>
               </valuePeriod>
            </extension>
            <extension url="http://nictiz.nl/fhir/StructureDefinition/ext-PharmaceuticalTreatment.Identifier">
               <valueIdentifier>
                  <system value="urn:oid:2.16.840.1.113883.2.4.3.11.999.77.1.1"/>
                  <value value="MBH_300_redenvanvoorschrijven"/>
               </valueIdentifier>
            </extension>
            <identifier>
               <system value="urn:oid:2.16.840.1.113883.2.4.3.11.999.77.422037009.1"/>
               <value value="MBH_300_redenvanvoorschrijven_TA"/>
            </identifier>
            <status value="unknown"/>
            <category>
               <coding>
                  <system value="http://snomed.info/sct"/>
                  <code value="422037009"/>
                  <display value="toedieningsafspraak"/>
               </coding>
            </category>
            <medicationReference>
               <reference value="Medication/6c0af11d-6abd-11ec-0000-020000000000"/>
               <type value="Medication"/>
               <display value="METHOTREXAAT PCH TABLET 2,5MG"/>
            </medicationReference>
            <subject>
               <reference value="Patient/72cf5c78-6afc-11ec-0000-020000000000"/>
               <type value="Patient"/>
               <display value="Patient, D. XXX_Dixhoorn"/>
            </subject>
            <performer>
               <actor>
                  <reference value="Organization/98d231d8-6b0c-11ec-0000-020000000000"/>
                  <type value="Organization"/>
                  <display value="Healthcare provider (organization), Apotheek De Gulle Gaper"/>
               </actor>
            </performer>
            <authorizingPrescription>
               <type value="MedicationRequest"/>
               <identifier>
                  <system value="urn:oid:2.16.840.1.113883.2.4.3.11.999.77.16076005.1"/>
                  <value value="MBH_300_redenvanvoorschrijven_MA"/>
               </identifier>
               <display value="relatie naar medicatieafspraak met identificatie: MBH_300_redenvanvoorschrijven_MA || 2.16.840.1.113883.2.4.3.11.999.77.16076005.1"/>
            </authorizingPrescription>
            <dosageInstruction>
               <timing>
                  <repeat>
                     <frequency value="1"/>
                     <period value="1"/>
                     <periodUnit value="wk"/>
                  </repeat>
               </timing>
               <route>
                  <coding>
                     <system value="urn:oid:2.16.840.1.113883.2.4.4.9"/>
                     <code value="9"/>
                     <display value="Oraal"/>
                  </coding>
               </route>
               <doseAndRate>
                  <doseQuantity>
                     <extension url="http://hl7.org/fhir/StructureDefinition/iso21090-PQ-translation">
                        <valueQuantity>
                           <value value="5"/>
                           <unit value="stuk"/>
                           <system value="urn:oid:2.16.840.1.113883.2.4.4.1.900.2"/>
                           <code value="245"/>
                        </valueQuantity>
                     </extension>
                     <value value="5"/>
                     <unit value="stuk"/>
                     <system value="http://unitsofmeasure.org"/>
                     <code value="1"/>
                  </doseQuantity>
               </doseAndRate>
            </dosageInstruction>
         </MedicationDispense>
      </resource>
      <request>
         <method value="POST"/>
         <url value="MedicationDispense"/>
      </request>
   </entry>
   <entry>
      <fullUrl value="https://example.org/MedicationDispense/24c3df0d-6b58-11ec-0000-020000000000"/>
      <resource>
         <MedicationDispense>
            <meta>
               <profile value="http://nictiz.nl/fhir/StructureDefinition/mp-AdministrationAgreement"/>
            </meta>
            <extension url="http://nictiz.nl/fhir/StructureDefinition/ext-AdministrationAgreement.AdditionalInformation">
               <valueString value="Bijwerking besproken"/>
            </extension>
            <extension url="http://nictiz.nl/fhir/StructureDefinition/ext-AdministrationAgreement.AdministrationAgreementDateTime">
               <valueDateTime value="${DATE, T, D, -5}T09:06:00+02:00"/>
            </extension>
            <extension url="http://nictiz.nl/fhir/StructureDefinition/ext-RenderedDosageInstruction">
               <valueString value="Vanaf T - 4 dagen, tot en met T + 5 dagen, 3 maal per dag 1 stuk, Oraal"/>
            </extension>
            <extension url="http://nictiz.nl/fhir/StructureDefinition/ext-TimeInterval.Period">
               <valuePeriod>
                  <start value="${DATE, T, D, -4}T00:00:00+02:00"/>
                  <end value="${DATE, T, D, +5}T23:59:59+02:00"/>
               </valuePeriod>
            </extension>
            <extension url="http://nictiz.nl/fhir/StructureDefinition/ext-PharmaceuticalTreatment.Identifier">
               <valueIdentifier>
                  <system value="urn:oid:2.16.840.1.113883.2.4.3.11.999.77.1.1"/>
                  <value value="MBH_300_aanvullendeinformatiewensen"/>
               </valueIdentifier>
            </extension>
            <identifier>
               <system value="urn:oid:2.16.840.1.113883.2.4.3.11.999.77.422037009.1"/>
               <value value="MBH_300_aanvullendeinformatiewensen_TA"/>
            </identifier>
            <status value="unknown"/>
            <category>
               <coding>
                  <system value="http://snomed.info/sct"/>
                  <code value="422037009"/>
                  <display value="toedieningsafspraak"/>
               </coding>
            </category>
            <medicationReference>
               <reference value="Medication/c8dcf604-6b6b-11ec-0000-020000000000"/>
               <type value="Medication"/>
               <display value="BROXIL CAPSULE 500MG"/>
            </medicationReference>
            <subject>
               <reference value="Patient/72cf5c78-6afc-11ec-0000-020000000000"/>
               <type value="Patient"/>
               <display value="Patient, D. XXX_Dixhoorn"/>
            </subject>
            <performer>
               <actor>
                  <reference value="Organization/98d231d8-6b0c-11ec-0000-020000000000"/>
                  <type value="Organization"/>
                  <display value="Healthcare provider (organization), Apotheek De Gulle Gaper"/>
               </actor>
            </performer>
            <authorizingPrescription>
               <type value="MedicationRequest"/>
               <identifier>
                  <system value="urn:oid:2.16.840.1.113883.2.4.3.11.999.77.16076005.1"/>
                  <value value="MBH_300_aanvullendeinformatiewensen_MA"/>
               </identifier>
               <display value="relatie naar medicatieafspraak met identificatie: MBH_300_aanvullendeinformatiewensen_MA || 2.16.840.1.113883.2.4.3.11.999.77.16076005.1"/>
            </authorizingPrescription>
            <dosageInstruction>
               <timing>
                  <repeat>
                     <frequency value="3"/>
                     <period value="1"/>
                     <periodUnit value="d"/>
                  </repeat>
               </timing>
               <route>
                  <coding>
                     <system value="urn:oid:2.16.840.1.113883.2.4.4.9"/>
                     <code value="9"/>
                     <display value="Oraal"/>
                  </coding>
               </route>
               <doseAndRate>
                  <doseQuantity>
                     <extension url="http://hl7.org/fhir/StructureDefinition/iso21090-PQ-translation">
                        <valueQuantity>
                           <value value="1"/>
                           <unit value="stuk"/>
                           <system value="urn:oid:2.16.840.1.113883.2.4.4.1.900.2"/>
                           <code value="245"/>
                        </valueQuantity>
                     </extension>
                     <value value="1"/>
                     <unit value="stuk"/>
                     <system value="http://unitsofmeasure.org"/>
                     <code value="1"/>
                  </doseQuantity>
               </doseAndRate>
            </dosageInstruction>
         </MedicationDispense>
      </resource>
      <request>
         <method value="POST"/>
         <url value="MedicationDispense"/>
      </request>
   </entry>
   <entry>
      <fullUrl value="https://example.org/MedicationDispense/a4877356-6b68-11ec-0000-020000000000"/>
      <resource>
         <MedicationDispense>
            <meta>
               <profile value="http://nictiz.nl/fhir/StructureDefinition/mp-AdministrationAgreement"/>
            </meta>
            <extension url="http://nictiz.nl/fhir/StructureDefinition/ext-AdministrationAgreement.AdditionalInformation">
               <valueString value="Gebruiksinstructie gegeven"/>
            </extension>
            <extension url="http://nictiz.nl/fhir/StructureDefinition/ext-AdministrationAgreement.AdministrationAgreementDateTime">
               <valueDateTime value="${DATE, T, D, -5}T09:15:00+02:00"/>
            </extension>
            <extension url="http://nictiz.nl/fhir/StructureDefinition/ext-RenderedDosageInstruction">
               <valueString value="Vanaf T - 5 dagen, tot en met T + 2 dagen, 2 maal per dag 1 druppel, In het rechter oog, oculair"/>
            </extension>
            <extension url="http://nictiz.nl/fhir/StructureDefinition/ext-TimeInterval.Period">
               <valuePeriod>
                  <start value="${DATE, T, D, -5}T00:00:00+02:00"/>
                  <end value="${DATE, T, D, +2}T23:59:59+02:00"/>
               </valuePeriod>
            </extension>
            <extension url="http://nictiz.nl/fhir/StructureDefinition/ext-PharmaceuticalTreatment.Identifier">
               <valueIdentifier>
                  <system value="urn:oid:2.16.840.1.113883.2.4.3.11.999.77.1.1"/>
                  <value value="MBH_300_Toedieningsweg"/>
               </valueIdentifier>
            </extension>
            <identifier>
               <system value="urn:oid:2.16.840.1.113883.2.4.3.11.999.77.422037009.1"/>
               <value value="MBH_300_Toedieningsweg_TA"/>
            </identifier>
            <status value="unknown"/>
            <category>
               <coding>
                  <system value="http://snomed.info/sct"/>
                  <code value="422037009"/>
                  <display value="toedieningsafspraak"/>
               </coding>
            </category>
            <medicationReference>
               <reference value="Medication/2467cc04-6b6e-11ec-0000-020000000000"/>
               <type value="Medication"/>
               <display value="SOFRADEX OORDRUPPELS"/>
            </medicationReference>
            <subject>
               <reference value="Patient/72cf5c78-6afc-11ec-0000-020000000000"/>
               <type value="Patient"/>
               <display value="Patient, D. XXX_Dixhoorn"/>
            </subject>
            <performer>
               <actor>
                  <reference value="Organization/98d231d8-6b0c-11ec-0000-020000000000"/>
                  <type value="Organization"/>
                  <display value="Healthcare provider (organization), Apotheek De Gulle Gaper"/>
               </actor>
            </performer>
            <authorizingPrescription>
               <type value="MedicationRequest"/>
               <identifier>
                  <system value="urn:oid:2.16.840.1.113883.2.4.3.11.999.77.16076005.1"/>
                  <value value="MBH_300_Toedieningsweg_MA"/>
               </identifier>
               <display value="relatie naar medicatieafspraak met identificatie: MBH_300_Toedieningsweg_MA || 2.16.840.1.113883.2.4.3.11.999.77.16076005.1"/>
            </authorizingPrescription>
            <dosageInstruction>
               <additionalInstruction>
                  <coding>
                     <system value="http://terminology.hl7.org/CodeSystem/v3-NullFlavor"/>
                     <code value="OTH"/>
                     <display value="overig"/>
                  </coding>
                  <text value="In het rechter oog"/>
               </additionalInstruction>
               <timing>
                  <repeat>
                     <frequency value="2"/>
                     <period value="1"/>
                     <periodUnit value="d"/>
                  </repeat>
               </timing>
               <route>
                  <coding>
                     <system value="urn:oid:2.16.840.1.113883.2.4.4.9"/>
                     <code value="7"/>
                     <display value="oculair"/>
                  </coding>
               </route>
               <doseAndRate>
                  <doseQuantity>
                     <extension url="http://hl7.org/fhir/StructureDefinition/iso21090-PQ-translation">
                        <valueQuantity>
                           <value value="1"/>
                           <unit value="Druppel"/>
                           <system value="urn:oid:2.16.840.1.113883.2.4.4.1.900.2"/>
                           <code value="303"/>
                        </valueQuantity>
                     </extension>
                     <value value="1"/>
                     <unit value="Druppel"/>
                     <system value="http://unitsofmeasure.org"/>
                     <code value="[drp]"/>
                  </doseQuantity>
               </doseAndRate>
            </dosageInstruction>
         </MedicationDispense>
      </resource>
      <request>
         <method value="POST"/>
         <url value="MedicationDispense"/>
      </request>
   </entry>
   <entry>
      <fullUrl value="https://example.org/MedicationDispense/99956bdd-6b0d-11ec-0000-020000000000"/>
      <resource>
         <MedicationDispense>
            <meta>
               <profile value="http://nictiz.nl/fhir/StructureDefinition/mp-MedicationDispense"/>
            </meta>
            <extension url="http://nictiz.nl/fhir/StructureDefinition/ext-PharmaceuticalTreatment.Identifier">
               <valueIdentifier>
                  <system value="urn:oid:2.16.840.1.113883.2.4.3.11.999.77.1.1"/>
                  <value value="MBH_300_toelichting"/>
               </valueIdentifier>
            </extension>
            <identifier>
               <system value="urn:oid:2.16.840.1.113883.2.4.3.11.999.77.373784005.1"/>
               <value value="MBH_300_toelichting_MVE"/>
            </identifier>
            <status value="completed"/>
            <category>
               <coding>
                  <system value="http://snomed.info/sct"/>
                  <code value="373784005"/>
                  <display value="verstrekken van medicatie"/>
               </coding>
            </category>
            <medicationReference>
               <reference value="Medication/ff75311d-6b1a-11ec-0000-020000000000"/>
               <type value="Medication"/>
               <display value="FUROSEMIDE SANDOZ TABLET 40MG"/>
            </medicationReference>
            <subject>
               <reference value="Patient/72cf5c78-6afc-11ec-0000-020000000000"/>
               <type value="Patient"/>
               <display value="Patient, D. XXX_Dixhoorn"/>
            </subject>
            <performer>
               <actor>
                  <reference value="Organization/98d231d8-6b0c-11ec-0000-020000000000"/>
                  <type value="Organization"/>
                  <display value="Healthcare provider (organization), Apotheek De Gulle Gaper"/>
               </actor>
            </performer>
            <authorizingPrescription>
               <type value="MedicationRequest"/>
               <identifier>
                  <system value="urn:oid:2.16.840.1.113883.2.4.3.11.999.77.52711000146108.1"/>
                  <value value="MBH_300_toelichting_VV"/>
               </identifier>
               <display value="relatie naar verstrekkingsverzoek met identificatie: MBH_300_toelichting_VV || 2.16.840.1.113883.2.4.3.11.999.77.52711000146108.1"/>
            </authorizingPrescription>
            <quantity>
               <extension url="http://hl7.org/fhir/StructureDefinition/iso21090-PQ-translation">
                  <valueQuantity>
                     <value value="30"/>
                     <unit value="stuk"/>
                     <system value="urn:oid:2.16.840.1.113883.2.4.4.1.900.2"/>
                     <code value="245"/>
                  </valueQuantity>
               </extension>
               <value value="30"/>
               <unit value="stuk"/>
               <system value="http://unitsofmeasure.org"/>
               <code value="1"/>
            </quantity>
            <whenHandedOver value="${DATE, T, D, -21}T09:02:00+02:00"/>
            <note>
               <text value="Extra verstrekkingsverzoek omdat patient medicatie is kwijtgeraakt"/>
            </note>
         </MedicationDispense>
      </resource>
      <request>
         <method value="POST"/>
         <url value="MedicationDispense"/>
      </request>
   </entry>
   <entry>
      <fullUrl value="https://example.org/MedicationDispense/9cb4dda7-6b5d-11ec-0000-020000000000"/>
      <resource>
         <MedicationDispense>
            <meta>
               <profile value="http://nictiz.nl/fhir/StructureDefinition/mp-MedicationDispense"/>
            </meta>
            <extension url="http://nictiz.nl/fhir/StructureDefinition/ext-PharmaceuticalTreatment.Identifier">
               <valueIdentifier>
                  <system value="urn:oid:2.16.840.1.113883.2.4.3.11.999.77.1.1"/>
                  <value value="MBH_300_aanvullendeinformatiewensen"/>
               </valueIdentifier>
            </extension>
            <identifier>
               <system value="urn:oid:2.16.840.1.113883.2.4.3.11.999.77.373784005.1"/>
               <value value="MBH_300_aanvullendeinformatiewensen_MVE"/>
            </identifier>
            <status value="completed"/>
            <category>
               <coding>
                  <system value="http://snomed.info/sct"/>
                  <code value="373784005"/>
                  <display value="verstrekken van medicatie"/>
               </coding>
            </category>
            <medicationReference>
               <reference value="Medication/c8dcf604-6b6b-11ec-0000-020000000000"/>
               <type value="Medication"/>
               <display value="BROXIL CAPSULE 500MG"/>
            </medicationReference>
            <subject>
               <reference value="Patient/72cf5c78-6afc-11ec-0000-020000000000"/>
               <type value="Patient"/>
               <display value="Patient, D. XXX_Dixhoorn"/>
            </subject>
            <performer>
               <actor>
                  <reference value="Organization/98d231d8-6b0c-11ec-0000-020000000000"/>
                  <type value="Organization"/>
                  <display value="Healthcare provider (organization), Apotheek De Gulle Gaper"/>
               </actor>
            </performer>
            <authorizingPrescription>
               <type value="MedicationRequest"/>
               <identifier>
                  <system value="urn:oid:2.16.840.1.113883.2.4.3.11.999.77.52711000146108.1"/>
                  <value value="MBH_300_aanvullendeinformatiewensen_VV"/>
               </identifier>
               <display value="relatie naar verstrekkingsverzoek met identificatie: MBH_300_aanvullendeinformatiewensen_VV || 2.16.840.1.113883.2.4.3.11.999.77.52711000146108.1"/>
            </authorizingPrescription>
            <quantity>
               <extension url="http://hl7.org/fhir/StructureDefinition/iso21090-PQ-translation">
                  <valueQuantity>
                     <value value="30"/>
                     <unit value="stuk"/>
                     <system value="urn:oid:2.16.840.1.113883.2.4.4.1.900.2"/>
                     <code value="245"/>
                  </valueQuantity>
               </extension>
               <value value="30"/>
               <unit value="stuk"/>
               <system value="http://unitsofmeasure.org"/>
               <code value="1"/>
            </quantity>
            <whenHandedOver value="${DATE, T, D, -5}T09:06:00+02:00"/>
         </MedicationDispense>
      </resource>
      <request>
         <method value="POST"/>
         <url value="MedicationDispense"/>
      </request>
   </entry>
   <entry>
      <fullUrl value="https://example.org/MedicationStatement/056e8cbd-6b3b-11ec-0000-020000000000"/>
      <resource>
         <MedicationStatement>
            <meta>
               <profile value="http://nictiz.nl/fhir/StructureDefinition/mp-MedicationUse2"/>
            </meta>
            <extension url="http://nictiz.nl/fhir/StructureDefinition/ext-RenderedDosageInstruction">
               <valueString value="Vanaf T - 7 dagen, tot en met T - 1 dag, 2 maal per dag 1 stuk, Oraal"/>
            </extension>
            <extension url="http://nictiz.nl/fhir/StructureDefinition/ext-MedicationUse2.Prescriber">
               <valueReference>
                  <reference value="PractitionerRole/4560482e-6aec-11ec-0000-020000000000"/>
                  <type value="PractitionerRole"/>
                  <display value="Healthcare professional (role), Bertine van Doorn, Huisartsen, niet nader gespecificeerd, Huisartsenpraktijk Pulver &amp; Partners"/>
               </valueReference>
            </extension>
            <extension url="http://nictiz.nl/fhir/StructureDefinition/ext-AsAgreedIndicator">
               <valueBoolean value="false"/>
            </extension>
            <extension url="http://nictiz.nl/fhir/StructureDefinition/ext-PharmaceuticalTreatment.Identifier">
               <valueIdentifier>
                  <system value="urn:oid:2.16.840.1.113883.2.4.3.11.999.77.1.1"/>
                  <value value="MBH_300_toelichting"/>
               </valueIdentifier>
            </extension>
            <extension url="http://nictiz.nl/fhir/StructureDefinition/ext-MedicationUse2.Author">
               <valueReference>
                  <reference value="PractitionerRole/4560482e-6aec-11ec-0000-020000000000"/>
                  <type value="PractitionerRole"/>
                  <display value="Healthcare professional (role), Bertine van Doorn, Huisartsen, niet nader gespecificeerd, Huisartsenpraktijk Pulver &amp; Partners"/>
               </valueReference>
            </extension>
            <identifier>
               <system value="urn:oid:2.16.840.1.113883.2.4.3.11.999.77.6.1"/>
               <value value="MBH_300_toelichting_MGB"/>
            </identifier>
            <status value="active"/>
            <category>
               <coding>
                  <system value="http://snomed.info/sct"/>
                  <code value="422979000"/>
                  <display value="bevinding betreffende gedrag met betrekking tot medicatieregime"/>
               </coding>
            </category>
            <medicationReference>
               <reference value="Medication/ff75311d-6b1a-11ec-0000-020000000000"/>
               <type value="Medication"/>
               <display value="FUROSEMIDE SANDOZ TABLET 40MG"/>
            </medicationReference>
            <subject>
               <reference value="Patient/72cf5c78-6afc-11ec-0000-020000000000"/>
               <type value="Patient"/>
               <display value="Patient, D. XXX_Dixhoorn"/>
            </subject>
            <effectivePeriod>
               <start value="${DATE, T, D, -7}T00:00:00+02:00"/>
               <end value="${DATE, T, D, -1}T23:59:59+02:00"/>
            </effectivePeriod>
            <dateAsserted value="${DATE, T, D, +0}T10:14:00+02:00"/>
            <informationSource>
               <reference value="Patient/72cf5c78-6afc-11ec-0000-020000000000"/>
               <type value="Patient"/>
               <display value="Patient, D. XXX_Dixhoorn"/>
            </informationSource>
            <derivedFrom>
               <extension url="http://nictiz.nl/fhir/StructureDefinition/ext-ResourceCategory">
                  <valueCodeableConcept>
                     <coding>
                        <system value="http://snomed.info/sct"/>
                        <code value="33633005"/>
                        <display value="voorschrijven van geneesmiddel"/>
                     </coding>
                  </valueCodeableConcept>
               </extension>
               <type value="MedicationRequest"/>
               <identifier>
                  <system value="urn:oid:2.16.840.1.113883.2.4.3.11.999.77.16076005.1"/>
                  <value value="MBH_300_toelichting_MA"/>
               </identifier>
               <display value="relatie naar medicatieafspraak"/>
            </derivedFrom>
            <note>
               <text value="In verband met bijwerking de afgelopen week minder vaak genomen"/>
            </note>
            <dosage>
               <timing>
                  <repeat>
                     <frequency value="2"/>
                     <period value="1"/>
                     <periodUnit value="d"/>
                  </repeat>
               </timing>
               <route>
                  <coding>
                     <system value="urn:oid:2.16.840.1.113883.2.4.4.9"/>
                     <version value="G-Standaard"/>
                     <code value="9"/>
                     <display value="Oraal"/>
                  </coding>
               </route>
               <doseAndRate>
                  <doseQuantity>
                     <extension url="http://hl7.org/fhir/StructureDefinition/iso21090-PQ-translation">
                        <valueQuantity>
                           <value value="1"/>
                           <unit value="stuk"/>
                           <system value="urn:oid:2.16.840.1.113883.2.4.4.1.900.2"/>
                           <code value="245"/>
                        </valueQuantity>
                     </extension>
                     <value value="1"/>
                     <unit value="stuk"/>
                     <system value="http://unitsofmeasure.org"/>
                     <code value="1"/>
                  </doseQuantity>
               </doseAndRate>
            </dosage>
         </MedicationStatement>
      </resource>
      <request>
         <method value="POST"/>
         <url value="MedicationStatement"/>
      </request>
   </entry>
   <entry>
      <fullUrl value="https://example.org/MedicationStatement/98ff2ea7-6a9e-11ec-0000-020000000000"/>
      <resource>
         <MedicationStatement>
            <meta>
               <profile value="http://nictiz.nl/fhir/StructureDefinition/mp-MedicationUse2"/>
            </meta>
            <extension url="http://nictiz.nl/fhir/StructureDefinition/ext-RenderedDosageInstruction">
               <valueString value="Vanaf T - 5 dagen, tot en met T - 2 dagen, geneesmiddel niet in gebruik, onderbroken"/>
            </extension>
            <extension url="http://nictiz.nl/fhir/StructureDefinition/ext-MedicationUse2.Prescriber">
               <valueReference>
                  <reference value="PractitionerRole/4560482e-6aec-11ec-0000-020000000000"/>
                  <type value="PractitionerRole"/>
                  <display value="Healthcare professional (role), Bertine van Doorn, Huisartsen, niet nader gespecificeerd, Huisartsenpraktijk Pulver &amp; Partners"/>
               </valueReference>
            </extension>
            <extension url="http://nictiz.nl/fhir/StructureDefinition/ext-AsAgreedIndicator">
               <valueBoolean value="false"/>
            </extension>
            <extension url="http://nictiz.nl/fhir/StructureDefinition/ext-PharmaceuticalTreatment.Identifier">
               <valueIdentifier>
                  <system value="urn:oid:2.16.840.1.113883.2.4.3.11.999.77.1.1"/>
                  <value value="MBH_300_redenvanvoorschrijven"/>
               </valueIdentifier>
            </extension>
            <extension url="http://nictiz.nl/fhir/StructureDefinition/ext-MedicationUse2.Author">
               <valueReference>
                  <reference value="PractitionerRole/4560482e-6aec-11ec-0000-020000000000"/>
                  <type value="PractitionerRole"/>
                  <display value="Healthcare professional (role), Bertine van Doorn, Huisartsen, niet nader gespecificeerd, Huisartsenpraktijk Pulver &amp; Partners"/>
               </valueReference>
            </extension>
            <modifierExtension url="http://nictiz.nl/fhir/StructureDefinition/ext-StopType">
               <valueCodeableConcept>
                  <coding>
                     <system value="http://snomed.info/sct"/>
                     <code value="385655000"/>
                     <display value="onderbroken"/>
                  </coding>
               </valueCodeableConcept>
            </modifierExtension>
            <identifier>
               <system value="urn:oid:2.16.840.1.113883.2.4.3.11.999.77.6.1"/>
               <value value="MBH_300_redenvanvoorschrijven_MGB"/>
            </identifier>
            <status value="on-hold"/>
            <statusReason>
               <coding>
                  <system value="http://snomed.info/sct"/>
                  <code value="405613005"/>
                  <display value="verrichting gepland"/>
               </coding>
            </statusReason>
            <category>
               <coding>
                  <system value="http://snomed.info/sct"/>
                  <code value="422979000"/>
                  <display value="bevinding betreffende gedrag met betrekking tot medicatieregime"/>
               </coding>
            </category>
            <medicationReference>
               <reference value="Medication/c58f9604-6b3a-11ec-0000-020000000000"/>
               <type value="Medication"/>
               <display value="Methotrexaat tablet 2,5mg"/>
            </medicationReference>
            <subject>
               <reference value="Patient/72cf5c78-6afc-11ec-0000-020000000000"/>
               <type value="Patient"/>
               <display value="Patient, D. XXX_Dixhoorn"/>
            </subject>
            <effectivePeriod>
               <start value="${DATE, T, D, -5}T00:00:00+02:00"/>
               <end value="${DATE, T, D, -2}T23:59:59+02:00"/>
            </effectivePeriod>
            <dateAsserted value="${DATE, T, D, +0}T15:05:00+02:00"/>
            <informationSource>
               <reference value="Patient/72cf5c78-6afc-11ec-0000-020000000000"/>
               <type value="Patient"/>
               <display value="Patient, D. XXX_Dixhoorn"/>
            </informationSource>
            <derivedFrom>
               <extension url="http://nictiz.nl/fhir/StructureDefinition/ext-ResourceCategory">
                  <valueCodeableConcept>
                     <coding>
                        <system value="http://snomed.info/sct"/>
                        <code value="33633005"/>
                        <display value="voorschrijven van geneesmiddel"/>
                     </coding>
                  </valueCodeableConcept>
               </extension>
               <type value="MedicationRequest"/>
               <identifier>
                  <system value="urn:oid:2.16.840.1.113883.2.4.3.11.999.77.16076005.1"/>
                  <value value="MBH_300_redenvanvoorschrijven_MA"/>
               </identifier>
               <display value="relatie naar medicatieafspraak"/>
            </derivedFrom>
         </MedicationStatement>
      </resource>
      <request>
         <method value="POST"/>
         <url value="MedicationStatement"/>
      </request>
   </entry>
   <entry>
      <fullUrl value="https://example.org/Patient/72cf5c78-6afc-11ec-0000-020000000000"/>
      <resource>
         <Patient>
            <meta>
               <profile value="http://nictiz.nl/fhir/StructureDefinition/nl-core-Patient"/>
            </meta>
            <identifier>
               <system value="http://fhir.nl/fhir/NamingSystem/bsn"/>
               <value value="999900481"/>
            </identifier>
            <name>
               <extension url="http://hl7.org/fhir/StructureDefinition/humanname-assembly-order">
                  <valueCode value="NL1"/>
               </extension>
               <use value="official"/>
               <text value="D. XXX_Dixhoorn"/>
               <family value="XXX_Dixhoorn">
                  <extension url="http://hl7.org/fhir/StructureDefinition/humanname-own-name">
                     <valueString value="XXX_Dixhoorn"/>
                  </extension>
               </family>
               <given value="D.">
                  <extension url="http://hl7.org/fhir/StructureDefinition/iso21090-EN-qualifier">
                     <valueCode value="IN"/>
                  </extension>
               </given>
            </name>
            <gender value="male">
               <extension url="http://nictiz.nl/fhir/StructureDefinition/ext-CodeSpecification">
                  <valueCodeableConcept>
                     <coding>
                        <system value="http://terminology.hl7.org/CodeSystem/v3-AdministrativeGender"/>
                        <code value="M"/>
                        <display value="Man"/>
                     </coding>
                  </valueCodeableConcept>
               </extension>
            </gender>
            <birthDate value="1963-10-22"/>
         </Patient>
      </resource>
      <request>
         <method value="POST"/>
         <url value="Patient"/>
      </request>
   </entry>
   <entry>
      <fullUrl value="https://example.org/PractitionerRole/8d3d1824-6aeb-11ec-0000-020000000000"/>
      <resource>
         <PractitionerRole>
            <meta>
               <profile value="http://nictiz.nl/fhir/StructureDefinition/nl-core-HealthProfessional-PractitionerRole"/>
            </meta>
            <practitioner>
               <reference value="Practitioner/7cac7558-6b5d-11ec-0000-020000000000"/>
               <type value="Practitioner"/>
               <display value="Healthcare professional (person), Tanja de Bakker"/>
            </practitioner>
            <organization>
               <reference value="Organization/5bc4856e-6b7b-11ec-0000-020000000000"/>
               <type value="Organization"/>
               <display value="Healthcare provider (organization), Trombosedienst Ons Dorp"/>
            </organization>
            <specialty>
               <coding>
                  <system value="urn:oid:2.16.840.1.113883.2.4.6.7"/>
                  <version value="2020-10-23T00:00:00"/>
                  <code value="3400"/>
                  <display value="Trombosediensten"/>
               </coding>
            </specialty>
         </PractitionerRole>
      </resource>
      <request>
         <method value="POST"/>
         <url value="PractitionerRole"/>
      </request>
   </entry>
   <entry>
      <fullUrl value="https://example.org/Practitioner/7cac7558-6b5d-11ec-0000-020000000000"/>
      <resource>
         <Practitioner>
            <meta>
               <profile value="http://nictiz.nl/fhir/StructureDefinition/nl-core-HealthProfessional-Practitioner"/>
            </meta>
            <identifier>
               <system value="http://fhir.nl/fhir/NamingSystem/uzi-nr-pers"/>
               <value value="222221111"/>
            </identifier>
            <name>
               <use value="official"/>
               <text value="Tanja de Bakker"/>
               <family value="de Bakker">
                  <extension url="http://hl7.org/fhir/StructureDefinition/humanname-own-prefix">
                     <valueString value="de"/>
                  </extension>
                  <extension url="http://hl7.org/fhir/StructureDefinition/humanname-own-name">
                     <valueString value="Bakker"/>
                  </extension>
               </family>
               <given value="Tanja">
                  <extension url="http://hl7.org/fhir/StructureDefinition/iso21090-EN-qualifier">
                     <valueCode value="BR"/>
                  </extension>
               </given>
            </name>
         </Practitioner>
      </resource>
      <request>
         <method value="POST"/>
         <url value="Practitioner"/>
      </request>
   </entry>
   <entry>
      <fullUrl value="https://example.org/PractitionerRole/4560482e-6aec-11ec-0000-020000000000"/>
      <resource>
         <PractitionerRole>
            <meta>
               <profile value="http://nictiz.nl/fhir/StructureDefinition/nl-core-HealthProfessional-PractitionerRole"/>
            </meta>
            <practitioner>
               <reference value="Practitioner/a57e4824-6aa3-11ec-0000-020000000000"/>
               <type value="Practitioner"/>
               <display value="Healthcare professional (person), Bertine van Doorn"/>
            </practitioner>
            <organization>
               <reference value="Organization/7fa869d8-6b44-11ec-0000-020000000000"/>
               <type value="Organization"/>
               <display value="Healthcare provider (organization), Huisartsenpraktijk Pulver &amp; Partners"/>
            </organization>
            <specialty>
               <coding>
                  <system value="urn:oid:2.16.840.1.113883.2.4.6.7"/>
                  <version value="2020-10-23T00:00:00"/>
                  <code value="0100"/>
                  <display value="Huisartsen, niet nader gespecificeerd"/>
               </coding>
            </specialty>
         </PractitionerRole>
      </resource>
      <request>
         <method value="POST"/>
         <url value="PractitionerRole"/>
      </request>
   </entry>
   <entry>
      <fullUrl value="https://example.org/Practitioner/a57e4824-6aa3-11ec-0000-020000000000"/>
      <resource>
         <Practitioner>
            <meta>
               <profile value="http://nictiz.nl/fhir/StructureDefinition/nl-core-HealthProfessional-Practitioner"/>
            </meta>
            <identifier>
               <system value="http://fhir.nl/fhir/NamingSystem/uzi-nr-pers"/>
               <value value="000001112"/>
            </identifier>
            <name>
               <use value="official"/>
               <text value="Bertine van Doorn"/>
               <family value="van Doorn">
                  <extension url="http://hl7.org/fhir/StructureDefinition/humanname-own-prefix">
                     <valueString value="van"/>
                  </extension>
                  <extension url="http://hl7.org/fhir/StructureDefinition/humanname-own-name">
                     <valueString value="Doorn"/>
                  </extension>
               </family>
               <given value="Bertine">
                  <extension url="http://hl7.org/fhir/StructureDefinition/iso21090-EN-qualifier">
                     <valueCode value="BR"/>
                  </extension>
               </given>
            </name>
         </Practitioner>
      </resource>
      <request>
         <method value="POST"/>
         <url value="Practitioner"/>
      </request>
   </entry>
   <entry>
      <fullUrl value="https://example.org/Organization/98d231d8-6b0c-11ec-0000-020000000000"/>
      <resource>
         <Organization>
            <meta>
               <profile value="http://nictiz.nl/fhir/StructureDefinition/nl-core-HealthcareProvider-Organization"/>
            </meta>
            <identifier>
               <system value="http://fhir.nl/fhir/NamingSystem/ura"/>
               <value value="01236578"/>
            </identifier>
            <name value="Apotheek De Gulle Gaper"/>
         </Organization>
      </resource>
      <request>
         <method value="POST"/>
         <url value="Organization"/>
      </request>
   </entry>
   <entry>
      <fullUrl value="https://example.org/Organization/7fa869d8-6b44-11ec-0000-020000000000"/>
      <resource>
         <Organization>
            <meta>
               <profile value="http://nictiz.nl/fhir/StructureDefinition/nl-core-HealthcareProvider-Organization"/>
            </meta>
            <identifier>
               <system value="http://fhir.nl/fhir/NamingSystem/ura"/>
               <value value="00001111"/>
            </identifier>
            <name value="Huisartsenpraktijk Pulver &amp; Partners"/>
            <address>
               <extension url="http://nictiz.nl/fhir/StructureDefinition/ext-AddressInformation.AddressType">
                  <valueCodeableConcept>
                     <coding>
                        <system value="http://terminology.hl7.org/CodeSystem/v3-AddressUse"/>
                        <code value="WP"/>
                        <display value="Werkadres"/>
                     </coding>
                  </valueCodeableConcept>
               </extension>
               <use value="work"/>
               <line value="Dorpsstraat 1">
                  <extension url="http://hl7.org/fhir/StructureDefinition/iso21090-ADXP-streetName">
                     <valueString value="Dorpsstraat"/>
                  </extension>
                  <extension url="http://hl7.org/fhir/StructureDefinition/iso21090-ADXP-houseNumber">
                     <valueString value="1"/>
                  </extension>
               </line>
               <city value="Ons Dorp"/>
               <postalCode value="1234AA"/>
            </address>
         </Organization>
      </resource>
      <request>
         <method value="POST"/>
         <url value="Organization"/>
      </request>
   </entry>
   <entry>
      <fullUrl value="https://example.org/Organization/5bc4856e-6b7b-11ec-0000-020000000000"/>
      <resource>
         <Organization>
            <meta>
               <profile value="http://nictiz.nl/fhir/StructureDefinition/nl-core-HealthcareProvider-Organization"/>
            </meta>
            <identifier>
               <system value="http://fhir.nl/fhir/NamingSystem/ura"/>
               <value value="11112222"/>
            </identifier>
            <type>
               <coding>
                  <system value="urn:oid:2.16.840.1.113883.2.4.6.7"/>
                  <version value="2020-10-23T00:00:00"/>
                  <code value="3400"/>
                  <display value="Trombosediensten"/>
               </coding>
            </type>
            <name value="Trombosedienst Ons Dorp"/>
            <address>
               <line value="Kerkstraat 28 d">
                  <extension url="http://hl7.org/fhir/StructureDefinition/iso21090-ADXP-streetName">
                     <valueString value="Kerkstraat"/>
                  </extension>
                  <extension url="http://hl7.org/fhir/StructureDefinition/iso21090-ADXP-houseNumber">
                     <valueString value="28"/>
                  </extension>
                  <extension url="http://hl7.org/fhir/StructureDefinition/iso21090-ADXP-buildingNumberSuffix">
                     <valueString value="d"/>
                  </extension>
               </line>
               <city value="Ons Dorp"/>
               <postalCode value="1332GH"/>
            </address>
         </Organization>
      </resource>
      <request>
         <method value="POST"/>
         <url value="Organization"/>
      </request>
   </entry>
   <entry>
      <fullUrl value="https://example.org/Medication/ca0c3ae9-6aff-11ec-0000-020000000000"/>
      <resource>
         <Medication>
            <meta>
               <profile value="http://nictiz.nl/fhir/StructureDefinition/mp-PharmaceuticalProduct"/>
            </meta>
            <code>
               <coding>
                  <system value="urn:oid:2.16.840.1.113883.2.4.4.10"/>
                  <code value="7323"/>
                  <display value="ACENOCOUMAROL TABLET 1MG"/>
                  <userSelected value="true"/>
               </coding>
               <coding>
                  <system value="urn:oid:2.16.840.1.113883.2.4.4.1"/>
                  <code value="20303"/>
                  <display value="ACENOCOUMAROL TABLET 1MG"/>
               </coding>
               <text value="ACENOCOUMAROL TABLET 1MG"/>
            </code>
         </Medication>
      </resource>
      <request>
         <method value="POST"/>
         <url value="Medication"/>
      </request>
   </entry>
   <entry>
      <fullUrl value="https://example.org/Medication/4c6ca204-6b1b-11ec-0000-020000000000"/>
      <resource>
         <Medication>
            <meta>
               <profile value="http://nictiz.nl/fhir/StructureDefinition/mp-PharmaceuticalProduct"/>
            </meta>
            <code>
               <coding>
                  <system value="urn:oid:2.16.840.1.113883.2.4.4.10"/>
                  <code value="1783"/>
                  <display value="FENPRCOUMON TABLET 3MG"/>
                  <userSelected value="true"/>
               </coding>
               <coding>
                  <system value="urn:oid:2.16.840.1.113883.2.4.4.1"/>
                  <code value="6637"/>
                  <display value="FENPRCOUMON TABLET 3MG"/>
               </coding>
               <text value="FENPRCOUMON TABLET 3MG"/>
            </code>
         </Medication>
      </resource>
      <request>
         <method value="POST"/>
         <url value="Medication"/>
      </request>
   </entry>
   <entry>
      <fullUrl value="https://example.org/Medication/a07ec504-6ac4-11ec-0000-020000000000"/>
      <resource>
         <Medication>
            <meta>
               <profile value="http://nictiz.nl/fhir/StructureDefinition/mp-PharmaceuticalProduct"/>
            </meta>
            <code>
               <coding>
                  <system value="urn:oid:2.16.840.1.113883.2.4.4.10"/>
                  <code value="49484"/>
                  <display value="Acetylsalicylzuur tabletmsr 100mg"/>
                  <userSelected value="true"/>
               </coding>
               <coding>
                  <system value="urn:oid:2.16.840.1.113883.2.4.4.1"/>
                  <code value="103039"/>
                  <display value="Acetylsalicylzuur tabletmsr 100mg"/>
               </coding>
               <text value="Acetylsalicylzuur tabletmsr 100mg"/>
            </code>
         </Medication>
      </resource>
      <request>
         <method value="POST"/>
         <url value="Medication"/>
      </request>
   </entry>
   <entry>
      <fullUrl value="https://example.org/Medication/e353031d-6b40-11ec-0000-020000000000"/>
      <resource>
         <Medication>
            <meta>
               <profile value="http://nictiz.nl/fhir/StructureDefinition/mp-PharmaceuticalProduct"/>
            </meta>
            <code>
               <coding>
                  <system value="urn:oid:2.16.840.1.113883.2.4.4.7"/>
                  <code value="1110837"/>
                  <display value="ASPIRINE PROTECT EC TABLET MSR 100MG"/>
                  <userSelected value="true"/>
               </coding>
               <coding>
                  <system value="urn:oid:2.16.840.1.113883.2.4.4.10"/>
                  <code value="49484"/>
                  <display value="Acetylsalicylzuur tabletmsr 100mg"/>
               </coding>
               <coding>
                  <system value="urn:oid:2.16.840.1.113883.2.4.4.1"/>
                  <code value="103039"/>
                  <display value="Acetylsalicylzuur tabletmsr 100mg"/>
               </coding>
               <text value="ASPIRINE PROTECT EC TABLET MSR 100MG"/>
            </code>
         </Medication>
      </resource>
      <request>
         <method value="POST"/>
         <url value="Medication"/>
      </request>
   </entry>
   <entry>
      <fullUrl value="https://example.org/Medication/097956e9-6aa6-11ec-0000-020000000000"/>
      <resource>
         <Medication>
            <meta>
               <profile value="http://nictiz.nl/fhir/StructureDefinition/mp-PharmaceuticalProduct"/>
            </meta>
            <code>
               <coding>
                  <system value="urn:oid:2.16.840.1.113883.2.4.4.10"/>
                  <code value="5967"/>
                  <display value="FUROSEMIDE 40MG TABLET"/>
                  <userSelected value="true"/>
               </coding>
               <coding>
                  <system value="urn:oid:2.16.840.1.113883.2.4.4.1"/>
                  <code value="16810"/>
                  <display value="FUROSEMIDE 40MG TABLET"/>
               </coding>
               <text value="FUROSEMIDE 40MG TABLET"/>
            </code>
         </Medication>
      </resource>
      <request>
         <method value="POST"/>
         <url value="Medication"/>
      </request>
   </entry>
   <entry>
      <fullUrl value="https://example.org/Medication/ff75311d-6b1a-11ec-0000-020000000000"/>
      <resource>
         <Medication>
            <meta>
               <profile value="http://nictiz.nl/fhir/StructureDefinition/mp-PharmaceuticalProduct"/>
            </meta>
            <code>
               <coding>
                  <system value="urn:oid:2.16.840.1.113883.2.4.4.7"/>
                  <code value="598860"/>
                  <display value="FUROSEMIDE SANDOZ TABLET 40MG"/>
                  <userSelected value="true"/>
               </coding>
               <coding>
                  <system value="urn:oid:2.16.840.1.113883.2.4.4.10"/>
                  <code value="5967"/>
                  <display value="FUROSEMIDE 40MG TABLET"/>
               </coding>
               <coding>
                  <system value="urn:oid:2.16.840.1.113883.2.4.4.1"/>
                  <code value="16810"/>
                  <display value="FUROSEMIDE 40MG TABLET"/>
               </coding>
               <text value="FUROSEMIDE SANDOZ TABLET 40MG"/>
            </code>
         </Medication>
      </resource>
      <request>
         <method value="POST"/>
         <url value="Medication"/>
      </request>
   </entry>
   <entry>
      <fullUrl value="https://example.org/Medication/c58f9604-6b3a-11ec-0000-020000000000"/>
      <resource>
         <Medication>
            <meta>
               <profile value="http://nictiz.nl/fhir/StructureDefinition/mp-PharmaceuticalProduct"/>
            </meta>
            <code>
               <coding>
                  <system value="urn:oid:2.16.840.1.113883.2.4.4.10"/>
                  <code value="141631"/>
                  <display value="Methotrexaat tablet 2,5mg"/>
                  <userSelected value="true"/>
               </coding>
               <coding>
                  <system value="urn:oid:2.16.840.1.113883.2.4.4.1"/>
                  <code value="16918"/>
                  <display value="Methotrexaat tablet 2,5mg"/>
               </coding>
               <text value="Methotrexaat tablet 2,5mg"/>
            </code>
         </Medication>
      </resource>
      <request>
         <method value="POST"/>
         <url value="Medication"/>
      </request>
   </entry>
   <entry>
      <fullUrl value="https://example.org/Medication/6c0af11d-6abd-11ec-0000-020000000000"/>
      <resource>
         <Medication>
            <meta>
               <profile value="http://nictiz.nl/fhir/StructureDefinition/mp-PharmaceuticalProduct"/>
            </meta>
            <code>
               <coding>
                  <system value="urn:oid:2.16.840.1.113883.2.4.4.7"/>
                  <code value="1421778"/>
                  <display value="METHOTREXAAT PCH TABLET 2,5MG"/>
                  <userSelected value="true"/>
               </coding>
               <coding>
                  <system value="urn:oid:2.16.840.1.113883.2.4.4.10"/>
                  <code value="141631"/>
                  <display value="Methotrexaat tablet 2,5mg"/>
               </coding>
               <coding>
                  <system value="urn:oid:2.16.840.1.113883.2.4.4.1"/>
                  <code value="16918"/>
                  <display value="Methotrexaat tablet 2,5mg"/>
               </coding>
               <text value="METHOTREXAAT PCH TABLET 2,5MG"/>
            </code>
         </Medication>
      </resource>
      <request>
         <method value="POST"/>
         <url value="Medication"/>
      </request>
   </entry>
   <entry>
      <fullUrl value="https://example.org/Medication/ebaaab1d-6b29-11ec-0000-020000000000"/>
      <resource>
         <Medication>
            <meta>
               <profile value="http://nictiz.nl/fhir/StructureDefinition/mp-PharmaceuticalProduct"/>
            </meta>
            <code>
               <coding>
                  <system value="urn:oid:2.16.840.1.113883.2.4.4.10"/>
                  <code value="17205"/>
                  <display value="FENETICILLINE CAPSULE 500MG"/>
                  <userSelected value="true"/>
               </coding>
               <coding>
                  <system value="urn:oid:2.16.840.1.113883.2.4.4.1"/>
                  <code value="41092"/>
                  <display value="FENETICILLINE 500MG CAPSULE"/>
               </coding>
               <text value="FENETICILLINE CAPSULE 500MG"/>
            </code>
         </Medication>
      </resource>
      <request>
         <method value="POST"/>
         <url value="Medication"/>
      </request>
   </entry>
   <entry>
      <fullUrl value="https://example.org/Medication/c8dcf604-6b6b-11ec-0000-020000000000"/>
      <resource>
         <Medication>
            <meta>
               <profile value="http://nictiz.nl/fhir/StructureDefinition/mp-PharmaceuticalProduct"/>
            </meta>
            <code>
               <coding>
                  <system value="urn:oid:2.16.840.1.113883.2.4.4.7"/>
                  <code value="425087"/>
                  <display value="BROXIL CAPSULE 500MG"/>
                  <userSelected value="true"/>
               </coding>
               <coding>
                  <system value="urn:oid:2.16.840.1.113883.2.4.4.10"/>
                  <code value="17205"/>
                  <display value="FENETICILLINE CAPSULE 500MG"/>
               </coding>
               <coding>
                  <system value="urn:oid:2.16.840.1.113883.2.4.4.1"/>
                  <code value="41092"/>
                  <display value="FENETICILLINE 500MG CAPSULE"/>
               </coding>
               <text value="BROXIL CAPSULE 500MG"/>
            </code>
         </Medication>
      </resource>
      <request>
         <method value="POST"/>
         <url value="Medication"/>
      </request>
   </entry>
   <entry>
      <fullUrl value="https://example.org/Medication/9f01ff1d-6afd-11ec-0000-020000000000"/>
      <resource>
         <Medication>
            <meta>
               <profile value="http://nictiz.nl/fhir/StructureDefinition/mp-PharmaceuticalProduct"/>
            </meta>
            <code>
               <coding>
                  <system value="urn:oid:2.16.840.1.113883.2.4.4.10"/>
                  <code value="80691"/>
                  <display value="DEXAMETHASON/FRAMYCETINE/GRAMICIDINE OORDR"/>
                  <userSelected value="true"/>
               </coding>
               <coding>
                  <system value="urn:oid:2.16.840.1.113883.2.4.4.1"/>
                  <code value="79804"/>
                  <display value="DEXAMETHASON/FRAMYCETINE/GRAMICIDINE OORDR"/>
               </coding>
               <text value="DEXAMETHASON/FRAMYCETINE/GRAMICIDINE OORDR"/>
            </code>
         </Medication>
      </resource>
      <request>
         <method value="POST"/>
         <url value="Medication"/>
      </request>
   </entry>
   <entry>
      <fullUrl value="https://example.org/Medication/2467cc04-6b6e-11ec-0000-020000000000"/>
      <resource>
         <Medication>
            <meta>
               <profile value="http://nictiz.nl/fhir/StructureDefinition/mp-PharmaceuticalProduct"/>
            </meta>
            <code>
               <coding>
                  <system value="urn:oid:2.16.840.1.113883.2.4.4.7"/>
                  <code value="644781"/>
                  <display value="SOFRADEX OORDRUPPELS"/>
                  <userSelected value="true"/>
               </coding>
               <coding>
                  <system value="urn:oid:2.16.840.1.113883.2.4.4.10"/>
                  <code value="80691"/>
                  <display value="DEXAMETHASON/FRAMYCETINE/GRAMICIDINE OORDR"/>
               </coding>
               <coding>
                  <system value="urn:oid:2.16.840.1.113883.2.4.4.1"/>
                  <code value="79804"/>
                  <display value="DEXAMETHASON/FRAMYCETINE/GRAMICIDINE OORDR"/>
               </coding>
               <text value="SOFRADEX OORDRUPPELS"/>
            </code>
         </Medication>
      </resource>
      <request>
         <method value="POST"/>
         <url value="Medication"/>
      </request>
   </entry>
   <entry>
      <fullUrl value="https://example.org/Condition/7e2146d6-6b7d-11ec-0000-020000000000"/>
      <resource>
         <Condition>
            <meta>
               <profile value="http://nictiz.nl/fhir/StructureDefinition/nl-core-Problem"/>
            </meta>
            <code>
               <coding>
                  <system value="http://hl7.org/fhir/sid/icpc-1-nl"/>
                  <code value="L88.01"/>
                  <display value="Reumatoide artritis"/>
               </coding>
               <text value="Reumatoide artritis"/>
            </code>
            <subject>
               <reference value="Patient/72cf5c78-6afc-11ec-0000-020000000000"/>
               <type value="Patient"/>
               <display value="Patient, D. XXX_Dixhoorn"/>
            </subject>
         </Condition>
      </resource>
      <request>
         <method value="POST"/>
         <url value="Condition"/>
      </request>
   </entry>
</Bundle>
