<Bundle xmlns="http://hl7.org/fhir">
    <id value="mg-test-lotsof-zorgverleners"/>
    <type value="transaction"/>
    <link>
        <relation value="self"/>
        <url value="http://dummy.nictiz.nl/dummyquery"/>
    </link>
    <entry>
        <fullUrl value="urn:uuid:cd2dedad-6a9f-11ec-0000-020000000000"/>
        <resource>
            <MedicationRequest>
                <meta>
                    <profile value="http://nictiz.nl/fhir/StructureDefinition/mp-MedicationAgreement"/>
                </meta>
                <extension url="http://nictiz.nl/fhir/StructureDefinition/ext-RenderedDosageInstruction">
                    <valueString value="Vanaf 12 dec 2021, tot en met 10 jan 2022, 2 maal per dag 1 stuk, oraal"/>
                </extension>
                <extension url="http://nictiz.nl/fhir/StructureDefinition/ext-TimeInterval.Period">
                    <valuePeriod>
                        <start value="2021-12-12T00:00:00+01:00"/>
                        <end value="2022-01-10T23:59:59+01:00"/>
                    </valuePeriod>
                </extension>
                <extension url="http://nictiz.nl/fhir/StructureDefinition/ext-PharmaceuticalTreatment.Identifier">
                    <valueIdentifier>
                        <system value="urn:oid:2.16.840.1.113883.2.4.3.11.999.77.1.1"/>
                        <value value="MBH_200_QA1"/>
                    </valueIdentifier>
                </extension>
                <identifier>
                    <system value="urn:oid:2.16.840.1.113883.2.4.3.11.999.77.16076005.1"/>
                    <value value="MBH_200_QA1_MA"/>
                </identifier>
                <status value="unknown"/>
                <intent value="order"/>
                <category>
                    <coding>
                        <system value="http://snomed.info/sct"/>
                        <code value="33633005"/>
                        <display value="voorschrijven van geneesmiddel"/>
                    </coding>
                </category>
                <medicationReference>
                    <reference value="urn:uuid:53c5091d-6aef-11ec-0000-020000000000"/>
                    <type value="Medication"/>
                    <display value="IBUPROFEN TABLET 600MG"/>
                </medicationReference>
                <subject>
                    <reference value="urn:uuid:499c7778-6ab6-11ec-0000-020000000000"/>
                    <type value="Patient"/>
                    <display value="Patient, B. XXX_Blik"/>
                </subject>
                <authoredOn value="2021-12-12T08:00:00+01:00"/>
                <requester>
                    <reference value="urn:uuid:b35ad558-6b2c-11ec-0000-020000000000"/>
                    <type value="PractitionerRole"/>
                    <display value="Healthcare professional (role), Peter van Pulver, Huisartsen, niet nader gespecificeerd, Huisartsenpraktijk Pulver &amp; Partners"/>
                </requester>
                <dosageInstruction>
                    <sequence value="1"/>
                    <timing>
                        <repeat>
                            <frequency value="2"/>
                            <period value="1"/>
                            <periodUnit value="d"/>
                        </repeat>
                    </timing>
                    <route>
                        <coding>
                            <system value="urn:oid:2.16.840.1.113883.2.4.4.9"/>
                            <code value="9"/>
                            <display value="oraal"/>
                        </coding>
                    </route>
                    <doseAndRate>
                        <doseQuantity>
                            <extension url="http://hl7.org/fhir/StructureDefinition/iso21090-PQ-translation">
                                <valueQuantity>
                                    <value value="1"/>
                                    <unit value="stuk"/>
                                    <system value="urn:oid:2.16.840.1.113883.2.4.4.1.900.2"/>
                                    <code value="245"/>
                                </valueQuantity>
                            </extension>
                            <value value="1"/>
                            <unit value="stuk"/>
                            <system value="http://unitsofmeasure.org"/>
                            <code value="1"/>
                        </doseQuantity>
                    </doseAndRate>
                </dosageInstruction>
            </MedicationRequest>
        </resource>
        <request>
            <method value="POST"/>
            <url value="MedicationRequest"/>
        </request>
    </entry>
    <entry>
        <fullUrl value="urn:uuid:5081d51a-6b2e-11ec-0000-020000000000"/>
        <resource>
            <MedicationDispense>
                <meta>
                    <profile value="http://nictiz.nl/fhir/StructureDefinition/mp-AdministrationAgreement"/>
                </meta>
                <extension url="http://nictiz.nl/fhir/StructureDefinition/ext-AdministrationAgreement.AdministrationAgreementDateTime">
                    <valueDateTime value="2021-12-12T09:00:00+01:00"/>
                </extension>
                <extension url="http://nictiz.nl/fhir/StructureDefinition/ext-RenderedDosageInstruction">
                    <valueString value="Vanaf 12 dec 2021, tot en met 10 jan 2022, 2 maal per dag 1 stuk, oraal"/>
                </extension>
                <extension url="http://nictiz.nl/fhir/StructureDefinition/ext-TimeInterval.Period">
                    <valuePeriod>
                        <start value="2021-12-12T00:00:00+01:00"/>
                        <end value="2022-01-10T23:59:59+01:00"/>
                    </valuePeriod>
                </extension>
                <extension url="http://nictiz.nl/fhir/StructureDefinition/ext-PharmaceuticalTreatment.Identifier">
                    <valueIdentifier>
                        <system value="urn:oid:2.16.840.1.113883.2.4.3.11.999.77.1.1"/>
                        <value value="MBH_200_QA1"/>
                    </valueIdentifier>
                </extension>
                <identifier>
                    <system value="urn:oid:2.16.840.1.113883.2.4.3.11.999.77.422037009.1"/>
                    <value value="MBH_200_QA1_TA"/>
                </identifier>
                <status value="unknown"/>
                <category>
                    <coding>
                        <system value="http://snomed.info/sct"/>
                        <code value="422037009"/>
                        <display value="toedieningsafspraak"/>
                    </coding>
                </category>
                <medicationReference>
                    <reference value="urn:uuid:63ec4b04-6ab8-11ec-0000-020000000000"/>
                    <type value="Medication"/>
                    <display value="IBUPROFEN PCH TABLET 600MG"/>
                </medicationReference>
                <subject>
                    <reference value="urn:uuid:499c7778-6ab6-11ec-0000-020000000000"/>
                    <type value="Patient"/>
                    <display value="Patient, B. XXX_Blik"/>
                </subject>
                <performer>
                    <actor>
                        <reference value="urn:uuid:98d231d8-6b0c-11ec-0000-020000000000"/>
                        <type value="Organization"/>
                        <display value="Healthcare provider (organization), Apotheek De Gulle Gaper"/>
                    </actor>
                </performer>
                <authorizingPrescription>
                    <type value="MedicationRequest"/>
                    <identifier>
                        <system value="urn:oid:2.16.840.1.113883.2.4.3.11.999.77.16076005.1"/>
                        <value value="MBH_200_QA1_MA"/>
                    </identifier>
                    <display value="relatie naar medicatieafspraak met identificatie: MBH_200_QA1_MA || 2.16.840.1.113883.2.4.3.11.999.77.16076005.1"/>
                </authorizingPrescription>
                <dosageInstruction>
                    <sequence value="1"/>
                    <timing>
                        <repeat>
                            <frequency value="2"/>
                            <period value="1"/>
                            <periodUnit value="d"/>
                        </repeat>
                    </timing>
                    <route>
                        <coding>
                            <system value="urn:oid:2.16.840.1.113883.2.4.4.9"/>
                            <code value="9"/>
                            <display value="oraal"/>
                        </coding>
                    </route>
                    <doseAndRate>
                        <doseQuantity>
                            <extension url="http://hl7.org/fhir/StructureDefinition/iso21090-PQ-translation">
                                <valueQuantity>
                                    <value value="1"/>
                                    <unit value="stuk"/>
                                    <system value="urn:oid:2.16.840.1.113883.2.4.4.1.900.2"/>
                                    <code value="245"/>
                                </valueQuantity>
                            </extension>
                            <value value="1"/>
                            <unit value="stuk"/>
                            <system value="http://unitsofmeasure.org"/>
                            <code value="1"/>
                        </doseQuantity>
                    </doseAndRate>
                </dosageInstruction>
            </MedicationDispense>
        </resource>
        <request>
            <method value="POST"/>
            <url value="MedicationDispense"/>
        </request>
    </entry>    
    <entry>
        <fullUrl value="urn:uuid:c16a4466-6ab8-11ec-0000-020000000000"/>
        <resource>
            <MedicationStatement>
                <meta>
                    <profile value="http://nictiz.nl/fhir/StructureDefinition/mp-MedicationUse2"/>
                </meta>
                <extension url="http://nictiz.nl/fhir/StructureDefinition/ext-RenderedDosageInstruction">
                    <valueString value="Vanaf 12 dec 2021, tot en met 10 jan 2022, 2 maal per dag 1 stuk, oraal"/>
                </extension>
                <extension url="http://nictiz.nl/fhir/StructureDefinition/ext-MedicationUse2.Prescriber">
                    <valueReference>
                        <reference value="urn:uuid:b35ad558-6b2c-11ec-0000-020000000000"/>
                        <type value="PractitionerRole"/>
                        <display value="Healthcare professional (role), Peter van Pulver, Huisartsen, niet nader gespecificeerd, Huisartsenpraktijk Pulver &amp; Partners"/>
                    </valueReference>
                </extension>
                <extension url="http://nictiz.nl/fhir/StructureDefinition/ext-AsAgreedIndicator">
                    <valueBoolean value="true"/>
                </extension>
                <extension url="http://nictiz.nl/fhir/StructureDefinition/ext-PharmaceuticalTreatment.Identifier">
                    <valueIdentifier>
                        <system value="urn:oid:2.16.840.1.113883.2.4.3.11.999.77.1.1"/>
                        <value value="MBH_200_QA1"/>
                    </valueIdentifier>
                </extension>
                <extension url="http://nictiz.nl/fhir/StructureDefinition/ext-MedicationUse2.Author">
                    <value>
                        <extension url="http://hl7.org/fhir/StructureDefinition/data-absent-reason">
                            <valueCode value="not-applicable"/>
                        </extension>
                    </value>
                </extension>
                <identifier>
                    <system value="urn:oid:2.16.840.1.113883.2.4.3.11.999.77.6.1"/>
                    <value value="MBH_200_QA1_MGB"/>
                </identifier>
                <status value="active"/>
                <category>
                    <coding>
                        <system value="http://snomed.info/sct"/>
                        <code value="422979000"/>
                        <display value="bevinding betreffende gedrag met betrekking tot medicatieregime"/>
                    </coding>
                </category>
                <medicationReference>
                    <reference value="urn:uuid:63ec4b04-6ab8-11ec-0000-020000000000"/>
                    <type value="Medication"/>
                    <display value="IBUPROFEN PCH TABLET 600MG"/>
                </medicationReference>
                <subject>
                    <reference value="urn:uuid:499c7778-6ab6-11ec-0000-020000000000"/>
                    <type value="Patient"/>
                    <display value="Patient, B. XXX_Blik"/>
                </subject>
                <effectivePeriod>
                    <start value="2021-12-12T00:00:00+01:00"/>
                    <end value="2022-01-10T23:59:59+01:00"/>
                </effectivePeriod>
                <dateAsserted value="2021-12-31T10:04:23+01:00"/>
                <derivedFrom>
                    <extension url="http://nictiz.nl/fhir/StructureDefinition/ext-ResourceCategory">
                        <valueCodeableConcept>
                            <coding>
                                <system value="http://snomed.info/sct"/>
                                <code value="422037009"/>
                                <display value="toedieningsafspraak"/>
                            </coding>
                        </valueCodeableConcept>
                    </extension>
                    <type value="MedicationDispense"/>
                    <identifier>
                        <system value="urn:oid:2.16.840.1.113883.2.4.3.11.999.77.422037009.1"/>
                        <value value="MBH_200_QA1_TA"/>
                    </identifier>
                    <display value="relatie naar toedieningsafspraak"/>
                </derivedFrom>
                <dosage>
                    <sequence value="1"/>
                    <timing>
                        <repeat>
                            <frequency value="2"/>
                            <period value="1"/>
                            <periodUnit value="d"/>
                        </repeat>
                    </timing>
                    <route>
                        <coding>
                            <system value="urn:oid:2.16.840.1.113883.2.4.4.9"/>
                            <code value="9"/>
                            <display value="oraal"/>
                        </coding>
                    </route>
                    <doseAndRate>
                        <doseQuantity>
                            <extension url="http://hl7.org/fhir/StructureDefinition/iso21090-PQ-translation">
                                <valueQuantity>
                                    <value value="1"/>
                                    <unit value="stuk"/>
                                    <system value="urn:oid:2.16.840.1.113883.2.4.4.1.900.2"/>
                                    <code value="245"/>
                                </valueQuantity>
                            </extension>
                            <value value="1"/>
                            <unit value="stuk"/>
                            <system value="http://unitsofmeasure.org"/>
                            <code value="1"/>
                        </doseQuantity>
                    </doseAndRate>
                </dosage>
            </MedicationStatement>
        </resource>
        <request>
            <method value="POST"/>
            <url value="MedicationStatement"/>
        </request>
    </entry>
    <entry>
        <fullUrl value="urn:uuid:499c7778-6ab6-11ec-0000-020000000000"/>
        <resource>
            <Patient>
                <meta>
                    <profile value="http://nictiz.nl/fhir/StructureDefinition/nl-core-Patient"/>
                </meta>
                <identifier>
                    <system value="http://fhir.nl/fhir/NamingSystem/bsn"/>
                    <value value="999900389"/>
                </identifier>
                <name>
                    <extension url="http://hl7.org/fhir/StructureDefinition/humanname-assembly-order">
                        <valueCode value="NL1"/>
                    </extension>
                    <use value="official"/>
                    <text value="B. XXX_Blik"/>
                    <family value="XXX_Blik">
                        <extension url="http://hl7.org/fhir/StructureDefinition/humanname-own-name">
                            <valueString value="XXX_Blik"/>
                        </extension>
                    </family>
                    <given value="B.">
                        <extension url="http://hl7.org/fhir/StructureDefinition/iso21090-EN-qualifier">
                            <valueCode value="IN"/>
                        </extension>
                    </given>
                </name>
                <gender value="female">
                    <extension url="http://nictiz.nl/fhir/StructureDefinition/ext-CodeSpecification">
                        <valueCodeableConcept>
                            <coding>
                                <system value="http://terminology.hl7.org/CodeSystem/v3-AdministrativeGender"/>
                                <code value="F"/>
                                <display value="Vrouw"/>
                            </coding>
                        </valueCodeableConcept>
                    </extension>
                </gender>
                <birthDate value="1963-10-13"/>
            </Patient>
        </resource>
        <request>
            <method value="POST"/>
            <url value="Patient"/>
        </request>
    </entry>
    <entry>
        <fullUrl value="urn:uuid:b35ad558-6b2c-11ec-0000-020000000000"/>
        <resource>
            <PractitionerRole>
                <meta>
                    <profile value="http://nictiz.nl/fhir/StructureDefinition/nl-core-HealthProfessional-PractitionerRole"/>
                </meta>
                <practitioner>
                    <reference value="urn:uuid:b498842e-6b2b-11ec-0000-020000000000"/>
                    <type value="Practitioner"/>
                    <display value="Healthcare professional (person), Peter van Pulver"/>
                </practitioner>
                <organization>
                    <reference value="urn:uuid:d6bb29d8-6ac5-11ec-0000-020000000000"/>
                    <type value="Organization"/>
                    <display value="Healthcare provider (organization), Huisartsenpraktijk Pulver &amp; Partners"/>
                </organization>
                <specialty>
                    <coding>
                        <system value="urn:oid:2.16.840.1.113883.2.4.6.7"/>
                        <version value="2020-10-23T00:00:00"/>
                        <code value="0100"/>
                        <display value="Huisartsen, niet nader gespecificeerd"/>
                    </coding>
                </specialty>
            </PractitionerRole>
        </resource>
        <request>
            <method value="POST"/>
            <url value="PractitionerRole"/>
        </request>
    </entry>
    <entry>
        <fullUrl value="urn:uuid:b498842e-6b2b-11ec-0000-020000000000"/>
        <resource>
            <Practitioner>
                <meta>
                    <profile value="http://nictiz.nl/fhir/StructureDefinition/nl-core-HealthProfessional-Practitioner"/>
                </meta>
                <identifier>
                    <system value="http://fhir.nl/fhir/NamingSystem/uzi-nr-pers"/>
                    <value value="000001111"/>
                </identifier>
                <name>
                    <use value="official"/>
                    <text value="Peter van Pulver"/>
                    <family value="van Pulver">
                        <extension url="http://hl7.org/fhir/StructureDefinition/humanname-own-prefix">
                            <valueString value="van"/>
                        </extension>
                        <extension url="http://hl7.org/fhir/StructureDefinition/humanname-own-name">
                            <valueString value="Pulver"/>
                        </extension>
                    </family>
                    <given value="Peter">
                        <extension url="http://hl7.org/fhir/StructureDefinition/iso21090-EN-qualifier">
                            <valueCode value="BR"/>
                        </extension>
                    </given>
                </name>
            </Practitioner>
        </resource>
        <request>
            <method value="POST"/>
            <url value="Practitioner"/>
        </request>
    </entry>
    <entry>
        <fullUrl value="urn:uuid:d6bb29d8-6ac5-11ec-0000-020000000000"/>
        <resource>
            <Organization>
                <meta>
                    <profile value="http://nictiz.nl/fhir/StructureDefinition/nl-core-HealthcareProvider-Organization"/>
                </meta>
                <identifier>
                    <system value="http://fhir.nl/fhir/NamingSystem/ura"/>
                    <value value="00001111"/>
                </identifier>
                <name value="Huisartsenpraktijk Pulver &amp; Partners"/>
                <address>
                    <extension url="http://nictiz.nl/fhir/StructureDefinition/ext-AddressInformation.AddressType">
                        <valueCodeableConcept>
                            <coding>
                                <system value="http://terminology.hl7.org/CodeSystem/v3-AddressUse"/>
                                <code value="WP"/>
                                <display value="Werkadres"/>
                            </coding>
                        </valueCodeableConcept>
                    </extension>
                    <use value="work"/>
                    <line value="Dorpsstraat 1">
                        <extension url="http://hl7.org/fhir/StructureDefinition/iso21090-ADXP-streetName">
                            <valueString value="Dorpsstraat"/>
                        </extension>
                        <extension url="http://hl7.org/fhir/StructureDefinition/iso21090-ADXP-houseNumber">
                            <valueString value="1"/>
                        </extension>
                    </line>
                    <city value="Ons Dorp"/>
                    <postalCode value="1234 AA"/>
                </address>
            </Organization>
        </resource>
        <request>
            <method value="POST"/>
            <url value="Organization"/>
        </request>
    </entry>
    <entry>
        <fullUrl value="urn:uuid:53c5091d-6aef-11ec-0000-020000000000"/>
        <resource>
            <Medication>
                <meta>
                    <profile value="http://nictiz.nl/fhir/StructureDefinition/mp-PharmaceuticalProduct"/>
                </meta>
                <code>
                    <coding>
                        <system value="urn:oid:2.16.840.1.113883.2.4.4.10"/>
                        <code value="17469"/>
                        <display value="IBUPROFEN TABLET 600MG"/>
                        <userSelected value="true"/>
                    </coding>
                    <coding>
                        <system value="urn:oid:2.16.840.1.113883.2.4.4.1"/>
                        <code value="42080"/>
                        <display value="IBUPROFEN TABLET 600MG"/>
                    </coding>
                    <text value="IBUPROFEN TABLET 600MG"/>
                </code>
            </Medication>
        </resource>
        <request>
            <method value="POST"/>
            <url value="Medication"/>
        </request>
    </entry>
</Bundle>