<Bundle xmlns="http://hl7.org/fhir">
   <id value="vma-example-93-1-v30"/>
   <meta>
      <profile value="http://nictiz.nl/fhir/StructureDefinition/mp-ProposalMedicationAgreement-Bundle"/>
   </meta>
   <type value="transaction"/>
   <entry>
      <fullUrl value="urn:uuid:c33f09c0-6a95-11ec-0000-020000000000"/>
      <resource>
         <MedicationRequest>
            <meta>
               <profile value="http://nictiz.nl/fhir/StructureDefinition/mp-MedicationAgreement"/>
               <tag>
                  <system value="http://terminology.hl7.org/CodeSystem/common-tags"/>
                  <code value="actionable"/>
               </tag>
            </meta>
            <extension url="http://nictiz.nl/fhir/StructureDefinition/ext-RenderedDosageInstruction">
               <valueString value="Vanaf 11 nov 2022, tot en met 10 dec 2022, 1 maal per 2 dagen 1 stuk, Oraal"/>
            </extension>
            <extension url="http://nictiz.nl/fhir/StructureDefinition/ext-TimeInterval.Period">
               <valuePeriod>
                  <start value="2022-11-11T00:00:00+01:00"/>
                  <end value="2022-12-10T23:59:59+01:00"/>
               </valuePeriod>
            </extension>
            <extension url="http://nictiz.nl/fhir/StructureDefinition/ext-Comment">
               <valueString value="voorbeeld toelichting bij het voorstel in vrije tekst"/>
            </extension>
            <identifier>
               <system value="urn:oid:1.2.3.999"/>
               <value value="#Voorstel_id_123"/>
            </identifier>
            <status value="active"/>
            <intent value="plan"/>
            <category>
               <coding>
                  <system value="http://snomed.info/sct"/>
                  <code value="33633005"/>
                  <display value="voorschrijven van geneesmiddel"/>
               </coding>
            </category>
            <medicationReference>
               <reference value="urn:uuid:c33f14d1-6a95-11ec-0000-020000000000"/>
               <type value="Medication"/>
               <display value="OXAZEPAM TABLET 10MG"/>
            </medicationReference>
            <subject>
               <reference value="urn:uuid:c33f1eb5-6a95-11ec-0000-020000000000"/>
               <type value="Patient"/>
               <display value="Patient, S. XXX_Jankie"/>
            </subject>
            <authoredOn value="2022-12-01T11:59:00+01:00"/>
            <requester>
               <reference value="urn:uuid:c33f00b1-6a95-11ec-0000-020000000000"/>
               <type value="Organization"/>
               <display value="Healthcare provider (organization), Apotheek de Gulle Gaper"/>
            </requester>
            <note>
               <text value="voorbeeld toelichting MA in vrije tekst"/>
            </note>
            <dosageInstruction>
               <timing>
                  <repeat>
                     <frequency value="1"/>
                     <period value="2"/>
                     <periodUnit value="d"/>
                  </repeat>
               </timing>
               <route>
                  <coding>
                     <system value="urn:oid:2.16.840.1.113883.2.4.4.9"/>
                     <code value="9"/>
                     <display value="Oraal"/>
                  </coding>
               </route>
               <doseAndRate>
                  <doseQuantity>
                     <extension url="http://hl7.org/fhir/StructureDefinition/iso21090-PQ-translation">
                        <valueQuantity>
                           <value value="1"/>
                           <unit value="stuk"/>
                           <system value="urn:oid:2.16.840.1.113883.2.4.4.1.900.2"/>
                           <code value="245"/>
                        </valueQuantity>
                     </extension>
                     <value value="1"/>
                     <unit value="stuk"/>
                     <system value="http://unitsofmeasure.org"/>
                     <code value="1"/>
                  </doseQuantity>
               </doseAndRate>
            </dosageInstruction>
         </MedicationRequest>
      </resource>
      <request>
         <method value="POST"/>
         <url value="MedicationRequest"/>
      </request>
   </entry>
   <entry>
      <fullUrl value="urn:uuid:c33f1eb5-6a95-11ec-0000-020000000000"/>
      <resource>
         <Patient>
            <meta>
               <profile value="http://nictiz.nl/fhir/StructureDefinition/nl-core-Patient"/>
            </meta>
            <identifier>
               <system value="http://fhir.nl/fhir/NamingSystem/bsn"/>
               <value>
                  <extension url="http://hl7.org/fhir/StructureDefinition/data-absent-reason">
                     <valueCode value="masked"/>
                  </extension>
               </value>
            </identifier>
            <name>
               <extension url="http://hl7.org/fhir/StructureDefinition/humanname-assembly-order">
                  <valueCode value="NL1"/>
               </extension>
               <use value="official"/>
               <text value="S. XXX_Jankie"/>
               <family value="XXX_Jankie">
                  <extension url="http://hl7.org/fhir/StructureDefinition/humanname-own-name">
                     <valueString value="XXX_Jankie"/>
                  </extension>
               </family>
               <given value="S.">
                  <extension url="http://hl7.org/fhir/StructureDefinition/iso21090-EN-qualifier">
                     <valueCode value="IN"/>
                  </extension>
               </given>
            </name>
            <gender value="female">
               <extension url="http://nictiz.nl/fhir/StructureDefinition/ext-CodeSpecification">
                  <valueCodeableConcept>
                     <coding>
                        <system value="http://terminology.hl7.org/CodeSystem/v3-AdministrativeGender"/>
                        <code value="F"/>
                        <display value="Vrouw"/>
                     </coding>
                  </valueCodeableConcept>
               </extension>
            </gender>
            <birthDate value="1954-05-08"/>
         </Patient>
      </resource>
      <request>
         <method value="POST"/>
         <url value="Patient"/>
      </request>
   </entry>
   <entry>
      <fullUrl value="urn:uuid:c33f00b1-6a95-11ec-0000-020000000000"/>
      <resource>
         <Organization>
            <meta>
               <profile value="http://nictiz.nl/fhir/StructureDefinition/nl-core-HealthcareProvider-Organization"/>
            </meta>
            <identifier>
               <system value="http://fhir.nl/fhir/NamingSystem/ura"/>
               <value value="01236578"/>
            </identifier>
            <name value="Apotheek de Gulle Gaper"/>
            <address>
               <extension url="http://nictiz.nl/fhir/StructureDefinition/ext-AddressInformation.AddressType">
                  <valueCodeableConcept>
                     <coding>
                        <system value="http://terminology.hl7.org/CodeSystem/v3-AddressUse"/>
                        <code value="WP"/>
                        <display value="Werkadres"/>
                     </coding>
                  </valueCodeableConcept>
               </extension>
               <use value="work"/>
               <line value="Dorpsstraat 10 A">
                  <extension url="http://hl7.org/fhir/StructureDefinition/iso21090-ADXP-streetName">
                     <valueString value="Dorpsstraat"/>
                  </extension>
                  <extension url="http://hl7.org/fhir/StructureDefinition/iso21090-ADXP-houseNumber">
                     <valueString value="10"/>
                  </extension>
                  <extension url="http://hl7.org/fhir/StructureDefinition/iso21090-ADXP-buildingNumberSuffix">
                     <valueString value="A"/>
                  </extension>
               </line>
               <city value="Ons Dorp"/>
               <postalCode value="1234AA"/>
            </address>
         </Organization>
      </resource>
      <request>
         <method value="POST"/>
         <url value="Organization"/>
      </request>
   </entry>
   <entry>
      <fullUrl value="urn:uuid:c33f14d1-6a95-11ec-0000-020000000000"/>
      <resource>
         <Medication>
            <meta>
               <profile value="http://nictiz.nl/fhir/StructureDefinition/mp-PharmaceuticalProduct"/>
            </meta>
            <code>
               <coding>
                  <system value="urn:oid:2.16.840.1.113883.2.4.4.10"/>
                  <code value="353"/>
                  <display value="OXAZEPAM TABLET 10MG"/>
                  <userSelected value="true"/>
               </coding>
               <coding>
                  <system value="urn:oid:2.16.840.1.113883.2.4.4.1"/>
                  <code value="1023"/>
                  <display value="OXAZEPAM TABLET 10MG"/>
               </coding>
               <text value="OXAZEPAM TABLET 10MG"/>
            </code>
         </Medication>
      </resource>
      <request>
         <method value="POST"/>
         <url value="Medication"/>
      </request>
   </entry>
   <entry>
      <fullUrl value="urn:uuid:c33f0adc-6a95-11ec-0000-020000000000"/>
      <resource>
         <Observation>
            <meta>
               <profile value="http://nictiz.nl/fhir/StructureDefinition/nl-core-BodyHeight"/>
            </meta>
            <status value="final"/>
            <category>
               <coding>
                  <system value="http://terminology.hl7.org/CodeSystem/observation-category"/>
                  <code value="vital-signs"/>
                  <display value="Vital Signs"/>
               </coding>
            </category>
            <code>
               <coding>
                  <system value="http://loinc.org"/>
                  <code value="8302-2"/>
                  <display value="Body height"/>
               </coding>
            </code>
            <subject>
               <reference value="urn:uuid:c33f1eb5-6a95-11ec-0000-020000000000"/>
               <type value="Patient"/>
               <display value="Patient, S. XXX_Jankie"/>
            </subject>
            <effectiveDateTime value="2022-12-01T07:05:00+01:00"/>
            <valueQuantity>
               <value value="165"/>
               <unit value="cm"/>
               <system value="http://unitsofmeasure.org"/>
               <code value="cm"/>
            </valueQuantity>
         </Observation>
      </resource>
      <request>
         <method value="POST"/>
         <url value="Observation"/>
      </request>
   </entry>
   <entry>
      <fullUrl value="urn:uuid:c33f0abd-6a95-11ec-0000-020000000000"/>
      <resource>
         <Observation>
            <meta>
               <profile value="http://nictiz.nl/fhir/StructureDefinition/nl-core-BodyWeight"/>
            </meta>
            <status value="final"/>
            <category>
               <coding>
                  <system value="http://terminology.hl7.org/CodeSystem/observation-category"/>
                  <code value="vital-signs"/>
                  <display value="Vital Signs"/>
               </coding>
            </category>
            <code>
               <coding>
                  <system value="http://loinc.org"/>
                  <code value="29463-7"/>
                  <display value="Body weight"/>
               </coding>
            </code>
            <subject>
               <reference value="urn:uuid:c33f1eb5-6a95-11ec-0000-020000000000"/>
               <type value="Patient"/>
               <display value="Patient, S. XXX_Jankie"/>
            </subject>
            <effectiveDateTime value="2022-12-01T07:05:00+01:00"/>
            <valueQuantity>
               <value value="75"/>
               <unit value="kg"/>
               <system value="http://unitsofmeasure.org"/>
               <code value="kg"/>
            </valueQuantity>
         </Observation>
      </resource>
      <request>
         <method value="POST"/>
         <url value="Observation"/>
      </request>
   </entry>
</Bundle>
