<?xml-model href="http://hl7.org/fhir/STU3/bundle.sch" type="application/xml" schematypens="http://purl.oclc.org/dsdl/schematron"?><Bundle xmlns="http://hl7.org/fhir"
        xmlns:xsi="http://www.w3.org/2001/XMLSchema-instance"
        xsi:schemaLocation="http://hl7.org/fhir http://hl7.org/fhir/STU3/bundle.xsd">
   <id value="a10e9169-8d8f-11ec-2007-020000000000"/>
   <type value="searchset"/>
   <total value="22"/>
   <link>
      <relation value="self"/>
      <url value="http://dummy.nictiz.nl/dummyquery"/>
   </link>
   <entry>
      <fullUrl value="urn:uuid:a10e6e65-8d8f-11ec-2007-020000000000"/>
      <resource>
         <MedicationDispense>
            <meta>
               <profile value="http://nictiz.nl/fhir/StructureDefinition/mp612-DispenseToFHIRConversion-AdministrationAgreement"/>
            </meta>
            <text>
               <status value="extensions"/>
               <div xmlns="http://www.w3.org/1999/xhtml">
                  <table>
                     <caption>MedicationDispense. Subject: Aygül A. Direnç. Categorie: <span title="Provider medication administration instructions (procedure) (422037009 - SNOMED CT)">Provider medication administration instructions (procedure)</span>
                        <span style="display: block;">Uitvoerende: Organisatie met id '01234567' in identificerend systeem '2.16.528.1.1007.3.3'.</span>
                     </caption>
                     <tbody>
                        <tr>
                           <th>Medicamenteuze behandel-id</th>
                           <td>d4d03380-100a-11e5-b939-0800200c9a66 (urn:oid:2.16.840.1.113883.2.4.3.11.999.77.373784005.1)</td>
                        </tr>
                        <tr>
                           <th>Gemaakt</th>
                           <td>${DATE, T, D, -566}</td>
                        </tr>
                        <tr>
                           <th>Medicatie</th>
                           <td>NOVORAPID PENFILL INJVLST 100E/ML PATROON 3ML</td>
                        </tr>
                        <tr>
                           <th>Gebruiksduur</th>
                           <td>50 dag</td>
                        </tr>
                        <tr>
                           <th>Doseerinstructie</th>
                           <td>
                              <div>Tekst: gedurende 50 dagen, 3 maal per dag 8 à 10 eenheid</div>
                              <div>Timing: <div>3 maal per dag</div>
                              </div>
                              <div>Dosering: 8 Eenheid - 10 Eenheid</div>
                           </td>
                        </tr>
                     </tbody>
                  </table>
               </div>
            </text>
            <extension url="http://nictiz.nl/fhir/StructureDefinition/zib-AdministrationAgreement-AuthoredOn">
               <valueDateTime value="${DATE, T, D, -566}"/>
            </extension>
            <extension url="http://nictiz.nl/fhir/StructureDefinition/zib-MedicationUse-Duration">
               <valueDuration>
                  <value value="50"/>
                  <unit value="dag"/>
                  <system value="http://unitsofmeasure.org"/>
                  <code value="d"/>
               </valueDuration>
            </extension>
            <extension url="http://nictiz.nl/fhir/StructureDefinition/zib-Medication-MedicationTreatment">
               <valueIdentifier>
                  <system value="urn:oid:2.16.840.1.113883.2.4.3.11.999.77.373784005.1"/>
                  <value value="d4d03380-100a-11e5-b939-0800200c9a66"/>
               </valueIdentifier>
            </extension>
            <category>
               <coding>
                  <system value="http://snomed.info/sct"/>
                  <code value="422037009"/>
                  <display value="Provider medication administration instructions (procedure)"/>
               </coding>
               <text value="Toedieningsafspraak"/>
            </category>
            <medicationReference>
               <reference value="urn:oid:2.16.840.1.113883.2.4.4.8.14305054"/>
               <display value="NOVORAPID PENFILL INJVLST 100E/ML PATROON 3ML"/>
            </medicationReference>
            <subject>
               <reference value="urn:uuid:a10e9171-8d8f-11ec-2007-020000000000"/>
               <display value="Aygül A. Direnç"/>
            </subject>
            <performer>
               <actor>
                  <reference value="urn:oid:2.16.528.1.1007.3.3.1234567"/>
                  <display value="Organisatie met id '01234567' in identificerend systeem '2.16.528.1.1007.3.3'."/>
               </actor>
            </performer>
            <dosageInstruction>
               <text value="gedurende 50 dagen, 3 maal per dag 8 à 10 eenheid"/>
               <timing>
                  <repeat>
                     <frequency value="3"/>
                     <period value="1"/>
                     <periodUnit value="d"/>
                  </repeat>
               </timing>
               <doseRange>
                  <low>
                     <value value="8"/>
                     <unit value="Eenheid"/>
                     <system value="urn:oid:2.16.840.1.113883.2.4.4.1.900.2"/>
                     <code value="211"/>
                  </low>
                  <high>
                     <value value="10"/>
                     <unit value="Eenheid"/>
                     <system value="urn:oid:2.16.840.1.113883.2.4.4.1.900.2"/>
                     <code value="211"/>
                  </high>
               </doseRange>
            </dosageInstruction>
         </MedicationDispense>
      </resource>
      <search>
         <mode value="match"/>
      </search>
   </entry>
   <entry>
      <fullUrl value="urn:uuid:a10e6ed5-8d8f-11ec-2007-020000000000"/>
      <resource>
         <MedicationDispense>
            <meta>
               <profile value="http://nictiz.nl/fhir/StructureDefinition/mp612-DispenseToFHIRConversion-AdministrationAgreement"/>
            </meta>
            <text>
               <status value="extensions"/>
               <div xmlns="http://www.w3.org/1999/xhtml">
                  <table>
                     <caption>MedicationDispense. Subject: Aygül A. Direnç. Categorie: <span title="Provider medication administration instructions (procedure) (422037009 - SNOMED CT)">Provider medication administration instructions (procedure)</span>
                        <span style="display: block;">Uitvoerende: Organisatie met id '01234567' in identificerend systeem '2.16.528.1.1007.3.3'.</span>
                     </caption>
                     <tbody>
                        <tr>
                           <th>Medicamenteuze behandel-id</th>
                           <td>9b4c3b90-100a-11e5-b939-0800200c9a66 (urn:oid:2.16.840.1.113883.2.4.3.11.999.77.373784005.1)</td>
                        </tr>
                        <tr>
                           <th>Gemaakt</th>
                           <td>${DATE, T, D, -613}</td>
                        </tr>
                        <tr>
                           <th>Medicatie</th>
                           <td>ASPIRINE PROTECT EC TABLET MSR 100MG</td>
                        </tr>
                        <tr>
                           <th>Doseerinstructie</th>
                           <td>
                              <div>Tekst: 1 à 2 maal per dag 1 stuk</div>
                              <div>Timing: <div>eenmalig, max frequentie 2 maal per dag</div>
                              </div>
                              <div>Dosering: 1 Stuk</div>
                           </td>
                        </tr>
                     </tbody>
                  </table>
               </div>
            </text>
            <extension url="http://nictiz.nl/fhir/StructureDefinition/zib-AdministrationAgreement-AuthoredOn">
               <valueDateTime value="${DATE, T, D, -613}"/>
            </extension>
            <extension url="http://nictiz.nl/fhir/StructureDefinition/zib-Medication-MedicationTreatment">
               <valueIdentifier>
                  <system value="urn:oid:2.16.840.1.113883.2.4.3.11.999.77.373784005.1"/>
                  <value value="9b4c3b90-100a-11e5-b939-0800200c9a66"/>
               </valueIdentifier>
            </extension>
            <category>
               <coding>
                  <system value="http://snomed.info/sct"/>
                  <code value="422037009"/>
                  <display value="Provider medication administration instructions (procedure)"/>
               </coding>
               <text value="Toedieningsafspraak"/>
            </category>
            <medicationReference>
               <reference value="urn:oid:2.16.840.1.113883.2.4.4.8.14165635"/>
               <display value="ASPIRINE PROTECT EC TABLET MSR 100MG"/>
            </medicationReference>
            <subject>
               <reference value="urn:uuid:a10e9171-8d8f-11ec-2007-020000000000"/>
               <display value="Aygül A. Direnç"/>
            </subject>
            <performer>
               <actor>
                  <reference value="urn:oid:2.16.528.1.1007.3.3.1234567"/>
                  <display value="Organisatie met id '01234567' in identificerend systeem '2.16.528.1.1007.3.3'."/>
               </actor>
            </performer>
            <dosageInstruction>
               <text value="1 à 2 maal per dag 1 stuk"/>
               <timing>
                  <repeat>
                     <frequency value="1"/>
                     <frequencyMax value="2"/>
                     <period value="1"/>
                     <periodUnit value="d"/>
                  </repeat>
               </timing>
               <doseQuantity>
                  <value value="1"/>
                  <unit value="Stuk"/>
                  <system value="urn:oid:2.16.840.1.113883.2.4.4.1.900.2"/>
                  <code value="245"/>
               </doseQuantity>
            </dosageInstruction>
         </MedicationDispense>
      </resource>
      <search>
         <mode value="match"/>
      </search>
   </entry>
   <entry>
      <fullUrl value="urn:uuid:a10e6f4b-8d8f-11ec-2007-020000000000"/>
      <resource>
         <MedicationDispense>
            <meta>
               <profile value="http://nictiz.nl/fhir/StructureDefinition/mp612-DispenseToFHIRConversion-AdministrationAgreement"/>
            </meta>
            <text>
               <status value="extensions"/>
               <div xmlns="http://www.w3.org/1999/xhtml">
                  <table>
                     <caption>MedicationDispense. Subject: Aygül A. Direnç. Categorie: <span title="Provider medication administration instructions (procedure) (422037009 - SNOMED CT)">Provider medication administration instructions (procedure)</span>
                        <span style="display: block;">Uitvoerende: Organisatie met id '01234567' in identificerend systeem '2.16.528.1.1007.3.3'.</span>
                     </caption>
                     <tbody>
                        <tr>
                           <th>Medicamenteuze behandel-id</th>
                           <td>a378f9c0-100a-11e5-b939-0800200c9a66 (urn:oid:2.16.840.1.113883.2.4.3.11.999.77.373784005.1)</td>
                        </tr>
                        <tr>
                           <th>Gemaakt</th>
                           <td>${DATE, T, D, -252}</td>
                        </tr>
                        <tr>
                           <th>Medicatie</th>
                           <td>Cetomacrogolcreme met 10% vaseline fagron</td>
                        </tr>
                        <tr>
                           <th>Doseerinstructie</th>
                           <td>
                              <div>Tekst: 1 à 3 maal per dag, aanbrengen</div>
                              <div>Instructie: <span title="aanbrengen (1018 - nhg-tabel-25-gebruiksvoorschrift#aanvullend-numeriek)">aanbrengen</span>
                              </div>
                              <div>Timing: <div>eenmalig, max frequentie 3 maal per dag</div>
                              </div>
                           </td>
                        </tr>
                     </tbody>
                  </table>
               </div>
            </text>
            <extension url="http://nictiz.nl/fhir/StructureDefinition/zib-AdministrationAgreement-AuthoredOn">
               <valueDateTime value="${DATE, T, D, -252}"/>
            </extension>
            <extension url="http://nictiz.nl/fhir/StructureDefinition/zib-Medication-MedicationTreatment">
               <valueIdentifier>
                  <system value="urn:oid:2.16.840.1.113883.2.4.3.11.999.77.373784005.1"/>
                  <value value="a378f9c0-100a-11e5-b939-0800200c9a66"/>
               </valueIdentifier>
            </extension>
            <category>
               <coding>
                  <system value="http://snomed.info/sct"/>
                  <code value="422037009"/>
                  <display value="Provider medication administration instructions (procedure)"/>
               </coding>
               <text value="Toedieningsafspraak"/>
            </category>
            <medicationReference>
               <reference value="urn:oid:2.16.840.1.113883.2.4.4.8.14344491"/>
               <display value="Cetomacrogolcreme met 10% vaseline fagron"/>
            </medicationReference>
            <subject>
               <reference value="urn:uuid:a10e9171-8d8f-11ec-2007-020000000000"/>
               <display value="Aygül A. Direnç"/>
            </subject>
            <performer>
               <actor>
                  <reference value="urn:oid:2.16.528.1.1007.3.3.1234567"/>
                  <display value="Organisatie met id '01234567' in identificerend systeem '2.16.528.1.1007.3.3'."/>
               </actor>
            </performer>
            <dosageInstruction>
               <text value="1 à 3 maal per dag, aanbrengen"/>
               <additionalInstruction>
                  <coding>
                     <system value="https://referentiemodel.nhg.org/tabellen/nhg-tabel-25-gebruiksvoorschrift#aanvullend-numeriek"/>
                     <code value="1018"/>
                     <display value="aanbrengen"/>
                  </coding>
               </additionalInstruction>
               <timing>
                  <repeat>
                     <frequency value="1"/>
                     <frequencyMax value="3"/>
                     <period value="1"/>
                     <periodUnit value="d"/>
                  </repeat>
               </timing>
            </dosageInstruction>
         </MedicationDispense>
      </resource>
      <search>
         <mode value="match"/>
      </search>
   </entry>
   <entry>
      <fullUrl value="urn:uuid:a10e6fb7-8d8f-11ec-2007-020000000000"/>
      <resource>
         <MedicationDispense>
            <meta>
               <profile value="http://nictiz.nl/fhir/StructureDefinition/mp612-DispenseToFHIRConversion-AdministrationAgreement"/>
            </meta>
            <text>
               <status value="extensions"/>
               <div xmlns="http://www.w3.org/1999/xhtml">
                  <table>
                     <caption>MedicationDispense. Subject: Aygül A. Direnç. Categorie: <span title="Provider medication administration instructions (procedure) (422037009 - SNOMED CT)">Provider medication administration instructions (procedure)</span>
                        <span style="display: block;">Uitvoerende: Organisatie met id '01234567' in identificerend systeem '2.16.528.1.1007.3.3'.</span>
                     </caption>
                     <tbody>
                        <tr>
                           <th>Medicamenteuze behandel-id</th>
                           <td>a7e331b0-100a-11e5-b939-0800200c9a66 (urn:oid:2.16.840.1.113883.2.4.3.11.999.77.373784005.1)</td>
                        </tr>
                        <tr>
                           <th>Gemaakt</th>
                           <td>${DATE, T, D, -217}</td>
                        </tr>
                        <tr>
                           <th>Medicatie</th>
                           <td>SPIRIVA INHALPDR 18 MCG</td>
                        </tr>
                        <tr>
                           <th>Gebruiksduur</th>
                           <td>90 dag</td>
                        </tr>
                        <tr>
                           <th>Doseerinstructie</th>
                           <td>
                              <div>Tekst: gedurende 90 dagen, 1 maal per 2 dagen 1 dosis</div>
                              <div>Timing: <div>eenmalig per 2 dagen</div>
                              </div>
                              <div>Dosering: 1 Dosis</div>
                           </td>
                        </tr>
                     </tbody>
                  </table>
               </div>
            </text>
            <extension url="http://nictiz.nl/fhir/StructureDefinition/zib-AdministrationAgreement-AuthoredOn">
               <valueDateTime value="${DATE, T, D, -217}"/>
            </extension>
            <extension url="http://nictiz.nl/fhir/StructureDefinition/zib-MedicationUse-Duration">
               <valueDuration>
                  <value value="90"/>
                  <unit value="dag"/>
                  <system value="http://unitsofmeasure.org"/>
                  <code value="d"/>
               </valueDuration>
            </extension>
            <extension url="http://nictiz.nl/fhir/StructureDefinition/zib-Medication-MedicationTreatment">
               <valueIdentifier>
                  <system value="urn:oid:2.16.840.1.113883.2.4.3.11.999.77.373784005.1"/>
                  <value value="a7e331b0-100a-11e5-b939-0800200c9a66"/>
               </valueIdentifier>
            </extension>
            <category>
               <coding>
                  <system value="http://snomed.info/sct"/>
                  <code value="422037009"/>
                  <display value="Provider medication administration instructions (procedure)"/>
               </coding>
               <text value="Toedieningsafspraak"/>
            </category>
            <medicationReference>
               <reference value="urn:oid:2.16.840.1.113883.2.4.4.8.14750406"/>
               <display value="SPIRIVA INHALPDR 18 MCG"/>
            </medicationReference>
            <subject>
               <reference value="urn:uuid:a10e9171-8d8f-11ec-2007-020000000000"/>
               <display value="Aygül A. Direnç"/>
            </subject>
            <performer>
               <actor>
                  <reference value="urn:oid:2.16.528.1.1007.3.3.1234567"/>
                  <display value="Organisatie met id '01234567' in identificerend systeem '2.16.528.1.1007.3.3'."/>
               </actor>
            </performer>
            <dosageInstruction>
               <text value="gedurende 90 dagen, 1 maal per 2 dagen 1 dosis"/>
               <timing>
                  <repeat>
                     <frequency value="1"/>
                     <period value="2"/>
                     <periodUnit value="d"/>
                  </repeat>
               </timing>
               <doseQuantity>
                  <value value="1"/>
                  <unit value="Dosis"/>
                  <system value="urn:oid:2.16.840.1.113883.2.4.4.1.900.2"/>
                  <code value="208"/>
               </doseQuantity>
            </dosageInstruction>
         </MedicationDispense>
      </resource>
      <search>
         <mode value="match"/>
      </search>
   </entry>
   <entry>
      <fullUrl value="urn:uuid:a10e702e-8d8f-11ec-2007-020000000000"/>
      <resource>
         <MedicationDispense>
            <meta>
               <profile value="http://nictiz.nl/fhir/StructureDefinition/mp612-DispenseToFHIRConversion-AdministrationAgreement"/>
            </meta>
            <text>
               <status value="extensions"/>
               <div xmlns="http://www.w3.org/1999/xhtml">
                  <table>
                     <caption>MedicationDispense. Subject: Aygül A. Direnç. Categorie: <span title="Provider medication administration instructions (procedure) (422037009 - SNOMED CT)">Provider medication administration instructions (procedure)</span>
                        <span style="display: block;">Uitvoerende: Organisatie met id '01234567' in identificerend systeem '2.16.528.1.1007.3.3'.</span>
                     </caption>
                     <tbody>
                        <tr>
                           <th>Medicamenteuze behandel-id</th>
                           <td>ac8c4760-100a-11e5-b939-0800200c9a66 (urn:oid:2.16.840.1.113883.2.4.3.11.999.77.373784005.1)</td>
                        </tr>
                        <tr>
                           <th>Gemaakt</th>
                           <td>${DATE, T, D, -234}</td>
                        </tr>
                        <tr>
                           <th>Medicatie</th>
                           <td>Marvelon tablet</td>
                        </tr>
                        <tr>
                           <th>Herhaalperiode cyclisch schedule</th>
                           <td>28 d</td>
                        </tr>
                        <tr>
                           <th>Gebruiksduur</th>
                           <td>168 dag</td>
                        </tr>
                        <tr>
                           <th>Doseerinstructie</th>
                           <td>
                              <div>Volgnummer: 1</div>
                              <div>Tekst: gedurende 168 dagen, cyclus van 28 dagen: steeds gedurende 21 dagen 1 maal per dag 1 stuk</div>
                              <div>Timing: <div>21 dag, eenmalig per dag</div>
                              </div>
                              <div>Dosering: 1 Stuk</div>
                           </td>
                        </tr>
                     </tbody>
                  </table>
               </div>
            </text>
            <extension url="http://nictiz.nl/fhir/StructureDefinition/zib-AdministrationAgreement-AuthoredOn">
               <valueDateTime value="${DATE, T, D, -234}"/>
            </extension>
            <extension url="http://nictiz.nl/fhir/StructureDefinition/zib-MedicationUse-Duration">
               <valueDuration>
                  <value value="168"/>
                  <unit value="dag"/>
                  <system value="http://unitsofmeasure.org"/>
                  <code value="d"/>
               </valueDuration>
            </extension>
            <extension url="http://nictiz.nl/fhir/StructureDefinition/zib-Medication-MedicationTreatment">
               <valueIdentifier>
                  <system value="urn:oid:2.16.840.1.113883.2.4.3.11.999.77.373784005.1"/>
                  <value value="ac8c4760-100a-11e5-b939-0800200c9a66"/>
               </valueIdentifier>
            </extension>
            <modifierExtension url="http://nictiz.nl/fhir/StructureDefinition/zib-Medication-RepeatPeriodCyclicalSchedule">
               <valueDuration>
                  <value value="28"/>
                  <unit value="d"/>
                  <system value="http://unitsofmeasure.org"/>
                  <code value="d"/>
               </valueDuration>
            </modifierExtension>
            <category>
               <coding>
                  <system value="http://snomed.info/sct"/>
                  <code value="422037009"/>
                  <display value="Provider medication administration instructions (procedure)"/>
               </coding>
               <text value="Toedieningsafspraak"/>
            </category>
            <medicationReference>
               <reference value="urn:oid:2.16.840.1.113883.2.4.4.8.12323047"/>
               <display value="Marvelon tablet"/>
            </medicationReference>
            <subject>
               <reference value="urn:uuid:a10e9171-8d8f-11ec-2007-020000000000"/>
               <display value="Aygül A. Direnç"/>
            </subject>
            <performer>
               <actor>
                  <reference value="urn:oid:2.16.528.1.1007.3.3.1234567"/>
                  <display value="Organisatie met id '01234567' in identificerend systeem '2.16.528.1.1007.3.3'."/>
               </actor>
            </performer>
            <dosageInstruction>
               <sequence value="1"/>
               <text value="gedurende 168 dagen, cyclus van 28 dagen: steeds gedurende 21 dagen 1 maal per dag 1 stuk"/>
               <timing>
                  <repeat>
                     <boundsDuration>
                        <value value="21"/>
                        <unit value="dag"/>
                        <system value="http://unitsofmeasure.org"/>
                        <code value="d"/>
                     </boundsDuration>
                     <frequency value="1"/>
                     <period value="1"/>
                     <periodUnit value="d"/>
                  </repeat>
               </timing>
               <doseQuantity>
                  <value value="1"/>
                  <unit value="Stuk"/>
                  <system value="urn:oid:2.16.840.1.113883.2.4.4.1.900.2"/>
                  <code value="245"/>
               </doseQuantity>
            </dosageInstruction>
         </MedicationDispense>
      </resource>
      <search>
         <mode value="match"/>
      </search>
   </entry>
   <entry>
      <fullUrl value="urn:uuid:a10e70aa-8d8f-11ec-2007-020000000000"/>
      <resource>
         <MedicationDispense>
            <meta>
               <profile value="http://nictiz.nl/fhir/StructureDefinition/mp612-DispenseToFHIRConversion-AdministrationAgreement"/>
            </meta>
            <text>
               <status value="extensions"/>
               <div xmlns="http://www.w3.org/1999/xhtml">
                  <table>
                     <caption>MedicationDispense. Subject: Aygül A. Direnç. Categorie: <span title="Provider medication administration instructions (procedure) (422037009 - SNOMED CT)">Provider medication administration instructions (procedure)</span>
                        <span style="display: block;">Uitvoerende: Organisatie met id '01234567' in identificerend systeem '2.16.528.1.1007.3.3'.</span>
                     </caption>
                     <tbody>
                        <tr>
                           <th>Medicamenteuze behandel-id</th>
                           <td>b1730250-100a-11e5-b939-0800200c9a66 (urn:oid:2.16.840.1.113883.2.4.3.11.999.77.373784005.1)</td>
                        </tr>
                        <tr>
                           <th>Gemaakt</th>
                           <td>${DATE, T, D, -234}</td>
                        </tr>
                        <tr>
                           <th>Medicatie</th>
                           <td>METFORMINE HCL CF TABLET 850MG</td>
                        </tr>
                        <tr>
                           <th>Doseerinstructie</th>
                           <td>
                              <div>Tekst: 1 à 3 maal per week 1 à 2 stuks</div>
                              <div>Timing: <div>eenmalig, max frequentie 3 maal per week</div>
                              </div>
                              <div>Dosering: 1 Stuk - 2 Stuk</div>
                           </td>
                        </tr>
                     </tbody>
                  </table>
               </div>
            </text>
            <extension url="http://nictiz.nl/fhir/StructureDefinition/zib-AdministrationAgreement-AuthoredOn">
               <valueDateTime value="${DATE, T, D, -234}"/>
            </extension>
            <extension url="http://nictiz.nl/fhir/StructureDefinition/zib-Medication-MedicationTreatment">
               <valueIdentifier>
                  <system value="urn:oid:2.16.840.1.113883.2.4.3.11.999.77.373784005.1"/>
                  <value value="b1730250-100a-11e5-b939-0800200c9a66"/>
               </valueIdentifier>
            </extension>
            <category>
               <coding>
                  <system value="http://snomed.info/sct"/>
                  <code value="422037009"/>
                  <display value="Provider medication administration instructions (procedure)"/>
               </coding>
               <text value="Toedieningsafspraak"/>
            </category>
            <medicationReference>
               <reference value="urn:oid:2.16.840.1.113883.2.4.4.8.15061078"/>
               <display value="METFORMINE HCL CF TABLET 850MG"/>
            </medicationReference>
            <subject>
               <reference value="urn:uuid:a10e9171-8d8f-11ec-2007-020000000000"/>
               <display value="Aygül A. Direnç"/>
            </subject>
            <performer>
               <actor>
                  <reference value="urn:oid:2.16.528.1.1007.3.3.1234567"/>
                  <display value="Organisatie met id '01234567' in identificerend systeem '2.16.528.1.1007.3.3'."/>
               </actor>
            </performer>
            <dosageInstruction>
               <text value="1 à 3 maal per week 1 à 2 stuks"/>
               <timing>
                  <repeat>
                     <frequency value="1"/>
                     <frequencyMax value="3"/>
                     <period value="1"/>
                     <periodUnit value="wk"/>
                  </repeat>
               </timing>
               <doseRange>
                  <low>
                     <value value="1"/>
                     <unit value="Stuk"/>
                     <system value="urn:oid:2.16.840.1.113883.2.4.4.1.900.2"/>
                     <code value="245"/>
                  </low>
                  <high>
                     <value value="2"/>
                     <unit value="Stuk"/>
                     <system value="urn:oid:2.16.840.1.113883.2.4.4.1.900.2"/>
                     <code value="245"/>
                  </high>
               </doseRange>
            </dosageInstruction>
         </MedicationDispense>
      </resource>
      <search>
         <mode value="match"/>
      </search>
   </entry>
   <entry>
      <fullUrl value="urn:uuid:a10e7124-8d8f-11ec-2007-020000000000"/>
      <resource>
         <MedicationDispense>
            <meta>
               <profile value="http://nictiz.nl/fhir/StructureDefinition/mp612-DispenseToFHIRConversion-AdministrationAgreement"/>
            </meta>
            <text>
               <status value="extensions"/>
               <div xmlns="http://www.w3.org/1999/xhtml">
                  <table>
                     <caption>MedicationDispense. Subject: Aygül A. Direnç. Categorie: <span title="Provider medication administration instructions (procedure) (422037009 - SNOMED CT)">Provider medication administration instructions (procedure)</span>
                        <span style="display: block;">Uitvoerende: Organisatie met id '01234567' in identificerend systeem '2.16.528.1.1007.3.3'.</span>
                     </caption>
                     <tbody>
                        <tr>
                           <th>Medicamenteuze behandel-id</th>
                           <td>b6d9e9c0-100a-11e5-b939-0800200c9a66 (urn:oid:2.16.840.1.113883.2.4.3.11.999.77.373784005.1)</td>
                        </tr>
                        <tr>
                           <th>Gemaakt</th>
                           <td>${DATE, T, D, -31}</td>
                        </tr>
                        <tr>
                           <th>Medicatie</th>
                           <td>INSULATARD PENFILL INJ 100IE/ML PATR 3ML</td>
                        </tr>
                        <tr>
                           <th>Gebruiksduur</th>
                           <td>60 dag</td>
                        </tr>
                        <tr>
                           <th>Doseerinstructie</th>
                           <td>
                              <div>Tekst: gedurende 60 dagen, elke dag om 08:00, 14:00 en 20:00 16 internat.eenh.</div>
                              <div>Timing: <div>08:00:00, 14:00:00, 20:00:00</div>
                              </div>
                              <div>Dosering: 16 Internat.eenh.</div>
                           </td>
                        </tr>
                     </tbody>
                  </table>
               </div>
            </text>
            <extension url="http://nictiz.nl/fhir/StructureDefinition/zib-AdministrationAgreement-AuthoredOn">
               <valueDateTime value="${DATE, T, D, -31}"/>
            </extension>
            <extension url="http://nictiz.nl/fhir/StructureDefinition/zib-MedicationUse-Duration">
               <valueDuration>
                  <value value="60"/>
                  <unit value="dag"/>
                  <system value="http://unitsofmeasure.org"/>
                  <code value="d"/>
               </valueDuration>
            </extension>
            <extension url="http://nictiz.nl/fhir/StructureDefinition/zib-Medication-MedicationTreatment">
               <valueIdentifier>
                  <system value="urn:oid:2.16.840.1.113883.2.4.3.11.999.77.373784005.1"/>
                  <value value="b6d9e9c0-100a-11e5-b939-0800200c9a66"/>
               </valueIdentifier>
            </extension>
            <category>
               <coding>
                  <system value="http://snomed.info/sct"/>
                  <code value="422037009"/>
                  <display value="Provider medication administration instructions (procedure)"/>
               </coding>
               <text value="Toedieningsafspraak"/>
            </category>
            <medicationReference>
               <reference value="urn:oid:2.16.840.1.113883.2.4.4.8.14815982"/>
               <display value="INSULATARD PENFILL INJ 100IE/ML PATR 3ML"/>
            </medicationReference>
            <subject>
               <reference value="urn:uuid:a10e9171-8d8f-11ec-2007-020000000000"/>
               <display value="Aygül A. Direnç"/>
            </subject>
            <performer>
               <actor>
                  <reference value="urn:oid:2.16.528.1.1007.3.3.1234567"/>
                  <display value="Organisatie met id '01234567' in identificerend systeem '2.16.528.1.1007.3.3'."/>
               </actor>
            </performer>
            <dosageInstruction>
               <text value="gedurende 60 dagen, elke dag om 08:00, 14:00 en 20:00 16 internat.eenh."/>
               <timing>
                  <repeat>
                     <timeOfDay value="08:00:00"/>
                     <timeOfDay value="14:00:00"/>
                     <timeOfDay value="20:00:00"/>
                  </repeat>
               </timing>
               <doseQuantity>
                  <value value="16"/>
                  <unit value="Internat.eenh."/>
                  <system value="urn:oid:2.16.840.1.113883.2.4.4.1.900.2"/>
                  <code value="217"/>
               </doseQuantity>
            </dosageInstruction>
         </MedicationDispense>
      </resource>
      <search>
         <mode value="match"/>
      </search>
   </entry>
   <entry>
      <fullUrl value="urn:uuid:a10e7195-8d8f-11ec-2007-020000000000"/>
      <resource>
         <MedicationDispense>
            <meta>
               <profile value="http://nictiz.nl/fhir/StructureDefinition/mp612-DispenseToFHIRConversion-AdministrationAgreement"/>
            </meta>
            <text>
               <status value="extensions"/>
               <div xmlns="http://www.w3.org/1999/xhtml">
                  <table>
                     <caption>MedicationDispense. Subject: Aygül A. Direnç. Categorie: <span title="Provider medication administration instructions (procedure) (422037009 - SNOMED CT)">Provider medication administration instructions (procedure)</span>
                        <span style="display: block;">Uitvoerende: Organisatie met id '01234567' in identificerend systeem '2.16.528.1.1007.3.3'.</span>
                     </caption>
                     <tbody>
                        <tr>
                           <th>Medicamenteuze behandel-id</th>
                           <td>bb7ee0c0-100a-11e5-b939-0800200c9a66 (urn:oid:2.16.840.1.113883.2.4.3.11.999.77.373784005.1)</td>
                        </tr>
                        <tr>
                           <th>Gemaakt</th>
                           <td>${DATE, T, D, +0}</td>
                        </tr>
                        <tr>
                           <th>Medicatie</th>
                           <td>FLUIMUCIL INHVLST 100MG/ML AMPUL 4ML</td>
                        </tr>
                        <tr>
                           <th>Gebruiksduur</th>
                           <td>
                              <ul>
                                 <li>Vanaf ${DATE, T, D, +0}T15:48:00+02:00</li>
                                 <li>5 dag</li>
                              </ul>
                           </td>
                        </tr>
                        <tr>
                           <th>Doseerinstructie</th>
                           <td>
                              <div>Tekst: Vanaf T om 15:48 uur, gedurende 5 dagen, 2 maal per dag 4 ml, Eerst oplossen in water, Mond spoelen, daarna uitspugen</div>
                              <div>Instructie: <ul>
                                    <li>
                                       <span title="Eerst oplossen in water (27 - nhg-tabel-25-gebruiksvoorschrift#aanvullend-numeriek)">Eerst oplossen in water</span>
                                    </li>
                                    <li>
                                       <span title="Mond spoelen, daarna uitspugen (69 - nhg-tabel-25-gebruiksvoorschrift#aanvullend-numeriek)">Mond spoelen, daarna uitspugen</span>
                                    </li>
                                 </ul>
                              </div>
                              <div>Timing: <div>2 maal per dag</div>
                              </div>
                              <div>Dosering: 4 Milliliter</div>
                           </td>
                        </tr>
                     </tbody>
                  </table>
               </div>
            </text>
            <extension url="http://nictiz.nl/fhir/StructureDefinition/zib-AdministrationAgreement-AuthoredOn">
               <valueDateTime value="${DATE, T, D, +0}"/>
            </extension>
            <extension url="http://nictiz.nl/fhir/StructureDefinition/zib-Medication-PeriodOfUse">
               <valuePeriod>
                  <start value="${DATE, T, D, +0}T15:48:00+02:00"/>
               </valuePeriod>
            </extension>
            <extension url="http://nictiz.nl/fhir/StructureDefinition/zib-MedicationUse-Duration">
               <valueDuration>
                  <value value="5"/>
                  <unit value="dag"/>
                  <system value="http://unitsofmeasure.org"/>
                  <code value="d"/>
               </valueDuration>
            </extension>
            <extension url="http://nictiz.nl/fhir/StructureDefinition/zib-Medication-MedicationTreatment">
               <valueIdentifier>
                  <system value="urn:oid:2.16.840.1.113883.2.4.3.11.999.77.373784005.1"/>
                  <value value="bb7ee0c0-100a-11e5-b939-0800200c9a66"/>
               </valueIdentifier>
            </extension>
            <category>
               <coding>
                  <system value="http://snomed.info/sct"/>
                  <code value="422037009"/>
                  <display value="Provider medication administration instructions (procedure)"/>
               </coding>
               <text value="Toedieningsafspraak"/>
            </category>
            <medicationReference>
               <reference value="urn:oid:2.16.840.1.113883.2.4.4.8.13966383"/>
               <display value="FLUIMUCIL INHVLST 100MG/ML AMPUL 4ML"/>
            </medicationReference>
            <subject>
               <reference value="urn:uuid:a10e9171-8d8f-11ec-2007-020000000000"/>
               <display value="Aygül A. Direnç"/>
            </subject>
            <performer>
               <actor>
                  <reference value="urn:oid:2.16.528.1.1007.3.3.1234567"/>
                  <display value="Organisatie met id '01234567' in identificerend systeem '2.16.528.1.1007.3.3'."/>
               </actor>
            </performer>
            <dosageInstruction>
               <text value="Vanaf T om 15:48 uur, gedurende 5 dagen, 2 maal per dag 4 ml, Eerst oplossen in water, Mond spoelen, daarna uitspugen"/>
               <additionalInstruction>
                  <coding>
                     <system value="https://referentiemodel.nhg.org/tabellen/nhg-tabel-25-gebruiksvoorschrift#aanvullend-numeriek"/>
                     <code value="27"/>
                     <display value="Eerst oplossen in water"/>
                  </coding>
               </additionalInstruction>
               <additionalInstruction>
                  <coding>
                     <system value="https://referentiemodel.nhg.org/tabellen/nhg-tabel-25-gebruiksvoorschrift#aanvullend-numeriek"/>
                     <code value="69"/>
                     <display value="Mond spoelen, daarna uitspugen"/>
                  </coding>
               </additionalInstruction>
               <timing>
                  <repeat>
                     <frequency value="2"/>
                     <period value="1"/>
                     <periodUnit value="d"/>
                  </repeat>
               </timing>
               <doseQuantity>
                  <value value="4"/>
                  <unit value="Milliliter"/>
                  <system value="urn:oid:2.16.840.1.113883.2.4.4.1.900.2"/>
                  <code value="233"/>
               </doseQuantity>
            </dosageInstruction>
         </MedicationDispense>
      </resource>
      <search>
         <mode value="match"/>
      </search>
   </entry>
   <entry>
      <fullUrl value="urn:uuid:a10e7213-8d8f-11ec-2007-020000000000"/>
      <resource>
         <MedicationDispense>
            <meta>
               <profile value="http://nictiz.nl/fhir/StructureDefinition/mp612-DispenseToFHIRConversion-AdministrationAgreement"/>
            </meta>
            <text>
               <status value="extensions"/>
               <div xmlns="http://www.w3.org/1999/xhtml">
                  <table>
                     <caption>MedicationDispense. Subject: Aygül A. Direnç. Categorie: <span title="Provider medication administration instructions (procedure) (422037009 - SNOMED CT)">Provider medication administration instructions (procedure)</span>
                        <span style="display: block;">Uitvoerende: Organisatie met id '01234567' in identificerend systeem '2.16.528.1.1007.3.3'.</span>
                     </caption>
                     <tbody>
                        <tr>
                           <th>Medicamenteuze behandel-id</th>
                           <td>c635f350-100a-11e5-b939-0800200c9a66 (urn:oid:2.16.840.1.113883.2.4.3.11.999.77.373784005.1)</td>
                        </tr>
                        <tr>
                           <th>Gemaakt</th>
                           <td>${DATE, T, D, +0}</td>
                        </tr>
                        <tr>
                           <th>Medicatie</th>
                           <td>AFFUSINE CREME 20MG/G</td>
                        </tr>
                        <tr>
                           <th>Gebruiksduur</th>
                           <td>${DATE, T, D, +0} - ${DATE, T, D, +27}T23:59:59+02:00</td>
                        </tr>
                        <tr>
                           <th>Doseerinstructie</th>
                           <td>
                              <div>Tekst: Vanaf T, tot en met T + 27 dagen, Eerst, gedurende 2 weken, 3 gram per dag; daarna, gedurende 3 weken, 2 gram per dag; daarna, gedurende 6 dagen, 1 gram per dag, dun aanbrengen</div>
                              <div>Instructie: <ul>
                                    <li>Eerst, gedurende 2 weken, 3 gram per dag; daarna, gedurende 3 weken, 2 gram per dag; daarna, gedurende 6 dagen, 1 gram per dag</li>
                                    <li>dun aanbrengen</li>
                                 </ul>
                              </div>
                           </td>
                        </tr>
                     </tbody>
                  </table>
               </div>
            </text>
            <extension url="http://nictiz.nl/fhir/StructureDefinition/zib-AdministrationAgreement-AuthoredOn">
               <valueDateTime value="${DATE, T, D, +0}"/>
            </extension>
            <extension url="http://nictiz.nl/fhir/StructureDefinition/zib-Medication-PeriodOfUse">
               <valuePeriod>
                  <start value="${DATE, T, D, +0}"/>
                  <end value="${DATE, T, D, +27}T23:59:59+02:00"/>
               </valuePeriod>
            </extension>
            <extension url="http://nictiz.nl/fhir/StructureDefinition/zib-Medication-MedicationTreatment">
               <valueIdentifier>
                  <system value="urn:oid:2.16.840.1.113883.2.4.3.11.999.77.373784005.1"/>
                  <value value="c635f350-100a-11e5-b939-0800200c9a66"/>
               </valueIdentifier>
            </extension>
            <category>
               <coding>
                  <system value="http://snomed.info/sct"/>
                  <code value="422037009"/>
                  <display value="Provider medication administration instructions (procedure)"/>
               </coding>
               <text value="Toedieningsafspraak"/>
            </category>
            <medicationReference>
               <reference value="urn:oid:2.16.840.1.113883.2.4.4.8.15838234"/>
               <display value="AFFUSINE CREME 20MG/G"/>
            </medicationReference>
            <subject>
               <reference value="urn:uuid:a10e9171-8d8f-11ec-2007-020000000000"/>
               <display value="Aygül A. Direnç"/>
            </subject>
            <performer>
               <actor>
                  <reference value="urn:oid:2.16.528.1.1007.3.3.1234567"/>
                  <display value="Organisatie met id '01234567' in identificerend systeem '2.16.528.1.1007.3.3'."/>
               </actor>
            </performer>
            <dosageInstruction>
               <text value="Vanaf T, tot en met T + 27 dagen, Eerst, gedurende 2 weken, 3 gram per dag; daarna, gedurende 3 weken, 2 gram per dag; daarna, gedurende 6 dagen, 1 gram per dag, dun aanbrengen"/>
               <additionalInstruction>
                  <coding>
                     <system value="http://hl7.org/fhir/v3/NullFlavor"/>
                     <code value="OTH"/>
                     <display value="overig"/>
                  </coding>
                  <text value="Eerst, gedurende 2 weken, 3 gram per dag; daarna, gedurende 3 weken, 2 gram per dag; daarna, gedurende 6 dagen, 1 gram per dag"/>
               </additionalInstruction>
               <additionalInstruction>
                  <coding>
                     <system value="http://hl7.org/fhir/v3/NullFlavor"/>
                     <code value="OTH"/>
                     <display value="overig"/>
                  </coding>
                  <text value="dun aanbrengen"/>
               </additionalInstruction>
            </dosageInstruction>
         </MedicationDispense>
      </resource>
      <search>
         <mode value="match"/>
      </search>
   </entry>
   <entry>
      <fullUrl value="urn:uuid:a10e726b-8d8f-11ec-2007-020000000000"/>
      <resource>
         <MedicationDispense>
            <meta>
               <profile value="http://nictiz.nl/fhir/StructureDefinition/mp612-DispenseToFHIRConversion-AdministrationAgreement"/>
            </meta>
            <text>
               <status value="extensions"/>
               <div xmlns="http://www.w3.org/1999/xhtml">
                  <table>
                     <caption>MedicationDispense. Subject: Aygül A. Direnç. Categorie: <span title="Provider medication administration instructions (procedure) (422037009 - SNOMED CT)">Provider medication administration instructions (procedure)</span>
                        <span style="display: block;">Uitvoerende: Organisatie met id '01234567' in identificerend systeem '2.16.528.1.1007.3.3'.</span>
                     </caption>
                     <tbody>
                        <tr>
                           <th>Medicamenteuze behandel-id</th>
                           <td>cbb37000-100a-11e5-b939-0800200c9a66 (urn:oid:2.16.840.1.113883.2.4.3.11.999.77.373784005.1)</td>
                        </tr>
                        <tr>
                           <th>Gemaakt</th>
                           <td>${DATE, T, D, +0}</td>
                        </tr>
                        <tr>
                           <th>Medicatie</th>
                           <td>Ibuprofen PCH tablet 600mg</td>
                        </tr>
                        <tr>
                           <th>Gebruiksduur</th>
                           <td>48 dag</td>
                        </tr>
                        <tr>
                           <th>Doseerinstructie</th>
                           <td>
                              <div>Tekst: gedurende 48 dagen, 2 maal per dag 0.25 stuk</div>
                              <div>Timing: <div>2 maal per dag</div>
                              </div>
                              <div>Dosering: 0.25 Stuk</div>
                           </td>
                        </tr>
                     </tbody>
                  </table>
               </div>
            </text>
            <extension url="http://nictiz.nl/fhir/StructureDefinition/zib-AdministrationAgreement-AuthoredOn">
               <valueDateTime value="${DATE, T, D, +0}"/>
            </extension>
            <extension url="http://nictiz.nl/fhir/StructureDefinition/zib-MedicationUse-Duration">
               <valueDuration>
                  <value value="48"/>
                  <unit value="dag"/>
                  <system value="http://unitsofmeasure.org"/>
                  <code value="d"/>
               </valueDuration>
            </extension>
            <extension url="http://nictiz.nl/fhir/StructureDefinition/zib-Medication-MedicationTreatment">
               <valueIdentifier>
                  <system value="urn:oid:2.16.840.1.113883.2.4.3.11.999.77.373784005.1"/>
                  <value value="cbb37000-100a-11e5-b939-0800200c9a66"/>
               </valueIdentifier>
            </extension>
            <category>
               <coding>
                  <system value="http://snomed.info/sct"/>
                  <code value="422037009"/>
                  <display value="Provider medication administration instructions (procedure)"/>
               </coding>
               <text value="Toedieningsafspraak"/>
            </category>
            <medicationReference>
               <reference value="urn:oid:2.16.840.1.113883.2.4.4.8.13550055"/>
               <display value="Ibuprofen PCH tablet 600mg"/>
            </medicationReference>
            <subject>
               <reference value="urn:uuid:a10e9171-8d8f-11ec-2007-020000000000"/>
               <display value="Aygül A. Direnç"/>
            </subject>
            <performer>
               <actor>
                  <reference value="urn:oid:2.16.528.1.1007.3.3.1234567"/>
                  <display value="Organisatie met id '01234567' in identificerend systeem '2.16.528.1.1007.3.3'."/>
               </actor>
            </performer>
            <dosageInstruction>
               <text value="gedurende 48 dagen, 2 maal per dag 0.25 stuk"/>
               <timing>
                  <repeat>
                     <frequency value="2"/>
                     <period value="1"/>
                     <periodUnit value="d"/>
                  </repeat>
               </timing>
               <doseQuantity>
                  <value value="0.25"/>
                  <unit value="Stuk"/>
                  <system value="urn:oid:2.16.840.1.113883.2.4.4.1.900.2"/>
                  <code value="245"/>
               </doseQuantity>
            </dosageInstruction>
         </MedicationDispense>
      </resource>
      <search>
         <mode value="match"/>
      </search>
   </entry>
   <entry>
      <fullUrl value="urn:uuid:a10e72da-8d8f-11ec-2007-020000000000"/>
      <resource>
         <MedicationDispense>
            <meta>
               <profile value="http://nictiz.nl/fhir/StructureDefinition/mp612-DispenseToFHIRConversion-AdministrationAgreement"/>
            </meta>
            <text>
               <status value="extensions"/>
               <div xmlns="http://www.w3.org/1999/xhtml">
                  <table>
                     <caption>MedicationDispense. Subject: Aygül A. Direnç. Categorie: <span title="Provider medication administration instructions (procedure) (422037009 - SNOMED CT)">Provider medication administration instructions (procedure)</span>
                        <span style="display: block;">Uitvoerende: Organisatie met id '01234567' in identificerend systeem '2.16.528.1.1007.3.3'.</span>
                     </caption>
                     <tbody>
                        <tr>
                           <th>Medicamenteuze behandel-id</th>
                           <td>fbaecc50-4bec-11e5-b970-0800200c9a66 (urn:oid:2.16.840.1.113883.2.4.3.11.999.77.373784005.1)</td>
                        </tr>
                        <tr>
                           <th>Gemaakt</th>
                           <td>${DATE, T, D, +0}</td>
                        </tr>
                        <tr>
                           <th>Medicatie</th>
                           <td>DICLOFENAC NATRIUM SANDOZ TABLET MSR 50MG</td>
                        </tr>
                        <tr>
                           <th>Gebruiksduur</th>
                           <td>10 dag</td>
                        </tr>
                        <tr>
                           <th>Doseerinstructie</th>
                           <td>
                              <div>Tekst: gedurende 10 dagen, DAGDOSIS: 3 stuks per dag</div>
                              <div>Instructie: DAGDOSIS: 3 stuks per dag</div>
                           </td>
                        </tr>
                     </tbody>
                  </table>
               </div>
            </text>
            <extension url="http://nictiz.nl/fhir/StructureDefinition/zib-AdministrationAgreement-AuthoredOn">
               <valueDateTime value="${DATE, T, D, +0}"/>
            </extension>
            <extension url="http://nictiz.nl/fhir/StructureDefinition/zib-MedicationUse-Duration">
               <valueDuration>
                  <value value="10"/>
                  <unit value="dag"/>
                  <system value="http://unitsofmeasure.org"/>
                  <code value="d"/>
               </valueDuration>
            </extension>
            <extension url="http://nictiz.nl/fhir/StructureDefinition/zib-Medication-MedicationTreatment">
               <valueIdentifier>
                  <system value="urn:oid:2.16.840.1.113883.2.4.3.11.999.77.373784005.1"/>
                  <value value="fbaecc50-4bec-11e5-b970-0800200c9a66"/>
               </valueIdentifier>
            </extension>
            <category>
               <coding>
                  <system value="http://snomed.info/sct"/>
                  <code value="422037009"/>
                  <display value="Provider medication administration instructions (procedure)"/>
               </coding>
               <text value="Toedieningsafspraak"/>
            </category>
            <medicationReference>
               <reference value="urn:oid:2.16.840.1.113883.2.4.4.8.14279762"/>
               <display value="DICLOFENAC NATRIUM SANDOZ TABLET MSR 50MG"/>
            </medicationReference>
            <subject>
               <reference value="urn:uuid:a10e9171-8d8f-11ec-2007-020000000000"/>
               <display value="Aygül A. Direnç"/>
            </subject>
            <performer>
               <actor>
                  <reference value="urn:oid:2.16.528.1.1007.3.3.1234567"/>
                  <display value="Organisatie met id '01234567' in identificerend systeem '2.16.528.1.1007.3.3'."/>
               </actor>
            </performer>
            <dosageInstruction>
               <text value="gedurende 10 dagen, DAGDOSIS: 3 stuks per dag"/>
               <additionalInstruction>
                  <coding>
                     <system value="http://hl7.org/fhir/v3/NullFlavor"/>
                     <code value="OTH"/>
                     <display value="overig"/>
                  </coding>
                  <text value="DAGDOSIS: 3 stuks per dag"/>
               </additionalInstruction>
            </dosageInstruction>
         </MedicationDispense>
      </resource>
      <search>
         <mode value="match"/>
      </search>
   </entry>
   <entry>
      <fullUrl value="urn:uuid:d4d03380-100a-11e5-b939-0800200c9a66"/>
      <resource>
         <MedicationDispense>
            <meta>
               <profile value="http://nictiz.nl/fhir/StructureDefinition/mp612-DispenseToFHIRConversion-Dispense"/>
            </meta>
            <text>
               <status value="extensions"/>
               <div xmlns="http://www.w3.org/1999/xhtml">
                  <table>
                     <caption>MedicationDispense. Subject: Aygül A. Direnç. Id: d4d03380-100a-11e5-b939-0800200c9a66 (urn:oid:2.16.840.1.113883.2.4.3.11.999.77.373784005.1), Categorie: <span title="Dispensing medication (procedure) (373784005 - SNOMED CT)">Dispensing medication (procedure)</span>
                        <span style="display: block;">Uitvoerende: Organisatie met id '01234567' in identificerend systeem '2.16.528.1.1007.3.3'.</span>
                     </caption>
                     <tbody>
                        <tr>
                           <th>Medicamenteuze behandel-id</th>
                           <td>d4d03380-100a-11e5-b939-0800200c9a66 (urn:oid:2.16.840.1.113883.2.4.3.11.999.77.373784005.1)</td>
                        </tr>
                        <tr>
                           <th>Aanvraagdatum</th>
                           <td>${DATE, T, D, -566}</td>
                        </tr>
                        <tr>
                           <th>Medicatie</th>
                           <td>NOVORAPID PENFILL INJVLST 100E/ML PATROON 3ML</td>
                        </tr>
                        <tr>
                           <th>Hoeveelheid</th>
                           <td>5 stuk</td>
                        </tr>
                        <tr>
                           <th>Datum overhandigd</th>
                           <td>
                              <i>geen informatie (ontbrekend gegeven)</i>
                           </td>
                        </tr>
                     </tbody>
                  </table>
               </div>
            </text>
            <extension url="http://nictiz.nl/fhir/StructureDefinition/zib-Dispense-RequestDate">
               <valueDateTime value="${DATE, T, D, -566}"/>
            </extension>
            <extension url="http://nictiz.nl/fhir/StructureDefinition/zib-Medication-MedicationTreatment">
               <valueIdentifier>
                  <system value="urn:oid:2.16.840.1.113883.2.4.3.11.999.77.373784005.1"/>
                  <value value="d4d03380-100a-11e5-b939-0800200c9a66"/>
               </valueIdentifier>
            </extension>
            <identifier>
               <system value="urn:oid:2.16.840.1.113883.2.4.3.11.999.77.373784005.1"/>
               <value value="d4d03380-100a-11e5-b939-0800200c9a66"/>
            </identifier>
            <category>
               <coding>
                  <system value="http://snomed.info/sct"/>
                  <code value="373784005"/>
                  <display value="Dispensing medication (procedure)"/>
               </coding>
               <text value="Medicatieverstrekking"/>
            </category>
            <medicationReference>
               <reference value="urn:oid:2.16.840.1.113883.2.4.4.8.14305054"/>
               <display value="NOVORAPID PENFILL INJVLST 100E/ML PATROON 3ML"/>
            </medicationReference>
            <subject>
               <reference value="urn:uuid:a10e9171-8d8f-11ec-2007-020000000000"/>
               <display value="Aygül A. Direnç"/>
            </subject>
            <performer>
               <actor>
                  <reference value="urn:oid:2.16.528.1.1007.3.3.1234567"/>
                  <display value="Organisatie met id '01234567' in identificerend systeem '2.16.528.1.1007.3.3'."/>
               </actor>
            </performer>
            <quantity>
               <value value="5"/>
               <unit value="stuk"/>
               <system value="urn:oid:2.16.840.1.113883.2.4.4.1.900.2"/>
               <code value="245"/>
            </quantity>
            <whenHandedOver>
               <extension url="http://hl7.org/fhir/StructureDefinition/iso21090-nullFlavor">
                  <valueCode value="NI"/>
               </extension>
            </whenHandedOver>
         </MedicationDispense>
      </resource>
      <search>
         <mode value="match"/>
      </search>
   </entry>
   <entry>
      <fullUrl value="urn:uuid:9b4c3b90-100a-11e5-b939-0800200c9a66"/>
      <resource>
         <MedicationDispense>
            <meta>
               <profile value="http://nictiz.nl/fhir/StructureDefinition/mp612-DispenseToFHIRConversion-Dispense"/>
            </meta>
            <text>
               <status value="extensions"/>
               <div xmlns="http://www.w3.org/1999/xhtml">
                  <table>
                     <caption>MedicationDispense. Subject: Aygül A. Direnç. Id: 9b4c3b90-100a-11e5-b939-0800200c9a66 (urn:oid:2.16.840.1.113883.2.4.3.11.999.77.373784005.1), Categorie: <span title="Dispensing medication (procedure) (373784005 - SNOMED CT)">Dispensing medication (procedure)</span>
                        <span style="display: block;">Uitvoerende: Organisatie met id '01234567' in identificerend systeem '2.16.528.1.1007.3.3'.</span>
                     </caption>
                     <tbody>
                        <tr>
                           <th>Medicamenteuze behandel-id</th>
                           <td>9b4c3b90-100a-11e5-b939-0800200c9a66 (urn:oid:2.16.840.1.113883.2.4.3.11.999.77.373784005.1)</td>
                        </tr>
                        <tr>
                           <th>Aanvraagdatum</th>
                           <td>${DATE, T, D, -613}</td>
                        </tr>
                        <tr>
                           <th>Medicatie</th>
                           <td>ASPIRINE PROTECT EC TABLET MSR 100MG</td>
                        </tr>
                        <tr>
                           <th>Hoeveelheid</th>
                           <td>120 Stuk</td>
                        </tr>
                        <tr>
                           <th>Datum overhandigd</th>
                           <td>
                              <i>geen informatie (ontbrekend gegeven)</i>
                           </td>
                        </tr>
                     </tbody>
                  </table>
               </div>
            </text>
            <extension url="http://nictiz.nl/fhir/StructureDefinition/zib-Dispense-RequestDate">
               <valueDateTime value="${DATE, T, D, -613}"/>
            </extension>
            <extension url="http://nictiz.nl/fhir/StructureDefinition/zib-Medication-MedicationTreatment">
               <valueIdentifier>
                  <system value="urn:oid:2.16.840.1.113883.2.4.3.11.999.77.373784005.1"/>
                  <value value="9b4c3b90-100a-11e5-b939-0800200c9a66"/>
               </valueIdentifier>
            </extension>
            <identifier>
               <system value="urn:oid:2.16.840.1.113883.2.4.3.11.999.77.373784005.1"/>
               <value value="9b4c3b90-100a-11e5-b939-0800200c9a66"/>
            </identifier>
            <category>
               <coding>
                  <system value="http://snomed.info/sct"/>
                  <code value="373784005"/>
                  <display value="Dispensing medication (procedure)"/>
               </coding>
               <text value="Medicatieverstrekking"/>
            </category>
            <medicationReference>
               <reference value="urn:oid:2.16.840.1.113883.2.4.4.8.14165635"/>
               <display value="ASPIRINE PROTECT EC TABLET MSR 100MG"/>
            </medicationReference>
            <subject>
               <reference value="urn:uuid:a10e9171-8d8f-11ec-2007-020000000000"/>
               <display value="Aygül A. Direnç"/>
            </subject>
            <performer>
               <actor>
                  <reference value="urn:oid:2.16.528.1.1007.3.3.1234567"/>
                  <display value="Organisatie met id '01234567' in identificerend systeem '2.16.528.1.1007.3.3'."/>
               </actor>
            </performer>
            <quantity>
               <value value="120"/>
               <unit value="Stuk"/>
               <system value="urn:oid:2.16.840.1.113883.2.4.4.1.900.2"/>
               <code value="245"/>
            </quantity>
            <whenHandedOver>
               <extension url="http://hl7.org/fhir/StructureDefinition/iso21090-nullFlavor">
                  <valueCode value="NI"/>
               </extension>
            </whenHandedOver>
         </MedicationDispense>
      </resource>
      <search>
         <mode value="match"/>
      </search>
   </entry>
   <entry>
      <fullUrl value="urn:uuid:a378f9c0-100a-11e5-b939-0800200c9a66"/>
      <resource>
         <MedicationDispense>
            <meta>
               <profile value="http://nictiz.nl/fhir/StructureDefinition/mp612-DispenseToFHIRConversion-Dispense"/>
            </meta>
            <text>
               <status value="extensions"/>
               <div xmlns="http://www.w3.org/1999/xhtml">
                  <table>
                     <caption>MedicationDispense. Subject: Aygül A. Direnç. Id: a378f9c0-100a-11e5-b939-0800200c9a66 (urn:oid:2.16.840.1.113883.2.4.3.11.999.77.373784005.1), Categorie: <span title="Dispensing medication (procedure) (373784005 - SNOMED CT)">Dispensing medication (procedure)</span>
                        <span style="display: block;">Uitvoerende: Organisatie met id '01234567' in identificerend systeem '2.16.528.1.1007.3.3'.</span>
                     </caption>
                     <tbody>
                        <tr>
                           <th>Medicamenteuze behandel-id</th>
                           <td>a378f9c0-100a-11e5-b939-0800200c9a66 (urn:oid:2.16.840.1.113883.2.4.3.11.999.77.373784005.1)</td>
                        </tr>
                        <tr>
                           <th>Aanvraagdatum</th>
                           <td>${DATE, T, D, -252}</td>
                        </tr>
                        <tr>
                           <th>Medicatie</th>
                           <td>Cetomacrogolcreme met 10% vaseline fagron</td>
                        </tr>
                        <tr>
                           <th>Hoeveelheid</th>
                           <td>60 Gram</td>
                        </tr>
                        <tr>
                           <th>Datum overhandigd</th>
                           <td>
                              <i>geen informatie (ontbrekend gegeven)</i>
                           </td>
                        </tr>
                     </tbody>
                  </table>
               </div>
            </text>
            <extension url="http://nictiz.nl/fhir/StructureDefinition/zib-Dispense-RequestDate">
               <valueDateTime value="${DATE, T, D, -252}"/>
            </extension>
            <extension url="http://nictiz.nl/fhir/StructureDefinition/zib-Medication-MedicationTreatment">
               <valueIdentifier>
                  <system value="urn:oid:2.16.840.1.113883.2.4.3.11.999.77.373784005.1"/>
                  <value value="a378f9c0-100a-11e5-b939-0800200c9a66"/>
               </valueIdentifier>
            </extension>
            <identifier>
               <system value="urn:oid:2.16.840.1.113883.2.4.3.11.999.77.373784005.1"/>
               <value value="a378f9c0-100a-11e5-b939-0800200c9a66"/>
            </identifier>
            <category>
               <coding>
                  <system value="http://snomed.info/sct"/>
                  <code value="373784005"/>
                  <display value="Dispensing medication (procedure)"/>
               </coding>
               <text value="Medicatieverstrekking"/>
            </category>
            <medicationReference>
               <reference value="urn:oid:2.16.840.1.113883.2.4.4.8.14344491"/>
               <display value="Cetomacrogolcreme met 10% vaseline fagron"/>
            </medicationReference>
            <subject>
               <reference value="urn:uuid:a10e9171-8d8f-11ec-2007-020000000000"/>
               <display value="Aygül A. Direnç"/>
            </subject>
            <performer>
               <actor>
                  <reference value="urn:oid:2.16.528.1.1007.3.3.1234567"/>
                  <display value="Organisatie met id '01234567' in identificerend systeem '2.16.528.1.1007.3.3'."/>
               </actor>
            </performer>
            <quantity>
               <value value="60"/>
               <unit value="Gram"/>
               <system value="urn:oid:2.16.840.1.113883.2.4.4.1.900.2"/>
               <code value="215"/>
            </quantity>
            <whenHandedOver>
               <extension url="http://hl7.org/fhir/StructureDefinition/iso21090-nullFlavor">
                  <valueCode value="NI"/>
               </extension>
            </whenHandedOver>
         </MedicationDispense>
      </resource>
      <search>
         <mode value="match"/>
      </search>
   </entry>
   <entry>
      <fullUrl value="urn:uuid:a7e331b0-100a-11e5-b939-0800200c9a66"/>
      <resource>
         <MedicationDispense>
            <meta>
               <profile value="http://nictiz.nl/fhir/StructureDefinition/mp612-DispenseToFHIRConversion-Dispense"/>
            </meta>
            <text>
               <status value="extensions"/>
               <div xmlns="http://www.w3.org/1999/xhtml">
                  <table>
                     <caption>MedicationDispense. Subject: Aygül A. Direnç. Id: a7e331b0-100a-11e5-b939-0800200c9a66 (urn:oid:2.16.840.1.113883.2.4.3.11.999.77.373784005.1), Categorie: <span title="Dispensing medication (procedure) (373784005 - SNOMED CT)">Dispensing medication (procedure)</span>
                        <span style="display: block;">Uitvoerende: Organisatie met id '01234567' in identificerend systeem '2.16.528.1.1007.3.3'.</span>
                     </caption>
                     <tbody>
                        <tr>
                           <th>Medicamenteuze behandel-id</th>
                           <td>a7e331b0-100a-11e5-b939-0800200c9a66 (urn:oid:2.16.840.1.113883.2.4.3.11.999.77.373784005.1)</td>
                        </tr>
                        <tr>
                           <th>Aanvraagdatum</th>
                           <td>${DATE, T, D, -217}</td>
                        </tr>
                        <tr>
                           <th>Medicatie</th>
                           <td>SPIRIVA INHALPDR 18 MCG</td>
                        </tr>
                        <tr>
                           <th>Hoeveelheid</th>
                           <td>30 Stuk</td>
                        </tr>
                        <tr>
                           <th>Datum overhandigd</th>
                           <td>
                              <i>geen informatie (ontbrekend gegeven)</i>
                           </td>
                        </tr>
                     </tbody>
                  </table>
               </div>
            </text>
            <extension url="http://nictiz.nl/fhir/StructureDefinition/zib-Dispense-RequestDate">
               <valueDateTime value="${DATE, T, D, -217}"/>
            </extension>
            <extension url="http://nictiz.nl/fhir/StructureDefinition/zib-Medication-MedicationTreatment">
               <valueIdentifier>
                  <system value="urn:oid:2.16.840.1.113883.2.4.3.11.999.77.373784005.1"/>
                  <value value="a7e331b0-100a-11e5-b939-0800200c9a66"/>
               </valueIdentifier>
            </extension>
            <identifier>
               <system value="urn:oid:2.16.840.1.113883.2.4.3.11.999.77.373784005.1"/>
               <value value="a7e331b0-100a-11e5-b939-0800200c9a66"/>
            </identifier>
            <category>
               <coding>
                  <system value="http://snomed.info/sct"/>
                  <code value="373784005"/>
                  <display value="Dispensing medication (procedure)"/>
               </coding>
               <text value="Medicatieverstrekking"/>
            </category>
            <medicationReference>
               <reference value="urn:oid:2.16.840.1.113883.2.4.4.8.14750406"/>
               <display value="SPIRIVA INHALPDR 18 MCG"/>
            </medicationReference>
            <subject>
               <reference value="urn:uuid:a10e9171-8d8f-11ec-2007-020000000000"/>
               <display value="Aygül A. Direnç"/>
            </subject>
            <performer>
               <actor>
                  <reference value="urn:oid:2.16.528.1.1007.3.3.1234567"/>
                  <display value="Organisatie met id '01234567' in identificerend systeem '2.16.528.1.1007.3.3'."/>
               </actor>
            </performer>
            <quantity>
               <value value="30"/>
               <unit value="Stuk"/>
               <system value="urn:oid:2.16.840.1.113883.2.4.4.1.900.2"/>
               <code value="245"/>
            </quantity>
            <whenHandedOver>
               <extension url="http://hl7.org/fhir/StructureDefinition/iso21090-nullFlavor">
                  <valueCode value="NI"/>
               </extension>
            </whenHandedOver>
         </MedicationDispense>
      </resource>
      <search>
         <mode value="match"/>
      </search>
   </entry>
   <entry>
      <fullUrl value="urn:uuid:ac8c4760-100a-11e5-b939-0800200c9a66"/>
      <resource>
         <MedicationDispense>
            <meta>
               <profile value="http://nictiz.nl/fhir/StructureDefinition/mp612-DispenseToFHIRConversion-Dispense"/>
            </meta>
            <text>
               <status value="extensions"/>
               <div xmlns="http://www.w3.org/1999/xhtml">
                  <table>
                     <caption>MedicationDispense. Subject: Aygül A. Direnç. Id: ac8c4760-100a-11e5-b939-0800200c9a66 (urn:oid:2.16.840.1.113883.2.4.3.11.999.77.373784005.1), Categorie: <span title="Dispensing medication (procedure) (373784005 - SNOMED CT)">Dispensing medication (procedure)</span>
                        <span style="display: block;">Uitvoerende: Organisatie met id '01234567' in identificerend systeem '2.16.528.1.1007.3.3'.</span>
                     </caption>
                     <tbody>
                        <tr>
                           <th>Medicamenteuze behandel-id</th>
                           <td>ac8c4760-100a-11e5-b939-0800200c9a66 (urn:oid:2.16.840.1.113883.2.4.3.11.999.77.373784005.1)</td>
                        </tr>
                        <tr>
                           <th>Aanvraagdatum</th>
                           <td>${DATE, T, D, -234}</td>
                        </tr>
                        <tr>
                           <th>Medicatie</th>
                           <td>Marvelon tablet</td>
                        </tr>
                        <tr>
                           <th>Hoeveelheid</th>
                           <td>126 Stuk</td>
                        </tr>
                        <tr>
                           <th>Dagen voorraad</th>
                           <td>24 week</td>
                        </tr>
                        <tr>
                           <th>Datum overhandigd</th>
                           <td>
                              <i>geen informatie (ontbrekend gegeven)</i>
                           </td>
                        </tr>
                     </tbody>
                  </table>
               </div>
            </text>
            <extension url="http://nictiz.nl/fhir/StructureDefinition/zib-Dispense-RequestDate">
               <valueDateTime value="${DATE, T, D, -234}"/>
            </extension>
            <extension url="http://nictiz.nl/fhir/StructureDefinition/zib-Medication-MedicationTreatment">
               <valueIdentifier>
                  <system value="urn:oid:2.16.840.1.113883.2.4.3.11.999.77.373784005.1"/>
                  <value value="ac8c4760-100a-11e5-b939-0800200c9a66"/>
               </valueIdentifier>
            </extension>
            <identifier>
               <system value="urn:oid:2.16.840.1.113883.2.4.3.11.999.77.373784005.1"/>
               <value value="ac8c4760-100a-11e5-b939-0800200c9a66"/>
            </identifier>
            <category>
               <coding>
                  <system value="http://snomed.info/sct"/>
                  <code value="373784005"/>
                  <display value="Dispensing medication (procedure)"/>
               </coding>
               <text value="Medicatieverstrekking"/>
            </category>
            <medicationReference>
               <reference value="urn:oid:2.16.840.1.113883.2.4.4.8.12323047"/>
               <display value="Marvelon tablet"/>
            </medicationReference>
            <subject>
               <reference value="urn:uuid:a10e9171-8d8f-11ec-2007-020000000000"/>
               <display value="Aygül A. Direnç"/>
            </subject>
            <performer>
               <actor>
                  <reference value="urn:oid:2.16.528.1.1007.3.3.1234567"/>
                  <display value="Organisatie met id '01234567' in identificerend systeem '2.16.528.1.1007.3.3'."/>
               </actor>
            </performer>
            <quantity>
               <value value="126"/>
               <unit value="Stuk"/>
               <system value="urn:oid:2.16.840.1.113883.2.4.4.1.900.2"/>
               <code value="245"/>
            </quantity>
            <daysSupply>
               <value value="24"/>
               <unit value="week"/>
               <system value="http://unitsofmeasure.org"/>
               <code value="wk"/>
            </daysSupply>
            <whenHandedOver>
               <extension url="http://hl7.org/fhir/StructureDefinition/iso21090-nullFlavor">
                  <valueCode value="NI"/>
               </extension>
            </whenHandedOver>
         </MedicationDispense>
      </resource>
      <search>
         <mode value="match"/>
      </search>
   </entry>
   <entry>
      <fullUrl value="urn:uuid:b1730250-100a-11e5-b939-0800200c9a66"/>
      <resource>
         <MedicationDispense>
            <meta>
               <profile value="http://nictiz.nl/fhir/StructureDefinition/mp612-DispenseToFHIRConversion-Dispense"/>
            </meta>
            <text>
               <status value="extensions"/>
               <div xmlns="http://www.w3.org/1999/xhtml">
                  <table>
                     <caption>MedicationDispense. Subject: Aygül A. Direnç. Id: b1730250-100a-11e5-b939-0800200c9a66 (urn:oid:2.16.840.1.113883.2.4.3.11.999.77.373784005.1), Categorie: <span title="Dispensing medication (procedure) (373784005 - SNOMED CT)">Dispensing medication (procedure)</span>
                        <span style="display: block;">Uitvoerende: Organisatie met id '01234567' in identificerend systeem '2.16.528.1.1007.3.3'.</span>
                     </caption>
                     <tbody>
                        <tr>
                           <th>Medicamenteuze behandel-id</th>
                           <td>b1730250-100a-11e5-b939-0800200c9a66 (urn:oid:2.16.840.1.113883.2.4.3.11.999.77.373784005.1)</td>
                        </tr>
                        <tr>
                           <th>Aanvraagdatum</th>
                           <td>${DATE, T, D, -234}</td>
                        </tr>
                        <tr>
                           <th>Medicatie</th>
                           <td>METFORMINE HCL CF TABLET 850MG</td>
                        </tr>
                        <tr>
                           <th>Hoeveelheid</th>
                           <td>21 Stuk</td>
                        </tr>
                        <tr>
                           <th>Dagen voorraad</th>
                           <td>21 week</td>
                        </tr>
                        <tr>
                           <th>Datum overhandigd</th>
                           <td>
                              <i>geen informatie (ontbrekend gegeven)</i>
                           </td>
                        </tr>
                     </tbody>
                  </table>
               </div>
            </text>
            <extension url="http://nictiz.nl/fhir/StructureDefinition/zib-Dispense-RequestDate">
               <valueDateTime value="${DATE, T, D, -234}"/>
            </extension>
            <extension url="http://nictiz.nl/fhir/StructureDefinition/zib-Medication-MedicationTreatment">
               <valueIdentifier>
                  <system value="urn:oid:2.16.840.1.113883.2.4.3.11.999.77.373784005.1"/>
                  <value value="b1730250-100a-11e5-b939-0800200c9a66"/>
               </valueIdentifier>
            </extension>
            <identifier>
               <system value="urn:oid:2.16.840.1.113883.2.4.3.11.999.77.373784005.1"/>
               <value value="b1730250-100a-11e5-b939-0800200c9a66"/>
            </identifier>
            <category>
               <coding>
                  <system value="http://snomed.info/sct"/>
                  <code value="373784005"/>
                  <display value="Dispensing medication (procedure)"/>
               </coding>
               <text value="Medicatieverstrekking"/>
            </category>
            <medicationReference>
               <reference value="urn:oid:2.16.840.1.113883.2.4.4.8.15061078"/>
               <display value="METFORMINE HCL CF TABLET 850MG"/>
            </medicationReference>
            <subject>
               <reference value="urn:uuid:a10e9171-8d8f-11ec-2007-020000000000"/>
               <display value="Aygül A. Direnç"/>
            </subject>
            <performer>
               <actor>
                  <reference value="urn:oid:2.16.528.1.1007.3.3.1234567"/>
                  <display value="Organisatie met id '01234567' in identificerend systeem '2.16.528.1.1007.3.3'."/>
               </actor>
            </performer>
            <quantity>
               <value value="21"/>
               <unit value="Stuk"/>
               <system value="urn:oid:2.16.840.1.113883.2.4.4.1.900.2"/>
               <code value="245"/>
            </quantity>
            <daysSupply>
               <value value="21"/>
               <unit value="week"/>
               <system value="http://unitsofmeasure.org"/>
               <code value="wk"/>
            </daysSupply>
            <whenHandedOver>
               <extension url="http://hl7.org/fhir/StructureDefinition/iso21090-nullFlavor">
                  <valueCode value="NI"/>
               </extension>
            </whenHandedOver>
         </MedicationDispense>
      </resource>
      <search>
         <mode value="match"/>
      </search>
   </entry>
   <entry>
      <fullUrl value="urn:uuid:b6d9e9c0-100a-11e5-b939-0800200c9a66"/>
      <resource>
         <MedicationDispense>
            <meta>
               <profile value="http://nictiz.nl/fhir/StructureDefinition/mp612-DispenseToFHIRConversion-Dispense"/>
            </meta>
            <text>
               <status value="extensions"/>
               <div xmlns="http://www.w3.org/1999/xhtml">
                  <table>
                     <caption>MedicationDispense. Subject: Aygül A. Direnç. Id: b6d9e9c0-100a-11e5-b939-0800200c9a66 (urn:oid:2.16.840.1.113883.2.4.3.11.999.77.373784005.1), Categorie: <span title="Dispensing medication (procedure) (373784005 - SNOMED CT)">Dispensing medication (procedure)</span>
                        <span style="display: block;">Uitvoerende: Organisatie met id '01234567' in identificerend systeem '2.16.528.1.1007.3.3'.</span>
                     </caption>
                     <tbody>
                        <tr>
                           <th>Medicamenteuze behandel-id</th>
                           <td>b6d9e9c0-100a-11e5-b939-0800200c9a66 (urn:oid:2.16.840.1.113883.2.4.3.11.999.77.373784005.1)</td>
                        </tr>
                        <tr>
                           <th>Aanvraagdatum</th>
                           <td>${DATE, T, D, -31}</td>
                        </tr>
                        <tr>
                           <th>Medicatie</th>
                           <td>INSULATARD PENFILL INJ 100IE/ML PATR 3ML</td>
                        </tr>
                        <tr>
                           <th>Hoeveelheid</th>
                           <td>1 Stuk</td>
                        </tr>
                        <tr>
                           <th>Datum overhandigd</th>
                           <td>
                              <i>geen informatie (ontbrekend gegeven)</i>
                           </td>
                        </tr>
                     </tbody>
                  </table>
               </div>
            </text>
            <extension url="http://nictiz.nl/fhir/StructureDefinition/zib-Dispense-RequestDate">
               <valueDateTime value="${DATE, T, D, -31}"/>
            </extension>
            <extension url="http://nictiz.nl/fhir/StructureDefinition/zib-Medication-MedicationTreatment">
               <valueIdentifier>
                  <system value="urn:oid:2.16.840.1.113883.2.4.3.11.999.77.373784005.1"/>
                  <value value="b6d9e9c0-100a-11e5-b939-0800200c9a66"/>
               </valueIdentifier>
            </extension>
            <identifier>
               <system value="urn:oid:2.16.840.1.113883.2.4.3.11.999.77.373784005.1"/>
               <value value="b6d9e9c0-100a-11e5-b939-0800200c9a66"/>
            </identifier>
            <category>
               <coding>
                  <system value="http://snomed.info/sct"/>
                  <code value="373784005"/>
                  <display value="Dispensing medication (procedure)"/>
               </coding>
               <text value="Medicatieverstrekking"/>
            </category>
            <medicationReference>
               <reference value="urn:oid:2.16.840.1.113883.2.4.4.8.14815982"/>
               <display value="INSULATARD PENFILL INJ 100IE/ML PATR 3ML"/>
            </medicationReference>
            <subject>
               <reference value="urn:uuid:a10e9171-8d8f-11ec-2007-020000000000"/>
               <display value="Aygül A. Direnç"/>
            </subject>
            <performer>
               <actor>
                  <reference value="urn:oid:2.16.528.1.1007.3.3.1234567"/>
                  <display value="Organisatie met id '01234567' in identificerend systeem '2.16.528.1.1007.3.3'."/>
               </actor>
            </performer>
            <quantity>
               <value value="1"/>
               <unit value="Stuk"/>
               <system value="urn:oid:2.16.840.1.113883.2.4.4.1.900.2"/>
               <code value="245"/>
            </quantity>
            <whenHandedOver>
               <extension url="http://hl7.org/fhir/StructureDefinition/iso21090-nullFlavor">
                  <valueCode value="NI"/>
               </extension>
            </whenHandedOver>
         </MedicationDispense>
      </resource>
      <search>
         <mode value="match"/>
      </search>
   </entry>
   <entry>
      <fullUrl value="urn:uuid:bb7ee0c0-100a-11e5-b939-0800200c9a66"/>
      <resource>
         <MedicationDispense>
            <meta>
               <profile value="http://nictiz.nl/fhir/StructureDefinition/mp612-DispenseToFHIRConversion-Dispense"/>
            </meta>
            <text>
               <status value="extensions"/>
               <div xmlns="http://www.w3.org/1999/xhtml">
                  <table>
                     <caption>MedicationDispense. Subject: Aygül A. Direnç. Id: bb7ee0c0-100a-11e5-b939-0800200c9a66 (urn:oid:2.16.840.1.113883.2.4.3.11.999.77.373784005.1), Categorie: <span title="Dispensing medication (procedure) (373784005 - SNOMED CT)">Dispensing medication (procedure)</span>
                        <span style="display: block;">Uitvoerende: Organisatie met id '01234567' in identificerend systeem '2.16.528.1.1007.3.3'.</span>
                     </caption>
                     <tbody>
                        <tr>
                           <th>Medicamenteuze behandel-id</th>
                           <td>bb7ee0c0-100a-11e5-b939-0800200c9a66 (urn:oid:2.16.840.1.113883.2.4.3.11.999.77.373784005.1)</td>
                        </tr>
                        <tr>
                           <th>Aanvraagdatum</th>
                           <td>${DATE, T, D, -31}</td>
                        </tr>
                        <tr>
                           <th>Medicatie</th>
                           <td>FLUIMUCIL INHVLST 100MG/ML AMPUL 4ML</td>
                        </tr>
                        <tr>
                           <th>Hoeveelheid</th>
                           <td>10 Stuk</td>
                        </tr>
                        <tr>
                           <th>Datum overhandigd</th>
                           <td>
                              <i>geen informatie (ontbrekend gegeven)</i>
                           </td>
                        </tr>
                     </tbody>
                  </table>
               </div>
            </text>
            <extension url="http://nictiz.nl/fhir/StructureDefinition/zib-Dispense-RequestDate">
               <valueDateTime value="${DATE, T, D, -31}"/>
            </extension>
            <extension url="http://nictiz.nl/fhir/StructureDefinition/zib-Medication-MedicationTreatment">
               <valueIdentifier>
                  <system value="urn:oid:2.16.840.1.113883.2.4.3.11.999.77.373784005.1"/>
                  <value value="bb7ee0c0-100a-11e5-b939-0800200c9a66"/>
               </valueIdentifier>
            </extension>
            <identifier>
               <system value="urn:oid:2.16.840.1.113883.2.4.3.11.999.77.373784005.1"/>
               <value value="bb7ee0c0-100a-11e5-b939-0800200c9a66"/>
            </identifier>
            <category>
               <coding>
                  <system value="http://snomed.info/sct"/>
                  <code value="373784005"/>
                  <display value="Dispensing medication (procedure)"/>
               </coding>
               <text value="Medicatieverstrekking"/>
            </category>
            <medicationReference>
               <reference value="urn:oid:2.16.840.1.113883.2.4.4.8.13966383"/>
               <display value="FLUIMUCIL INHVLST 100MG/ML AMPUL 4ML"/>
            </medicationReference>
            <subject>
               <reference value="urn:uuid:a10e9171-8d8f-11ec-2007-020000000000"/>
               <display value="Aygül A. Direnç"/>
            </subject>
            <performer>
               <actor>
                  <reference value="urn:oid:2.16.528.1.1007.3.3.1234567"/>
                  <display value="Organisatie met id '01234567' in identificerend systeem '2.16.528.1.1007.3.3'."/>
               </actor>
            </performer>
            <quantity>
               <value value="10"/>
               <unit value="Stuk"/>
               <system value="urn:oid:2.16.840.1.113883.2.4.4.1.900.2"/>
               <code value="245"/>
            </quantity>
            <whenHandedOver>
               <extension url="http://hl7.org/fhir/StructureDefinition/iso21090-nullFlavor">
                  <valueCode value="NI"/>
               </extension>
            </whenHandedOver>
         </MedicationDispense>
      </resource>
      <search>
         <mode value="match"/>
      </search>
   </entry>
   <entry>
      <fullUrl value="urn:uuid:c635f350-100a-11e5-b939-0800200c9a66"/>
      <resource>
         <MedicationDispense>
            <meta>
               <profile value="http://nictiz.nl/fhir/StructureDefinition/mp612-DispenseToFHIRConversion-Dispense"/>
            </meta>
            <text>
               <status value="extensions"/>
               <div xmlns="http://www.w3.org/1999/xhtml">
                  <table>
                     <caption>MedicationDispense. Subject: Aygül A. Direnç. Id: c635f350-100a-11e5-b939-0800200c9a66 (urn:oid:2.16.840.1.113883.2.4.3.11.999.77.373784005.1), Categorie: <span title="Dispensing medication (procedure) (373784005 - SNOMED CT)">Dispensing medication (procedure)</span>
                        <span style="display: block;">Uitvoerende: Organisatie met id '01234567' in identificerend systeem '2.16.528.1.1007.3.3'.</span>
                     </caption>
                     <tbody>
                        <tr>
                           <th>Medicamenteuze behandel-id</th>
                           <td>c635f350-100a-11e5-b939-0800200c9a66 (urn:oid:2.16.840.1.113883.2.4.3.11.999.77.373784005.1)</td>
                        </tr>
                        <tr>
                           <th>Aanvraagdatum</th>
                           <td>${DATE, T, D, +0}</td>
                        </tr>
                        <tr>
                           <th>Medicatie</th>
                           <td>AFFUSINE CREME 20MG/G</td>
                        </tr>
                        <tr>
                           <th>Hoeveelheid</th>
                           <td>90 Gram</td>
                        </tr>
                        <tr>
                           <th>Dagen voorraad</th>
                           <td>41 dag</td>
                        </tr>
                        <tr>
                           <th>Datum overhandigd</th>
                           <td>
                              <i>geen informatie (ontbrekend gegeven)</i>
                           </td>
                        </tr>
                     </tbody>
                  </table>
               </div>
            </text>
            <extension url="http://nictiz.nl/fhir/StructureDefinition/zib-Dispense-RequestDate">
               <valueDateTime value="${DATE, T, D, +0}"/>
            </extension>
            <extension url="http://nictiz.nl/fhir/StructureDefinition/zib-Medication-MedicationTreatment">
               <valueIdentifier>
                  <system value="urn:oid:2.16.840.1.113883.2.4.3.11.999.77.373784005.1"/>
                  <value value="c635f350-100a-11e5-b939-0800200c9a66"/>
               </valueIdentifier>
            </extension>
            <identifier>
               <system value="urn:oid:2.16.840.1.113883.2.4.3.11.999.77.373784005.1"/>
               <value value="c635f350-100a-11e5-b939-0800200c9a66"/>
            </identifier>
            <category>
               <coding>
                  <system value="http://snomed.info/sct"/>
                  <code value="373784005"/>
                  <display value="Dispensing medication (procedure)"/>
               </coding>
               <text value="Medicatieverstrekking"/>
            </category>
            <medicationReference>
               <reference value="urn:oid:2.16.840.1.113883.2.4.4.8.15838234"/>
               <display value="AFFUSINE CREME 20MG/G"/>
            </medicationReference>
            <subject>
               <reference value="urn:uuid:a10e9171-8d8f-11ec-2007-020000000000"/>
               <display value="Aygül A. Direnç"/>
            </subject>
            <performer>
               <actor>
                  <reference value="urn:oid:2.16.528.1.1007.3.3.1234567"/>
                  <display value="Organisatie met id '01234567' in identificerend systeem '2.16.528.1.1007.3.3'."/>
               </actor>
            </performer>
            <quantity>
               <value value="90"/>
               <unit value="Gram"/>
               <system value="urn:oid:2.16.840.1.113883.2.4.4.1.900.2"/>
               <code value="215"/>
            </quantity>
            <daysSupply>
               <value value="41"/>
               <unit value="dag"/>
               <system value="http://unitsofmeasure.org"/>
               <code value="d"/>
            </daysSupply>
            <whenHandedOver>
               <extension url="http://hl7.org/fhir/StructureDefinition/iso21090-nullFlavor">
                  <valueCode value="NI"/>
               </extension>
            </whenHandedOver>
         </MedicationDispense>
      </resource>
      <search>
         <mode value="match"/>
      </search>
   </entry>
   <entry>
      <fullUrl value="urn:uuid:cbb37000-100a-11e5-b939-0800200c9a66"/>
      <resource>
         <MedicationDispense>
            <meta>
               <profile value="http://nictiz.nl/fhir/StructureDefinition/mp612-DispenseToFHIRConversion-Dispense"/>
            </meta>
            <text>
               <status value="extensions"/>
               <div xmlns="http://www.w3.org/1999/xhtml">
                  <table>
                     <caption>MedicationDispense. Subject: Aygül A. Direnç. Id: cbb37000-100a-11e5-b939-0800200c9a66 (urn:oid:2.16.840.1.113883.2.4.3.11.999.77.373784005.1), Categorie: <span title="Dispensing medication (procedure) (373784005 - SNOMED CT)">Dispensing medication (procedure)</span>
                        <span style="display: block;">Uitvoerende: Organisatie met id '01234567' in identificerend systeem '2.16.528.1.1007.3.3'.</span>
                     </caption>
                     <tbody>
                        <tr>
                           <th>Medicamenteuze behandel-id</th>
                           <td>cbb37000-100a-11e5-b939-0800200c9a66 (urn:oid:2.16.840.1.113883.2.4.3.11.999.77.373784005.1)</td>
                        </tr>
                        <tr>
                           <th>Aanvraagdatum</th>
                           <td>${DATE, T, D, +0}</td>
                        </tr>
                        <tr>
                           <th>Medicatie</th>
                           <td>Ibuprofen PCH tablet 600mg</td>
                        </tr>
                        <tr>
                           <th>Hoeveelheid</th>
                           <td>24 Stuk</td>
                        </tr>
                        <tr>
                           <th>Datum overhandigd</th>
                           <td>
                              <i>geen informatie (ontbrekend gegeven)</i>
                           </td>
                        </tr>
                     </tbody>
                  </table>
               </div>
            </text>
            <extension url="http://nictiz.nl/fhir/StructureDefinition/zib-Dispense-RequestDate">
               <valueDateTime value="${DATE, T, D, +0}"/>
            </extension>
            <extension url="http://nictiz.nl/fhir/StructureDefinition/zib-Medication-MedicationTreatment">
               <valueIdentifier>
                  <system value="urn:oid:2.16.840.1.113883.2.4.3.11.999.77.373784005.1"/>
                  <value value="cbb37000-100a-11e5-b939-0800200c9a66"/>
               </valueIdentifier>
            </extension>
            <identifier>
               <system value="urn:oid:2.16.840.1.113883.2.4.3.11.999.77.373784005.1"/>
               <value value="cbb37000-100a-11e5-b939-0800200c9a66"/>
            </identifier>
            <category>
               <coding>
                  <system value="http://snomed.info/sct"/>
                  <code value="373784005"/>
                  <display value="Dispensing medication (procedure)"/>
               </coding>
               <text value="Medicatieverstrekking"/>
            </category>
            <medicationReference>
               <reference value="urn:oid:2.16.840.1.113883.2.4.4.8.13550055"/>
               <display value="Ibuprofen PCH tablet 600mg"/>
            </medicationReference>
            <subject>
               <reference value="urn:uuid:a10e9171-8d8f-11ec-2007-020000000000"/>
               <display value="Aygül A. Direnç"/>
            </subject>
            <performer>
               <actor>
                  <reference value="urn:oid:2.16.528.1.1007.3.3.1234567"/>
                  <display value="Organisatie met id '01234567' in identificerend systeem '2.16.528.1.1007.3.3'."/>
               </actor>
            </performer>
            <quantity>
               <value value="24"/>
               <unit value="Stuk"/>
               <system value="urn:oid:2.16.840.1.113883.2.4.4.1.900.2"/>
               <code value="245"/>
            </quantity>
            <whenHandedOver>
               <extension url="http://hl7.org/fhir/StructureDefinition/iso21090-nullFlavor">
                  <valueCode value="NI"/>
               </extension>
            </whenHandedOver>
         </MedicationDispense>
      </resource>
      <search>
         <mode value="match"/>
      </search>
   </entry>
   <entry>
      <fullUrl value="urn:uuid:fbaecc50-4bec-11e5-b970-0800200c9a66"/>
      <resource>
         <MedicationDispense>
            <meta>
               <profile value="http://nictiz.nl/fhir/StructureDefinition/mp612-DispenseToFHIRConversion-Dispense"/>
            </meta>
            <text>
               <status value="extensions"/>
               <div xmlns="http://www.w3.org/1999/xhtml">
                  <table>
                     <caption>MedicationDispense. Subject: Aygül A. Direnç. Id: fbaecc50-4bec-11e5-b970-0800200c9a66 (urn:oid:2.16.840.1.113883.2.4.3.11.999.77.373784005.1), Categorie: <span title="Dispensing medication (procedure) (373784005 - SNOMED CT)">Dispensing medication (procedure)</span>
                        <span style="display: block;">Uitvoerende: Organisatie met id '01234567' in identificerend systeem '2.16.528.1.1007.3.3'.</span>
                     </caption>
                     <tbody>
                        <tr>
                           <th>Medicamenteuze behandel-id</th>
                           <td>fbaecc50-4bec-11e5-b970-0800200c9a66 (urn:oid:2.16.840.1.113883.2.4.3.11.999.77.373784005.1)</td>
                        </tr>
                        <tr>
                           <th>Aanvraagdatum</th>
                           <td>${DATE, T, D, +0}</td>
                        </tr>
                        <tr>
                           <th>Medicatie</th>
                           <td>DICLOFENAC NATRIUM SANDOZ TABLET MSR 50MG</td>
                        </tr>
                        <tr>
                           <th>Hoeveelheid</th>
                           <td>30 Stuk</td>
                        </tr>
                        <tr>
                           <th>Datum overhandigd</th>
                           <td>
                              <i>geen informatie (ontbrekend gegeven)</i>
                           </td>
                        </tr>
                     </tbody>
                  </table>
               </div>
            </text>
            <extension url="http://nictiz.nl/fhir/StructureDefinition/zib-Dispense-RequestDate">
               <valueDateTime value="${DATE, T, D, +0}"/>
            </extension>
            <extension url="http://nictiz.nl/fhir/StructureDefinition/zib-Medication-MedicationTreatment">
               <valueIdentifier>
                  <system value="urn:oid:2.16.840.1.113883.2.4.3.11.999.77.373784005.1"/>
                  <value value="fbaecc50-4bec-11e5-b970-0800200c9a66"/>
               </valueIdentifier>
            </extension>
            <identifier>
               <system value="urn:oid:2.16.840.1.113883.2.4.3.11.999.77.373784005.1"/>
               <value value="fbaecc50-4bec-11e5-b970-0800200c9a66"/>
            </identifier>
            <category>
               <coding>
                  <system value="http://snomed.info/sct"/>
                  <code value="373784005"/>
                  <display value="Dispensing medication (procedure)"/>
               </coding>
               <text value="Medicatieverstrekking"/>
            </category>
            <medicationReference>
               <reference value="urn:oid:2.16.840.1.113883.2.4.4.8.14279762"/>
               <display value="DICLOFENAC NATRIUM SANDOZ TABLET MSR 50MG"/>
            </medicationReference>
            <subject>
               <reference value="urn:uuid:a10e9171-8d8f-11ec-2007-020000000000"/>
               <display value="Aygül A. Direnç"/>
            </subject>
            <performer>
               <actor>
                  <reference value="urn:oid:2.16.528.1.1007.3.3.1234567"/>
                  <display value="Organisatie met id '01234567' in identificerend systeem '2.16.528.1.1007.3.3'."/>
               </actor>
            </performer>
            <quantity>
               <value value="30"/>
               <unit value="Stuk"/>
               <system value="urn:oid:2.16.840.1.113883.2.4.4.1.900.2"/>
               <code value="245"/>
            </quantity>
            <whenHandedOver>
               <extension url="http://hl7.org/fhir/StructureDefinition/iso21090-nullFlavor">
                  <valueCode value="NI"/>
               </extension>
            </whenHandedOver>
         </MedicationDispense>
      </resource>
      <search>
         <mode value="match"/>
      </search>
   </entry>
   <entry>
      <fullUrl value="urn:uuid:a10e9171-8d8f-11ec-2007-020000000000"/>
      <resource>
         <Patient>
            <meta>
               <profile value="http://nictiz.nl/fhir/StructureDefinition/mp612-DispenseToFHIRConversion-Patient"/>
            </meta>
            <text>
               <status value="extensions"/>
               <div xmlns="http://www.w3.org/1999/xhtml">
                  <div>Id <i>afgeschermd (ontbrekend gegeven)</i> (BSN), Aygül A. Direnç, Man, 20 mei 1950</div>
               </div>
            </text>
            <identifier>
               <system value="http://fhir.nl/fhir/NamingSystem/bsn"/>
               <value>
                  <extension url="http://hl7.org/fhir/StructureDefinition/data-absent-reason">
                     <valueCode value="masked"/>
                  </extension>
               </value>
            </identifier>
            <name>
               <extension url="http://hl7.org/fhir/StructureDefinition/humanname-assembly-order">
                  <valueCode value="NL1"/>
               </extension>
               <family value="Direnç">
                  <extension url="http://hl7.org/fhir/StructureDefinition/humanname-own-name">
                     <valueString value="Direnç"/>
                  </extension>
               </family>
               <given value="Aygül">
                  <extension url="http://hl7.org/fhir/StructureDefinition/iso21090-EN-qualifier">
                     <valueCode value="BR"/>
                  </extension>
               </given>
               <given value="A.">
                  <extension url="http://hl7.org/fhir/StructureDefinition/iso21090-EN-qualifier">
                     <valueCode value="IN"/>
                  </extension>
               </given>
            </name>
            <gender value="male">
               <extension url="http://nictiz.nl/fhir/StructureDefinition/code-specification">
                  <valueCodeableConcept>
                     <coding>
                        <system value="http://hl7.org/fhir/v3/AdministrativeGender"/>
                        <code value="M"/>
                        <display value="Man"/>
                     </coding>
                  </valueCodeableConcept>
               </extension>
            </gender>
            <birthDate value="1950-05-20"/>
         </Patient>
      </resource>
      <search>
         <mode value="include"/>
      </search>
   </entry>
   <entry>
      <fullUrl value="urn:oid:2.16.528.1.1007.3.3.1234567"/>
      <resource>
         <Organization>
            <meta>
               <profile value="http://nictiz.nl/fhir/StructureDefinition/mp612-DispenseToFHIRConversion-Organization"/>
            </meta>
            <text>
               <status value="extensions"/>
               <div xmlns="http://www.w3.org/1999/xhtml">
                  <table>
                     <caption>Organisatie. Id: 01234567 (URA)</caption>
                     <tbody>
                        <tr>
                           <th>Naam</th>
                           <td/>
                        </tr>
                     </tbody>
                  </table>
               </div>
            </text>
            <identifier>
               <system value="http://fhir.nl/fhir/NamingSystem/ura"/>
               <value value="01234567"/>
            </identifier>
         </Organization>
      </resource>
      <search>
         <mode value="include"/>
      </search>
   </entry>
   <entry>
      <fullUrl value="urn:oid:2.16.840.1.113883.2.4.4.8.14305054"/>
      <resource>
         <Medication>
            <id value="2.16.840.1.113883.2.4.4.8-14305054"/>
            <meta>
               <profile value="http://nictiz.nl/fhir/StructureDefinition/mp612-DispenseToFHIRConversion-Product"/>
            </meta>
            <text>
               <status value="extensions"/>
               <div xmlns="http://www.w3.org/1999/xhtml">
                  <table>
                     <tbody>
                        <tr>
                           <th>Code</th>
                           <td>
                              <span title="NOVORAPID PENFILL INJVLST 100E/ML PATROON 3ML (14305054 - G-Standaard ZI_nummer)">NOVORAPID PENFILL INJVLST 100E/ML PATROON 3ML</span>
                           </td>
                        </tr>
                     </tbody>
                  </table>
               </div>
            </text>
            <code>
               <coding>
                  <system value="urn:oid:2.16.840.1.113883.2.4.4.8"/>
                  <code value="14305054"/>
                  <display value="NOVORAPID PENFILL INJVLST 100E/ML PATROON 3ML"/>
                  <userSelected value="true"/>
               </coding>
               <text value="NOVORAPID PENFILL INJVLST 100E/ML PATROON 3ML"/>
            </code>
         </Medication>
      </resource>
      <search>
         <mode value="include"/>
      </search>
   </entry>
   <entry>
      <fullUrl value="urn:oid:2.16.840.1.113883.2.4.4.8.14165635"/>
      <resource>
         <Medication>
            <id value="2.16.840.1.113883.2.4.4.8-14165635"/>
            <meta>
               <profile value="http://nictiz.nl/fhir/StructureDefinition/mp612-DispenseToFHIRConversion-Product"/>
            </meta>
            <text>
               <status value="extensions"/>
               <div xmlns="http://www.w3.org/1999/xhtml">
                  <table>
                     <tbody>
                        <tr>
                           <th>Code</th>
                           <td>
                              <span title="ASPIRINE PROTECT EC TABLET MSR 100MG (14165635 - G-Standaard ZI_nummer)">ASPIRINE PROTECT EC TABLET MSR 100MG</span>
                           </td>
                        </tr>
                     </tbody>
                  </table>
               </div>
            </text>
            <code>
               <coding>
                  <system value="urn:oid:2.16.840.1.113883.2.4.4.8"/>
                  <code value="14165635"/>
                  <display value="ASPIRINE PROTECT EC TABLET MSR 100MG"/>
                  <userSelected value="true"/>
               </coding>
               <coding>
                  <system value="urn:oid:2.16.840.1.113883.2.4.4.7"/>
                  <code value="1110837"/>
               </coding>
               <coding>
                  <system value="urn:oid:2.16.840.1.113883.2.4.4.1"/>
                  <code value="103039"/>
               </coding>
               <text value="ASPIRINE PROTECT EC TABLET MSR 100MG"/>
            </code>
         </Medication>
      </resource>
      <search>
         <mode value="include"/>
      </search>
   </entry>
   <entry>
      <fullUrl value="urn:oid:2.16.840.1.113883.2.4.4.8.14344491"/>
      <resource>
         <Medication>
            <id value="2.16.840.1.113883.2.4.4.8-14344491"/>
            <meta>
               <profile value="http://nictiz.nl/fhir/StructureDefinition/mp612-DispenseToFHIRConversion-Product"/>
            </meta>
            <text>
               <status value="extensions"/>
               <div xmlns="http://www.w3.org/1999/xhtml">
                  <table>
                     <tbody>
                        <tr>
                           <th>Code</th>
                           <td>
                              <span title="Cetomacrogolcreme met 10% vaseline fagron (14344491 - G-Standaard ZI_nummer)">Cetomacrogolcreme met 10% vaseline fagron</span>
                           </td>
                        </tr>
                     </tbody>
                  </table>
               </div>
            </text>
            <code>
               <coding>
                  <system value="urn:oid:2.16.840.1.113883.2.4.4.8"/>
                  <code value="14344491"/>
                  <display value="Cetomacrogolcreme met 10% vaseline fagron"/>
                  <userSelected value="true"/>
               </coding>
               <coding>
                  <system value="urn:oid:2.16.840.1.113883.2.4.4.1"/>
                  <code value="133329"/>
                  <display value="Cetomacrogolcreme met vaseline 10%"/>
               </coding>
               <text value="Cetomacrogolcreme met 10% vaseline fagron"/>
            </code>
         </Medication>
      </resource>
      <search>
         <mode value="include"/>
      </search>
   </entry>
   <entry>
      <fullUrl value="urn:oid:2.16.840.1.113883.2.4.4.8.14750406"/>
      <resource>
         <Medication>
            <id value="2.16.840.1.113883.2.4.4.8-14750406"/>
            <meta>
               <profile value="http://nictiz.nl/fhir/StructureDefinition/mp612-DispenseToFHIRConversion-Product"/>
            </meta>
            <text>
               <status value="extensions"/>
               <div xmlns="http://www.w3.org/1999/xhtml">
                  <table>
                     <tbody>
                        <tr>
                           <th>Code</th>
                           <td>
                              <span title="SPIRIVA INHALPDR 18 MCG (14750406 - G-Standaard ZI_nummer)">SPIRIVA INHALPDR 18 MCG</span>
                           </td>
                        </tr>
                     </tbody>
                  </table>
               </div>
            </text>
            <code>
               <coding>
                  <system value="urn:oid:2.16.840.1.113883.2.4.4.8"/>
                  <code value="14750406"/>
                  <display value="SPIRIVA INHALPDR 18 MCG"/>
                  <userSelected value="true"/>
               </coding>
               <coding>
                  <system value="urn:oid:2.16.840.1.113883.2.4.4.7"/>
                  <code value="1476866"/>
               </coding>
               <coding>
                  <system value="urn:oid:2.16.840.1.113883.2.4.4.1"/>
                  <code value="115371"/>
               </coding>
               <text value="SPIRIVA INHALPDR 18 MCG"/>
            </code>
         </Medication>
      </resource>
      <search>
         <mode value="include"/>
      </search>
   </entry>
   <entry>
      <fullUrl value="urn:oid:2.16.840.1.113883.2.4.4.8.12323047"/>
      <resource>
         <Medication>
            <id value="2.16.840.1.113883.2.4.4.8-12323047"/>
            <meta>
               <profile value="http://nictiz.nl/fhir/StructureDefinition/mp612-DispenseToFHIRConversion-Product"/>
            </meta>
            <text>
               <status value="extensions"/>
               <div xmlns="http://www.w3.org/1999/xhtml">
                  <table>
                     <tbody>
                        <tr>
                           <th>Code</th>
                           <td>
                              <span title="Marvelon tablet (12323047 - G-Standaard ZI_nummer)">Marvelon tablet</span>
                           </td>
                        </tr>
                     </tbody>
                  </table>
               </div>
            </text>
            <code>
               <coding>
                  <system value="urn:oid:2.16.840.1.113883.2.4.4.8"/>
                  <code value="12323047"/>
                  <display value="Marvelon tablet"/>
                  <userSelected value="true"/>
               </coding>
               <text value="Marvelon tablet"/>
            </code>
         </Medication>
      </resource>
      <search>
         <mode value="include"/>
      </search>
   </entry>
   <entry>
      <fullUrl value="urn:oid:2.16.840.1.113883.2.4.4.8.15061078"/>
      <resource>
         <Medication>
            <id value="2.16.840.1.113883.2.4.4.8-15061078"/>
            <meta>
               <profile value="http://nictiz.nl/fhir/StructureDefinition/mp612-DispenseToFHIRConversion-Product"/>
            </meta>
            <text>
               <status value="extensions"/>
               <div xmlns="http://www.w3.org/1999/xhtml">
                  <table>
                     <tbody>
                        <tr>
                           <th>Code</th>
                           <td>
                              <span title="METFORMINE HCL CF TABLET 850MG (15061078 - G-Standaard ZI_nummer)">METFORMINE HCL CF TABLET 850MG</span>
                           </td>
                        </tr>
                     </tbody>
                  </table>
               </div>
            </text>
            <code>
               <coding>
                  <system value="urn:oid:2.16.840.1.113883.2.4.4.8"/>
                  <code value="15061078"/>
                  <display value="METFORMINE HCL CF TABLET 850MG"/>
                  <userSelected value="true"/>
               </coding>
               <coding>
                  <system value="urn:oid:2.16.840.1.113883.2.4.4.7"/>
                  <code value="1037137"/>
               </coding>
               <coding>
                  <system value="urn:oid:2.16.840.1.113883.2.4.4.1"/>
                  <code value="15865"/>
               </coding>
               <text value="METFORMINE HCL CF TABLET 850MG"/>
            </code>
         </Medication>
      </resource>
      <search>
         <mode value="include"/>
      </search>
   </entry>
   <entry>
      <fullUrl value="urn:oid:2.16.840.1.113883.2.4.4.8.14815982"/>
      <resource>
         <Medication>
            <id value="2.16.840.1.113883.2.4.4.8-14815982"/>
            <meta>
               <profile value="http://nictiz.nl/fhir/StructureDefinition/mp612-DispenseToFHIRConversion-Product"/>
            </meta>
            <text>
               <status value="extensions"/>
               <div xmlns="http://www.w3.org/1999/xhtml">
                  <table>
                     <tbody>
                        <tr>
                           <th>Code</th>
                           <td>
                              <span title="INSULATARD PENFILL INJ 100IE/ML PATR 3ML (14815982 - G-Standaard ZI_nummer)">INSULATARD PENFILL INJ 100IE/ML PATR 3ML</span>
                           </td>
                        </tr>
                     </tbody>
                  </table>
               </div>
            </text>
            <code>
               <coding>
                  <system value="urn:oid:2.16.840.1.113883.2.4.4.8"/>
                  <code value="14815982"/>
                  <display value="INSULATARD PENFILL INJ 100IE/ML PATR 3ML"/>
                  <userSelected value="true"/>
               </coding>
               <coding>
                  <system value="urn:oid:2.16.840.1.113883.2.4.4.7"/>
                  <code value="709085"/>
               </coding>
               <coding>
                  <system value="urn:oid:2.16.840.1.113883.2.4.4.1"/>
                  <code value="111325"/>
               </coding>
               <text value="INSULATARD PENFILL INJ 100IE/ML PATR 3ML"/>
            </code>
         </Medication>
      </resource>
      <search>
         <mode value="include"/>
      </search>
   </entry>
   <entry>
      <fullUrl value="urn:oid:2.16.840.1.113883.2.4.4.8.13966383"/>
      <resource>
         <Medication>
            <id value="2.16.840.1.113883.2.4.4.8-13966383"/>
            <meta>
               <profile value="http://nictiz.nl/fhir/StructureDefinition/mp612-DispenseToFHIRConversion-Product"/>
            </meta>
            <text>
               <status value="extensions"/>
               <div xmlns="http://www.w3.org/1999/xhtml">
                  <table>
                     <tbody>
                        <tr>
                           <th>Code</th>
                           <td>
                              <span title="FLUIMUCIL INHVLST 100MG/ML AMPUL 4ML (13966383 - G-Standaard ZI_nummer)">FLUIMUCIL INHVLST 100MG/ML AMPUL 4ML</span>
                           </td>
                        </tr>
                     </tbody>
                  </table>
               </div>
            </text>
            <code>
               <coding>
                  <system value="urn:oid:2.16.840.1.113883.2.4.4.8"/>
                  <code value="13966383"/>
                  <display value="FLUIMUCIL INHVLST 100MG/ML AMPUL 4ML"/>
                  <userSelected value="true"/>
               </coding>
               <coding>
                  <system value="urn:oid:2.16.840.1.113883.2.4.4.7"/>
                  <code value="888567"/>
               </coding>
               <coding>
                  <system value="urn:oid:2.16.840.1.113883.2.4.4.1"/>
                  <code value="38539"/>
               </coding>
               <text value="FLUIMUCIL INHVLST 100MG/ML AMPUL 4ML"/>
            </code>
         </Medication>
      </resource>
      <search>
         <mode value="include"/>
      </search>
   </entry>
   <entry>
      <fullUrl value="urn:oid:2.16.840.1.113883.2.4.4.8.15838234"/>
      <resource>
         <Medication>
            <id value="2.16.840.1.113883.2.4.4.8-15838234"/>
            <meta>
               <profile value="http://nictiz.nl/fhir/StructureDefinition/mp612-DispenseToFHIRConversion-Product"/>
            </meta>
            <text>
               <status value="extensions"/>
               <div xmlns="http://www.w3.org/1999/xhtml">
                  <table>
                     <tbody>
                        <tr>
                           <th>Code</th>
                           <td>
                              <span title="AFFUSINE CREME 20MG/G (15838234 - G-Standaard ZI_nummer)">AFFUSINE CREME 20MG/G</span>
                           </td>
                        </tr>
                     </tbody>
                  </table>
               </div>
            </text>
            <code>
               <coding>
                  <system value="urn:oid:2.16.840.1.113883.2.4.4.8"/>
                  <code value="15838234"/>
                  <display value="AFFUSINE CREME 20MG/G"/>
                  <userSelected value="true"/>
               </coding>
               <text value="AFFUSINE CREME 20MG/G"/>
            </code>
         </Medication>
      </resource>
      <search>
         <mode value="include"/>
      </search>
   </entry>
   <entry>
      <fullUrl value="urn:oid:2.16.840.1.113883.2.4.4.8.13550055"/>
      <resource>
         <Medication>
            <id value="2.16.840.1.113883.2.4.4.8-13550055"/>
            <meta>
               <profile value="http://nictiz.nl/fhir/StructureDefinition/mp612-DispenseToFHIRConversion-Product"/>
            </meta>
            <text>
               <status value="extensions"/>
               <div xmlns="http://www.w3.org/1999/xhtml">
                  <table>
                     <tbody>
                        <tr>
                           <th>Code</th>
                           <td>
                              <span title="Ibuprofen PCH tablet 600mg (13550055 - G-Standaard ZI_nummer)">Ibuprofen PCH tablet 600mg</span>
                           </td>
                        </tr>
                     </tbody>
                  </table>
               </div>
            </text>
            <code>
               <coding>
                  <system value="urn:oid:2.16.840.1.113883.2.4.4.8"/>
                  <code value="13550055"/>
                  <display value="Ibuprofen PCH tablet 600mg"/>
                  <userSelected value="true"/>
               </coding>
               <text value="Ibuprofen PCH tablet 600mg"/>
            </code>
         </Medication>
      </resource>
      <search>
         <mode value="include"/>
      </search>
   </entry>
   <entry>
      <fullUrl value="urn:oid:2.16.840.1.113883.2.4.4.8.14279762"/>
      <resource>
         <Medication>
            <id value="2.16.840.1.113883.2.4.4.8-14279762"/>
            <meta>
               <profile value="http://nictiz.nl/fhir/StructureDefinition/mp612-DispenseToFHIRConversion-Product"/>
            </meta>
            <text>
               <status value="extensions"/>
               <div xmlns="http://www.w3.org/1999/xhtml">
                  <table>
                     <tbody>
                        <tr>
                           <th>Code</th>
                           <td>
                              <span title="DICLOFENAC NATRIUM SANDOZ TABLET MSR 50MG (14279762 - G-Standaard ZI_nummer)">DICLOFENAC NATRIUM SANDOZ TABLET MSR 50MG</span>
                           </td>
                        </tr>
                     </tbody>
                  </table>
               </div>
            </text>
            <code>
               <coding>
                  <system value="urn:oid:2.16.840.1.113883.2.4.4.8"/>
                  <code value="14279762"/>
                  <display value="DICLOFENAC NATRIUM SANDOZ TABLET MSR 50MG"/>
                  <userSelected value="true"/>
               </coding>
               <text value="DICLOFENAC NATRIUM SANDOZ TABLET MSR 50MG"/>
            </code>
         </Medication>
      </resource>
      <search>
         <mode value="include"/>
      </search>
   </entry>
</Bundle>
