<?xml-model href="http://hl7.org/fhir/STU3/bundle.sch" type="application/xml" schematypens="http://purl.oclc.org/dsdl/schematron"?><Bundle xmlns="http://hl7.org/fhir"
        xmlns:xsi="http://www.w3.org/2001/XMLSchema-instance"
        xsi:schemaLocation="http://hl7.org/fhir http://hl7.org/fhir/STU3/bundle.xsd">
   <id value="41154823-3b4c-11ed-9529-020000000000"/>
   <type value="searchset"/>
   <total value="2"/>
   <link>
      <relation value="self"/>
      <url value="http://dummy.nictiz.nl/dummyquery"/>
   </link>
   <entry>
      <fullUrl value="urn:uuid:4115581b-3b4c-11ed-9529-020000000000"/>
      <resource>
         <MedicationDispense>
            <meta>
               <profile value="http://nictiz.nl/fhir/StructureDefinition/mp612-DispenseToFHIRConversion-AdministrationAgreement"/>
            </meta>
            <text>
               <status value="extensions"/>
               <div xmlns="http://www.w3.org/1999/xhtml">
                  <table>
                     <caption>MedicationDispense. Subject: Richard R. van Henegouwen. Categorie: <span title="Provider medication administration instructions (procedure) (422037009 - SNOMED CT)">Provider medication administration instructions (procedure)</span>
                        <span style="display: block;">Uitvoerende: Organisatie met id '01234567' in identificerend systeem '2.16.528.1.1007.3.3'.</span>
                     </caption>
                     <tbody>
                        <tr>
                           <th>Medicamenteuze behandel-id</th>
                           <td>38129f10-100a-11e5-b939-0800200c9a66 (urn:oid:2.16.840.1.113883.2.4.3.11.999.77.373784005.1)</td>
                        </tr>
                        <tr>
                           <th>Gemaakt</th>
                           <td>${DATE, T, D, +0}</td>
                        </tr>
                        <tr>
                           <th>Medicatie</th>
                           <td>MEBENDAZOL SAN TABLET 100MG</td>
                        </tr>
                        <tr>
                           <th>Doseerinstructie</th>
                           <td>
                              <div>Tekst: Gebruik bekend</div>
                              <div>Instructie: Gebruik bekend</div>
                           </td>
                        </tr>
                     </tbody>
                  </table>
               </div>
            </text>
            <extension url="http://nictiz.nl/fhir/StructureDefinition/zib-AdministrationAgreement-AuthoredOn">
               <valueDateTime value="${DATE, T, D, +0}"/>
            </extension>
            <extension url="http://nictiz.nl/fhir/StructureDefinition/zib-Medication-MedicationTreatment">
               <valueIdentifier>
                  <system value="urn:oid:2.16.840.1.113883.2.4.3.11.999.77.373784005.1"/>
                  <value value="38129f10-100a-11e5-b939-0800200c9a66"/>
               </valueIdentifier>
            </extension>
            <category>
               <coding>
                  <system value="http://snomed.info/sct"/>
                  <code value="422037009"/>
                  <display value="Provider medication administration instructions (procedure)"/>
               </coding>
               <text value="Toedieningsafspraak"/>
            </category>
            <medicationReference>
               <reference value="urn:oid:2.16.840.1.113883.2.4.4.8.14234785"/>
               <display value="MEBENDAZOL SAN TABLET 100MG"/>
            </medicationReference>
            <subject>
               <reference value="urn:uuid:4115482b-3b4c-11ed-9529-020000000000"/>
               <display value="Richard R. van Henegouwen"/>
            </subject>
            <performer>
               <actor>
                  <reference value="urn:oid:2.16.528.1.1007.3.3.1234567"/>
                  <display value="Organisatie met id '01234567' in identificerend systeem '2.16.528.1.1007.3.3'."/>
               </actor>
            </performer>
            <dosageInstruction>
               <text value="Gebruik bekend"/>
               <additionalInstruction>
                  <coding>
                     <system value="http://hl7.org/fhir/v3/NullFlavor"/>
                     <code value="OTH"/>
                     <display value="overig"/>
                  </coding>
                  <text value="Gebruik bekend"/>
               </additionalInstruction>
            </dosageInstruction>
         </MedicationDispense>
      </resource>
      <search>
         <mode value="match"/>
      </search>
   </entry>
   <entry>
      <fullUrl value="urn:uuid:38129f10-100a-11e5-b939-0800200c9a66"/>
      <resource>
         <MedicationDispense>
            <meta>
               <profile value="http://nictiz.nl/fhir/StructureDefinition/mp612-DispenseToFHIRConversion-Dispense"/>
            </meta>
            <text>
               <status value="extensions"/>
               <div xmlns="http://www.w3.org/1999/xhtml">
                  <table>
                     <caption>MedicationDispense. Subject: Richard R. van Henegouwen. Id: 38129f10-100a-11e5-b939-0800200c9a66 (urn:oid:2.16.840.1.113883.2.4.3.11.999.77.373784005.1), Categorie: <span title="Dispensing medication (procedure) (373784005 - SNOMED CT)">Dispensing medication (procedure)</span>
                        <span style="display: block;">Uitvoerende: Organisatie met id '01234567' in identificerend systeem '2.16.528.1.1007.3.3'.</span>
                     </caption>
                     <tbody>
                        <tr>
                           <th>Medicamenteuze behandel-id</th>
                           <td>38129f10-100a-11e5-b939-0800200c9a66 (urn:oid:2.16.840.1.113883.2.4.3.11.999.77.373784005.1)</td>
                        </tr>
                        <tr>
                           <th>Aanvraagdatum</th>
                           <td>${DATE, T, D, +0}</td>
                        </tr>
                        <tr>
                           <th>Medicatie</th>
                           <td>MEBENDAZOL SAN TABLET 100MG</td>
                        </tr>
                        <tr>
                           <th>Hoeveelheid</th>
                           <td>2 Stuk</td>
                        </tr>
                        <tr>
                           <th>Datum overhandigd</th>
                           <td>
                              <i>geen informatie (ontbrekend gegeven)</i>
                           </td>
                        </tr>
                     </tbody>
                  </table>
               </div>
            </text>
            <extension url="http://nictiz.nl/fhir/StructureDefinition/zib-Dispense-RequestDate">
               <valueDateTime value="${DATE, T, D, +0}"/>
            </extension>
            <extension url="http://nictiz.nl/fhir/StructureDefinition/zib-Medication-MedicationTreatment">
               <valueIdentifier>
                  <system value="urn:oid:2.16.840.1.113883.2.4.3.11.999.77.373784005.1"/>
                  <value value="38129f10-100a-11e5-b939-0800200c9a66"/>
               </valueIdentifier>
            </extension>
            <identifier>
               <system value="urn:oid:2.16.840.1.113883.2.4.3.11.999.77.373784005.1"/>
               <value value="38129f10-100a-11e5-b939-0800200c9a66"/>
            </identifier>
            <category>
               <coding>
                  <system value="http://snomed.info/sct"/>
                  <code value="373784005"/>
                  <display value="Dispensing medication (procedure)"/>
               </coding>
               <text value="Medicatieverstrekking"/>
            </category>
            <medicationReference>
               <reference value="urn:oid:2.16.840.1.113883.2.4.4.8.14234785"/>
               <display value="MEBENDAZOL SAN TABLET 100MG"/>
            </medicationReference>
            <subject>
               <reference value="urn:uuid:4115482b-3b4c-11ed-9529-020000000000"/>
               <display value="Richard R. van Henegouwen"/>
            </subject>
            <performer>
               <actor>
                  <reference value="urn:oid:2.16.528.1.1007.3.3.1234567"/>
                  <display value="Organisatie met id '01234567' in identificerend systeem '2.16.528.1.1007.3.3'."/>
               </actor>
            </performer>
            <quantity>
               <value value="2"/>
               <unit value="Stuk"/>
               <system value="urn:oid:2.16.840.1.113883.2.4.4.1.900.2"/>
               <code value="245"/>
            </quantity>
            <whenHandedOver>
               <extension url="http://hl7.org/fhir/StructureDefinition/iso21090-nullFlavor">
                  <valueCode value="NI"/>
               </extension>
            </whenHandedOver>
         </MedicationDispense>
      </resource>
      <search>
         <mode value="match"/>
      </search>
   </entry>
   <entry>
      <fullUrl value="urn:uuid:4115482b-3b4c-11ed-9529-020000000000"/>
      <resource>
         <Patient>
            <meta>
               <profile value="http://nictiz.nl/fhir/StructureDefinition/mp612-DispenseToFHIRConversion-Patient"/>
            </meta>
            <text>
               <status value="extensions"/>
               <div xmlns="http://www.w3.org/1999/xhtml">
                  <div>Id <i>afgeschermd (ontbrekend gegeven)</i> (BSN), Richard R. van Henegouwen, Man, 20 februari 1950</div>
               </div>
            </text>
            <identifier>
               <system value="http://fhir.nl/fhir/NamingSystem/bsn"/>
               <value>
                  <extension url="http://hl7.org/fhir/StructureDefinition/data-absent-reason">
                     <valueCode value="masked"/>
                  </extension>
               </value>
            </identifier>
            <name>
               <extension url="http://hl7.org/fhir/StructureDefinition/humanname-assembly-order">
                  <valueCode value="NL1"/>
               </extension>
               <family value="van Henegouwen">
                  <extension url="http://hl7.org/fhir/StructureDefinition/humanname-own-prefix">
                     <valueString value="van"/>
                  </extension>
                  <extension url="http://hl7.org/fhir/StructureDefinition/humanname-own-name">
                     <valueString value="Henegouwen"/>
                  </extension>
               </family>
               <given value="Richard">
                  <extension url="http://hl7.org/fhir/StructureDefinition/iso21090-EN-qualifier">
                     <valueCode value="BR"/>
                  </extension>
               </given>
               <given value="R.">
                  <extension url="http://hl7.org/fhir/StructureDefinition/iso21090-EN-qualifier">
                     <valueCode value="IN"/>
                  </extension>
               </given>
            </name>
            <gender value="male">
               <extension url="http://nictiz.nl/fhir/StructureDefinition/code-specification">
                  <valueCodeableConcept>
                     <coding>
                        <system value="http://hl7.org/fhir/v3/AdministrativeGender"/>
                        <code value="M"/>
                        <display value="Man"/>
                     </coding>
                  </valueCodeableConcept>
               </extension>
            </gender>
            <birthDate value="1950-02-20"/>
         </Patient>
      </resource>
      <search>
         <mode value="include"/>
      </search>
   </entry>
   <entry>
      <fullUrl value="urn:oid:2.16.528.1.1007.3.3.1234567"/>
      <resource>
         <Organization>
            <meta>
               <profile value="http://nictiz.nl/fhir/StructureDefinition/mp612-DispenseToFHIRConversion-Organization"/>
            </meta>
            <text>
               <status value="extensions"/>
               <div xmlns="http://www.w3.org/1999/xhtml">
                  <table>
                     <caption>Organisatie. Id: 01234567 (URA)</caption>
                     <tbody>
                        <tr>
                           <th>Naam</th>
                           <td/>
                        </tr>
                     </tbody>
                  </table>
               </div>
            </text>
            <identifier>
               <system value="http://fhir.nl/fhir/NamingSystem/ura"/>
               <value value="01234567"/>
            </identifier>
         </Organization>
      </resource>
      <search>
         <mode value="include"/>
      </search>
   </entry>
   <entry>
      <fullUrl value="urn:oid:2.16.840.1.113883.2.4.4.8.14234785"/>
      <resource>
         <Medication>
            <meta>
               <profile value="http://nictiz.nl/fhir/StructureDefinition/mp612-DispenseToFHIRConversion-Product"/>
            </meta>
            <text>
               <status value="extensions"/>
               <div xmlns="http://www.w3.org/1999/xhtml">
                  <table>
                     <tbody>
                        <tr>
                           <th>Code</th>
                           <td>
                              <span title="MEBENDAZOL SAN TABLET 100MG (14234785 - G-Standaard ZI_nummer)">MEBENDAZOL SAN TABLET 100MG</span>
                           </td>
                        </tr>
                     </tbody>
                  </table>
               </div>
            </text>
            <code>
               <coding>
                  <system value="urn:oid:2.16.840.1.113883.2.4.4.8"/>
                  <code value="14234785"/>
                  <display value="MEBENDAZOL SAN TABLET 100MG"/>
                  <userSelected value="true"/>
               </coding>
               <coding>
                  <system value="urn:oid:2.16.840.1.113883.2.4.4.7"/>
                  <code value="1046764"/>
               </coding>
               <coding>
                  <system value="urn:oid:2.16.840.1.113883.2.4.4.1"/>
                  <code value="9954"/>
               </coding>
               <text value="MEBENDAZOL SAN TABLET 100MG"/>
            </code>
         </Medication>
      </resource>
      <search>
         <mode value="include"/>
      </search>
   </entry>
</Bundle>
