<?xml-model href="http://hl7.org/fhir/STU3/bundle.sch" type="application/xml" schematypens="http://purl.oclc.org/dsdl/schematron"?>
<Bundle xsi:schemaLocation="http://hl7.org/fhir http://hl7.org/fhir/STU3/bundle.xsd"
        xmlns:xsi="http://www.w3.org/2001/XMLSchema-instance"
        xmlns="http://hl7.org/fhir">
   <id value="43d7c524-6b67-11ec-0000-020000000000"/>
   <type value="searchset"/>
   <total value="6"/>
   <link>
      <relation value="self"/>
      <url value="http://dummy.nictiz.nl/dummyquery"/>
   </link>
   <entry>
      <fullUrl value="urn:uuid:d16c28d1-6af5-11ec-0000-020000000000"/>
      <resource>
         <MedicationDispense>
            <meta>
               <profile value="http://nictiz.nl/fhir/StructureDefinition/mp612-DispenseToFHIRConversion-AdministrationAgreement"/>
            </meta>
            <text>
               <status value="extensions"/>
               <div xmlns="http://www.w3.org/1999/xhtml">
                  <table>
                     <caption>MedicationDispense. Subject: Hanneke XXX_Bekker. Categorie: 
<span title="Provider medication administration instructions (procedure) (422037009 - SNOMED CT)">Provider medication administration instructions (procedure)</span>
                        <span style="display: block;">Uitvoerende: Organisatie met id '01234567' in identificerend systeem '2.16.528.1.1007.3.3'.</span>
                     </caption>
                     <tbody>
                        <tr>
                           <th>Medicamenteuze behandel-id</th>
                           <td>14606290-2dbd-11e8-b566-0800200c9a66 (urn:oid:2.16.840.1.113883.2.4.3.11.999.77.373784005.1)</td>
                        </tr>
                        <tr>
                           <th>Gemaakt</th>
                           <td>${DATE, T, D, -100}</td>
                        </tr>
                        <tr>
                           <th>Medicatie</th>
                           <td>PARACETAMOL PCH TABLET 500MG</td>
                        </tr>
                        <tr>
                           <th>Doseerinstructie</th>
                           <td>
                              <div>Tekst: zo nodig bij pijn , maximaal 6 stuks per dag</div>
                              <div>Zo nodig: 
<span title="zo nodig bij pijn (1140 - nhg-tabel-25-gebruiksvoorschrift#aanvullend-numeriek)">zo nodig bij pijn</span>
                              </div>
                              <div>Max dosering: 6 stuk / 1 dag (per period)</div>
                           </td>
                        </tr>
                     </tbody>
                  </table>
               </div>
            </text>
            <extension url="http://nictiz.nl/fhir/StructureDefinition/zib-AdministrationAgreement-AuthoredOn">
               <valueDateTime value="${DATE, T, D, -100}"/>
            </extension>
            <extension url="http://nictiz.nl/fhir/StructureDefinition/zib-Medication-MedicationTreatment">
               <valueIdentifier>
                  <system value="urn:oid:2.16.840.1.113883.2.4.3.11.999.77.373784005.1"/>
                  <value value="14606290-2dbd-11e8-b566-0800200c9a66"/>
               </valueIdentifier>
            </extension>
            <category>
               <coding>
                  <system value="http://snomed.info/sct"/>
                  <code value="422037009"/>
                  <display value="Provider medication administration instructions (procedure)"/>
               </coding>
               <text value="Toedieningsafspraak"/>
            </category>
            <medicationReference>
               <reference value="urn:oid:2.16.840.1.113883.2.4.4.8.15401367"/>
               <display value="PARACETAMOL PCH TABLET 500MG"/>
            </medicationReference>
            <subject>
               <reference value="urn:uuid:43202344-6b47-11ec-0000-020000000000"/>
               <display value="Hanneke XXX_Bekker"/>
            </subject>
            <performer>
               <actor>
                  <reference value="urn:oid:2.16.528.1.1007.3.3.1234567"/>
                  <display value="Organisatie met id '01234567' in identificerend systeem '2.16.528.1.1007.3.3'."/>
               </actor>
            </performer>
            <dosageInstruction>
               <text value="zo nodig bij pijn , maximaal 6 stuks per dag"/>
               <asNeededCodeableConcept>
                  <coding>
                     <system value="https://referentiemodel.nhg.org/tabellen/nhg-tabel-25-gebruiksvoorschrift#aanvullend-numeriek"/>
                     <code value="1140"/>
                     <display value="zo nodig bij pijn"/>
                  </coding>
               </asNeededCodeableConcept>
               <maxDosePerPeriod>
                  <numerator>
                     <value value="6"/>
                     <unit value="stuk"/>
                     <system value="urn:oid:2.16.840.1.113883.2.4.4.1.900.2"/>
                     <code value="245"/>
                  </numerator>
                  <denominator>
                     <value value="1"/>
                     <unit value="dag"/>
                     <system value="http://unitsofmeasure.org"/>
                     <code value="d"/>
                  </denominator>
               </maxDosePerPeriod>
            </dosageInstruction>
         </MedicationDispense>
      </resource>
      <search>
         <mode value="match"/>
      </search>
   </entry>
   <entry>
      <fullUrl value="urn:uuid:33671b58-6acd-11ec-0000-020000000000"/>
      <resource>
         <MedicationDispense>
            <meta>
               <profile value="http://nictiz.nl/fhir/StructureDefinition/mp612-DispenseToFHIRConversion-AdministrationAgreement"/>
            </meta>
            <text>
               <status value="extensions"/>
               <div xmlns="http://www.w3.org/1999/xhtml">
                  <table>
                     <caption>MedicationDispense. Subject: Hanneke XXX_Bekker. Categorie: 
<span title="Provider medication administration instructions (procedure) (422037009 - SNOMED CT)">Provider medication administration instructions (procedure)</span>
                        <span style="display: block;">Uitvoerende: Organisatie met id '01234567' in identificerend systeem '2.16.528.1.1007.3.3'.</span>
                     </caption>
                     <tbody>
                        <tr>
                           <th>Medicamenteuze behandel-id</th>
                           <td>13438b70-2dbe-11e8-b566-0800200c9a66 (urn:oid:2.16.840.1.113883.2.4.3.11.999.77.373784005.1)</td>
                        </tr>
                        <tr>
                           <th>Gemaakt</th>
                           <td>${DATE, T, D, -107}</td>
                        </tr>
                        <tr>
                           <th>Medicatie</th>
                           <td>PARACETAMOL PCH TABLET 500MG</td>
                        </tr>
                        <tr>
                           <th>Gebruiksduur</th>
                           <td>7 dag</td>
                        </tr>
                        <tr>
                           <th>Doseerinstructie</th>
                           <td>
                              <div>Tekst: gedurende 7 dagen, 1 maal per 4 uur 1 stuk</div>
                              <div>Timing: 
<div>eenmalig per 4 uren</div>
                              </div>
                              <div>Dosering: 1 stuk</div>
                           </td>
                        </tr>
                     </tbody>
                  </table>
               </div>
            </text>
            <extension url="http://nictiz.nl/fhir/StructureDefinition/zib-AdministrationAgreement-AuthoredOn">
               <valueDateTime value="${DATE, T, D, -107}"/>
            </extension>
            <extension url="http://nictiz.nl/fhir/StructureDefinition/zib-MedicationUse-Duration">
               <valueDuration>
                  <value value="7"/>
                  <unit value="dag"/>
                  <system value="http://unitsofmeasure.org"/>
                  <code value="d"/>
               </valueDuration>
            </extension>
            <extension url="http://nictiz.nl/fhir/StructureDefinition/zib-Medication-MedicationTreatment">
               <valueIdentifier>
                  <system value="urn:oid:2.16.840.1.113883.2.4.3.11.999.77.373784005.1"/>
                  <value value="13438b70-2dbe-11e8-b566-0800200c9a66"/>
               </valueIdentifier>
            </extension>
            <category>
               <coding>
                  <system value="http://snomed.info/sct"/>
                  <code value="422037009"/>
                  <display value="Provider medication administration instructions (procedure)"/>
               </coding>
               <text value="Toedieningsafspraak"/>
            </category>
            <medicationReference>
               <reference value="urn:oid:2.16.840.1.113883.2.4.4.8.15401367"/>
               <display value="PARACETAMOL PCH TABLET 500MG"/>
            </medicationReference>
            <subject>
               <reference value="urn:uuid:43202344-6b47-11ec-0000-020000000000"/>
               <display value="Hanneke XXX_Bekker"/>
            </subject>
            <performer>
               <actor>
                  <reference value="urn:oid:2.16.528.1.1007.3.3.1234567"/>
                  <display value="Organisatie met id '01234567' in identificerend systeem '2.16.528.1.1007.3.3'."/>
               </actor>
            </performer>
            <dosageInstruction>
               <text value="gedurende 7 dagen, 1 maal per 4 uur 1 stuk"/>
               <timing>
                  <repeat>
                     <frequency value="1"/>
                     <period value="4"/>
                     <periodUnit value="h"/>
                  </repeat>
               </timing>
               <doseQuantity>
                  <value value="1"/>
                  <unit value="stuk"/>
                  <system value="urn:oid:2.16.840.1.113883.2.4.4.1.900.2"/>
                  <code value="245"/>
               </doseQuantity>
            </dosageInstruction>
         </MedicationDispense>
      </resource>
      <search>
         <mode value="match"/>
      </search>
   </entry>
   <entry>
      <fullUrl value="urn:uuid:f0820d3c-6ad9-11ec-0000-020000000000"/>
      <resource>
         <MedicationDispense>
            <meta>
               <profile value="http://nictiz.nl/fhir/StructureDefinition/mp612-DispenseToFHIRConversion-AdministrationAgreement"/>
            </meta>
            <text>
               <status value="extensions"/>
               <div xmlns="http://www.w3.org/1999/xhtml">
                  <table>
                     <caption>MedicationDispense. Subject: Hanneke XXX_Bekker. Categorie: 
<span title="Provider medication administration instructions (procedure) (422037009 - SNOMED CT)">Provider medication administration instructions (procedure)</span>
                        <span style="display: block;">Uitvoerende: Organisatie met id '01234567' in identificerend systeem '2.16.528.1.1007.3.3'.</span>
                     </caption>
                     <tbody>
                        <tr>
                           <th>Medicamenteuze behandel-id</th>
                           <td>a083ca80-5772-11e8-b566-0800200c9a66 (urn:oid:2.16.840.1.113883.2.4.3.11.999.77.373784005.1)</td>
                        </tr>
                        <tr>
                           <th>Gemaakt</th>
                           <td>${DATE, T, D, +0}</td>
                        </tr>
                        <tr>
                           <th>Medicatie</th>
                           <td>Ureum 10% in eucerine cum aqua</td>
                        </tr>
                        <tr>
                           <th>Doseerinstructie</th>
                           <td>
                              <div>Tekst: zo nodig</div>
                              <div>Zo nodig: 
<span title="zo nodig (1137 - nhg-tabel-25-gebruiksvoorschrift#aanvullend-numeriek)">zo nodig</span>
                              </div>
                           </td>
                        </tr>
                     </tbody>
                  </table>
               </div>
            </text>
            <extension url="http://nictiz.nl/fhir/StructureDefinition/zib-AdministrationAgreement-AuthoredOn">
               <valueDateTime value="${DATE, T, D, +0}"/>
            </extension>
            <extension url="http://nictiz.nl/fhir/StructureDefinition/zib-Medication-MedicationTreatment">
               <valueIdentifier>
                  <system value="urn:oid:2.16.840.1.113883.2.4.3.11.999.77.373784005.1"/>
                  <value value="a083ca80-5772-11e8-b566-0800200c9a66"/>
               </valueIdentifier>
            </extension>
            <category>
               <coding>
                  <system value="http://snomed.info/sct"/>
                  <code value="422037009"/>
                  <display value="Provider medication administration instructions (procedure)"/>
               </coding>
               <text value="Toedieningsafspraak"/>
            </category>
            <medicationReference>
               <reference value="urn:uuid:cd8bd173-6b26-11ec-0000-020000000000"/>
               <display value="Ureum 10% in eucerine cum aqua"/>
            </medicationReference>
            <subject>
               <reference value="urn:uuid:43202344-6b47-11ec-0000-020000000000"/>
               <display value="Hanneke XXX_Bekker"/>
            </subject>
            <performer>
               <actor>
                  <reference value="urn:oid:2.16.528.1.1007.3.3.1234567"/>
                  <display value="Organisatie met id '01234567' in identificerend systeem '2.16.528.1.1007.3.3'."/>
               </actor>
            </performer>
            <dosageInstruction>
               <text value="zo nodig"/>
               <asNeededCodeableConcept>
                  <coding>
                     <system value="https://referentiemodel.nhg.org/tabellen/nhg-tabel-25-gebruiksvoorschrift#aanvullend-numeriek"/>
                     <code value="1137"/>
                     <display value="zo nodig"/>
                  </coding>
               </asNeededCodeableConcept>
            </dosageInstruction>
         </MedicationDispense>
      </resource>
      <search>
         <mode value="match"/>
      </search>
   </entry>
   <entry>
      <fullUrl value="urn:uuid:14606290-2dbd-11e8-b566-0800200c9a66"/>
      <resource>
         <MedicationDispense>
            <meta>
               <profile value="http://nictiz.nl/fhir/StructureDefinition/mp612-DispenseToFHIRConversion-Dispense"/>
            </meta>
            <text>
               <status value="extensions"/>
               <div xmlns="http://www.w3.org/1999/xhtml">
                  <table>
                     <caption>MedicationDispense. Subject: Hanneke XXX_Bekker. Id: 14606290-2dbd-11e8-b566-0800200c9a66 (urn:oid:2.16.840.1.113883.2.4.3.11.999.77.373784005.1), Categorie: 
<span title="Dispensing medication (procedure) (373784005 - SNOMED CT)">Dispensing medication (procedure)</span>
                        <span style="display: block;">Uitvoerende: Organisatie met id '01234567' in identificerend systeem '2.16.528.1.1007.3.3'.</span>
                     </caption>
                     <tbody>
                        <tr>
                           <th>Medicamenteuze behandel-id</th>
                           <td>14606290-2dbd-11e8-b566-0800200c9a66 (urn:oid:2.16.840.1.113883.2.4.3.11.999.77.373784005.1)</td>
                        </tr>
                        <tr>
                           <th>Aanvraagdatum</th>
                           <td>${DATE, T, D, -100}</td>
                        </tr>
                        <tr>
                           <th>Medicatie</th>
                           <td>PARACETAMOL PCH TABLET 500MG</td>
                        </tr>
                        <tr>
                           <th>Hoeveelheid</th>
                           <td>20 stuk</td>
                        </tr>
                        <tr>
                           <th>Datum overhandigd</th>
                           <td>
                              <i>geen informatie (ontbrekend gegeven)</i>
                           </td>
                        </tr>
                     </tbody>
                  </table>
               </div>
            </text>
            <extension url="http://nictiz.nl/fhir/StructureDefinition/zib-Dispense-RequestDate">
               <valueDateTime value="${DATE, T, D, -100}"/>
            </extension>
            <extension url="http://nictiz.nl/fhir/StructureDefinition/zib-Medication-MedicationTreatment">
               <valueIdentifier>
                  <system value="urn:oid:2.16.840.1.113883.2.4.3.11.999.77.373784005.1"/>
                  <value value="14606290-2dbd-11e8-b566-0800200c9a66"/>
               </valueIdentifier>
            </extension>
            <identifier>
               <system value="urn:oid:2.16.840.1.113883.2.4.3.11.999.77.373784005.1"/>
               <value value="14606290-2dbd-11e8-b566-0800200c9a66"/>
            </identifier>
            <category>
               <coding>
                  <system value="http://snomed.info/sct"/>
                  <code value="373784005"/>
                  <display value="Dispensing medication (procedure)"/>
               </coding>
               <text value="Medicatieverstrekking"/>
            </category>
            <medicationReference>
               <reference value="urn:oid:2.16.840.1.113883.2.4.4.8.15401367"/>
               <display value="PARACETAMOL PCH TABLET 500MG"/>
            </medicationReference>
            <subject>
               <reference value="urn:uuid:43202344-6b47-11ec-0000-020000000000"/>
               <display value="Hanneke XXX_Bekker"/>
            </subject>
            <performer>
               <actor>
                  <reference value="urn:oid:2.16.528.1.1007.3.3.1234567"/>
                  <display value="Organisatie met id '01234567' in identificerend systeem '2.16.528.1.1007.3.3'."/>
               </actor>
            </performer>
            <quantity>
               <value value="20"/>
               <unit value="stuk"/>
               <system value="urn:oid:2.16.840.1.113883.2.4.4.1.900.2"/>
               <code value="245"/>
            </quantity>
            <whenHandedOver>
               <extension url="http://hl7.org/fhir/StructureDefinition/iso21090-nullFlavor">
                  <valueCode value="NI"/>
               </extension>
            </whenHandedOver>
         </MedicationDispense>
      </resource>
      <search>
         <mode value="match"/>
      </search>
   </entry>
   <entry>
      <fullUrl value="urn:uuid:13438b70-2dbe-11e8-b566-0800200c9a66"/>
      <resource>
         <MedicationDispense>
            <meta>
               <profile value="http://nictiz.nl/fhir/StructureDefinition/mp612-DispenseToFHIRConversion-Dispense"/>
            </meta>
            <text>
               <status value="extensions"/>
               <div xmlns="http://www.w3.org/1999/xhtml">
                  <table>
                     <caption>MedicationDispense. Subject: Hanneke XXX_Bekker. Id: 13438b70-2dbe-11e8-b566-0800200c9a66 (urn:oid:2.16.840.1.113883.2.4.3.11.999.77.373784005.1), Categorie: 
<span title="Dispensing medication (procedure) (373784005 - SNOMED CT)">Dispensing medication (procedure)</span>
                        <span style="display: block;">Uitvoerende: Organisatie met id '01234567' in identificerend systeem '2.16.528.1.1007.3.3'.</span>
                     </caption>
                     <tbody>
                        <tr>
                           <th>Medicamenteuze behandel-id</th>
                           <td>13438b70-2dbe-11e8-b566-0800200c9a66 (urn:oid:2.16.840.1.113883.2.4.3.11.999.77.373784005.1)</td>
                        </tr>
                        <tr>
                           <th>Aanvraagdatum</th>
                           <td>${DATE, T, D, -107}</td>
                        </tr>
                        <tr>
                           <th>Medicatie</th>
                           <td>PARACETAMOL PCH TABLET 500MG</td>
                        </tr>
                        <tr>
                           <th>Hoeveelheid</th>
                           <td>40 stuk</td>
                        </tr>
                        <tr>
                           <th>Datum overhandigd</th>
                           <td>
                              <i>geen informatie (ontbrekend gegeven)</i>
                           </td>
                        </tr>
                     </tbody>
                  </table>
               </div>
            </text>
            <extension url="http://nictiz.nl/fhir/StructureDefinition/zib-Dispense-RequestDate">
               <valueDateTime value="${DATE, T, D, -107}"/>
            </extension>
            <extension url="http://nictiz.nl/fhir/StructureDefinition/zib-Medication-MedicationTreatment">
               <valueIdentifier>
                  <system value="urn:oid:2.16.840.1.113883.2.4.3.11.999.77.373784005.1"/>
                  <value value="13438b70-2dbe-11e8-b566-0800200c9a66"/>
               </valueIdentifier>
            </extension>
            <identifier>
               <system value="urn:oid:2.16.840.1.113883.2.4.3.11.999.77.373784005.1"/>
               <value value="13438b70-2dbe-11e8-b566-0800200c9a66"/>
            </identifier>
            <category>
               <coding>
                  <system value="http://snomed.info/sct"/>
                  <code value="373784005"/>
                  <display value="Dispensing medication (procedure)"/>
               </coding>
               <text value="Medicatieverstrekking"/>
            </category>
            <medicationReference>
               <reference value="urn:oid:2.16.840.1.113883.2.4.4.8.15401367"/>
               <display value="PARACETAMOL PCH TABLET 500MG"/>
            </medicationReference>
            <subject>
               <reference value="urn:uuid:43202344-6b47-11ec-0000-020000000000"/>
               <display value="Hanneke XXX_Bekker"/>
            </subject>
            <performer>
               <actor>
                  <reference value="urn:oid:2.16.528.1.1007.3.3.1234567"/>
                  <display value="Organisatie met id '01234567' in identificerend systeem '2.16.528.1.1007.3.3'."/>
               </actor>
            </performer>
            <quantity>
               <value value="40"/>
               <unit value="stuk"/>
               <system value="urn:oid:2.16.840.1.113883.2.4.4.1.900.2"/>
               <code value="245"/>
            </quantity>
            <whenHandedOver>
               <extension url="http://hl7.org/fhir/StructureDefinition/iso21090-nullFlavor">
                  <valueCode value="NI"/>
               </extension>
            </whenHandedOver>
         </MedicationDispense>
      </resource>
      <search>
         <mode value="match"/>
      </search>
   </entry>
   <entry>
      <fullUrl value="urn:uuid:a083ca80-5772-11e8-b566-0800200c9a66"/>
      <resource>
         <MedicationDispense>
            <meta>
               <profile value="http://nictiz.nl/fhir/StructureDefinition/mp612-DispenseToFHIRConversion-Dispense"/>
            </meta>
            <text>
               <status value="extensions"/>
               <div xmlns="http://www.w3.org/1999/xhtml">
                  <table>
                     <caption>MedicationDispense. Subject: Hanneke XXX_Bekker. Id: a083ca80-5772-11e8-b566-0800200c9a66 (urn:oid:2.16.840.1.113883.2.4.3.11.999.77.373784005.1), Categorie: 
<span title="Dispensing medication (procedure) (373784005 - SNOMED CT)">Dispensing medication (procedure)</span>
                        <span style="display: block;">Uitvoerende: Organisatie met id '01234567' in identificerend systeem '2.16.528.1.1007.3.3'.</span>
                     </caption>
                     <tbody>
                        <tr>
                           <th>Medicamenteuze behandel-id</th>
                           <td>a083ca80-5772-11e8-b566-0800200c9a66 (urn:oid:2.16.840.1.113883.2.4.3.11.999.77.373784005.1)</td>
                        </tr>
                        <tr>
                           <th>Aanvraagdatum</th>
                           <td>${DATE, T, D, +0}</td>
                        </tr>
                        <tr>
                           <th>Medicatie</th>
                           <td>Ureum 10% in eucerine cum aqua</td>
                        </tr>
                        <tr>
                           <th>Hoeveelheid</th>
                           <td>100 gram</td>
                        </tr>
                        <tr>
                           <th>Datum overhandigd</th>
                           <td>
                              <i>geen informatie (ontbrekend gegeven)</i>
                           </td>
                        </tr>
                     </tbody>
                  </table>
               </div>
            </text>
            <extension url="http://nictiz.nl/fhir/StructureDefinition/zib-Dispense-RequestDate">
               <valueDateTime value="${DATE, T, D, +0}"/>
            </extension>
            <extension url="http://nictiz.nl/fhir/StructureDefinition/zib-Medication-MedicationTreatment">
               <valueIdentifier>
                  <system value="urn:oid:2.16.840.1.113883.2.4.3.11.999.77.373784005.1"/>
                  <value value="a083ca80-5772-11e8-b566-0800200c9a66"/>
               </valueIdentifier>
            </extension>
            <identifier>
               <system value="urn:oid:2.16.840.1.113883.2.4.3.11.999.77.373784005.1"/>
               <value value="a083ca80-5772-11e8-b566-0800200c9a66"/>
            </identifier>
            <category>
               <coding>
                  <system value="http://snomed.info/sct"/>
                  <code value="373784005"/>
                  <display value="Dispensing medication (procedure)"/>
               </coding>
               <text value="Medicatieverstrekking"/>
            </category>
            <medicationReference>
               <reference value="urn:uuid:cd8bd173-6b26-11ec-0000-020000000000"/>
               <display value="Ureum 10% in eucerine cum aqua"/>
            </medicationReference>
            <subject>
               <reference value="urn:uuid:43202344-6b47-11ec-0000-020000000000"/>
               <display value="Hanneke XXX_Bekker"/>
            </subject>
            <performer>
               <actor>
                  <reference value="urn:oid:2.16.528.1.1007.3.3.1234567"/>
                  <display value="Organisatie met id '01234567' in identificerend systeem '2.16.528.1.1007.3.3'."/>
               </actor>
            </performer>
            <quantity>
               <value value="100"/>
               <unit value="gram"/>
               <system value="urn:oid:2.16.840.1.113883.2.4.4.1.900.2"/>
               <code value="215"/>
            </quantity>
            <whenHandedOver>
               <extension url="http://hl7.org/fhir/StructureDefinition/iso21090-nullFlavor">
                  <valueCode value="NI"/>
               </extension>
            </whenHandedOver>
         </MedicationDispense>
      </resource>
      <search>
         <mode value="match"/>
      </search>
   </entry>
   <entry>
      <fullUrl value="urn:uuid:43202344-6b47-11ec-0000-020000000000"/>
      <resource>
         <Patient>
            <meta>
               <profile value="http://nictiz.nl/fhir/StructureDefinition/mp612-DispenseToFHIRConversion-Patient"/>
            </meta>
            <text>
               <status value="extensions"/>
               <div xmlns="http://www.w3.org/1999/xhtml">
                  <div>Id 
<i>afgeschermd (ontbrekend gegeven)</i> (BSN), 
<span title="Naamsamenstelling: Eigennaam">XXX_Bekker</span> (Hanneke), Vrouw, 2 augustus 1964</div>
               </div>
            </text>
            <identifier>
               <system value="http://fhir.nl/fhir/NamingSystem/bsn"/>
               <value>
                  <extension url="http://hl7.org/fhir/StructureDefinition/data-absent-reason">
                     <valueCode value="masked"/>
                  </extension>
               </value>
            </identifier>
            <name>
               <extension url="http://hl7.org/fhir/StructureDefinition/humanname-assembly-order">
                  <valueCode value="NL1"/>
               </extension>
               <family value="XXX_Bekker">
                  <extension url="http://hl7.org/fhir/StructureDefinition/humanname-own-name">
                     <valueString value="XXX_Bekker"/>
                  </extension>
               </family>
               <given value="Hanneke">
                  <extension url="http://hl7.org/fhir/StructureDefinition/iso21090-EN-qualifier">
                     <valueCode value="CL"/>
                  </extension>
               </given>
            </name>
            <gender value="female">
               <extension url="http://nictiz.nl/fhir/StructureDefinition/code-specification">
                  <valueCodeableConcept>
                     <coding>
                        <system value="http://hl7.org/fhir/v3/AdministrativeGender"/>
                        <code value="F"/>
                        <display value="Vrouw"/>
                     </coding>
                  </valueCodeableConcept>
               </extension>
            </gender>
            <birthDate value="1964-08-02"/>
         </Patient>
      </resource>
      <search>
         <mode value="include"/>
      </search>
   </entry>
   <entry>
      <fullUrl value="urn:oid:2.16.528.1.1007.3.3.1234567"/>
      <resource>
         <Organization>
            <meta>
               <profile value="http://nictiz.nl/fhir/StructureDefinition/mp612-DispenseToFHIRConversion-Organization"/>
            </meta>
            <text>
               <status value="extensions"/>
               <div xmlns="http://www.w3.org/1999/xhtml">
                  <table>
                     <caption>Organisatie. Id: 01234567 (URA)</caption>
                     <tbody>
                        <tr>
                           <th>Naam</th>
                           <td/>
                        </tr>
                     </tbody>
                  </table>
               </div>
            </text>
            <identifier>
               <system value="http://fhir.nl/fhir/NamingSystem/ura"/>
               <value value="01234567"/>
            </identifier>
         </Organization>
      </resource>
      <search>
         <mode value="include"/>
      </search>
   </entry>
   <entry>
      <fullUrl value="urn:oid:2.16.840.1.113883.2.4.4.8.15401367"/>
      <resource>
         <Medication>
            <meta>
               <profile value="http://nictiz.nl/fhir/StructureDefinition/mp612-DispenseToFHIRConversion-Product"/>
            </meta>
            <text>
               <status value="extensions"/>
               <div xmlns="http://www.w3.org/1999/xhtml">
                  <table>
                     <tbody>
                        <tr>
                           <th>Code</th>
                           <td>
                              <span title="PARACETAMOL PCH TABLET 500MG (15401367 - G-Standaard ZI_nummer)">PARACETAMOL PCH TABLET 500MG</span>
                           </td>
                        </tr>
                     </tbody>
                  </table>
               </div>
            </text>
            <code>
               <coding>
                  <system value="urn:oid:2.16.840.1.113883.2.4.4.8"/>
                  <code value="15401367"/>
                  <display value="PARACETAMOL PCH TABLET 500MG"/>
                  <userSelected value="true"/>
               </coding>
               <text value="PARACETAMOL PCH TABLET 500MG"/>
            </code>
         </Medication>
      </resource>
      <search>
         <mode value="include"/>
      </search>
   </entry>
   <entry>
      <fullUrl value="urn:uuid:cd8bd173-6b26-11ec-0000-020000000000"/>
      <resource>
         <Medication>
            <meta>
               <profile value="http://nictiz.nl/fhir/StructureDefinition/mp612-DispenseToFHIRConversion-Product"/>
            </meta>
            <text>
               <status value="extensions"/>
               <div xmlns="http://www.w3.org/1999/xhtml">
                  <table>
                     <tbody>
                        <tr>
                           <th>Code</th>
                           <td>Ureum 10% in eucerine cum aqua</td>
                           <th>Ingredients</th>
                           <td>
                              <ul>
                                 <li>
                                    <span title="UREUM (15219127 - G-Standaard ZI_nummer)">UREUM</span>
                                 </li>
                                 <li>
                                    <span title="EUCERINE MET WATER FAGRON (14740877 - G-Standaard ZI_nummer)">EUCERINE MET WATER FAGRON</span>
                                 </li>
                              </ul>
                           </td>
                        </tr>
                     </tbody>
                  </table>
               </div>
            </text>
            <extension url="http://nictiz.nl/fhir/StructureDefinition/zib-Product-Description">
               <valueString value="Titel: Ureum 10% in eucerine cum aqua&#xA;Regel: Ureum 10 gr &#xA;&#xA;Regel: Eucerine met water creme FNA ad 100g."/>
            </extension>
            <code>
               <extension url="http://hl7.org/fhir/StructureDefinition/iso21090-nullFlavor">
                  <valueCode value="OTH"/>
               </extension>
               <text value="Ureum 10% in eucerine cum aqua"/>
            </code>
            <ingredient>
               <itemCodeableConcept>
                  <coding>
                     <system value="urn:oid:2.16.840.1.113883.2.4.4.8"/>
                     <code value="15219127"/>
                     <display value="UREUM"/>
                  </coding>
               </itemCodeableConcept>
               <amount>
                  <numerator>
                     <value value="10"/>
                     <unit value="gram"/>
                     <system value="urn:oid:2.16.840.1.113883.2.4.4.1.900.2"/>
                     <code value="215"/>
                  </numerator>
                  <denominator>
                     <value value="100"/>
                     <unit value="gram"/>
                     <system value="urn:oid:2.16.840.1.113883.2.4.4.1.900.2"/>
                     <code value="215"/>
                  </denominator>
               </amount>
            </ingredient>
            <ingredient>
               <itemCodeableConcept>
                  <coding>
                     <system value="urn:oid:2.16.840.1.113883.2.4.4.8"/>
                     <code value="14740877"/>
                     <display value="EUCERINE MET WATER FAGRON"/>
                  </coding>
               </itemCodeableConcept>
               <amount>
                  <numerator>
                     <extension url="http://hl7.org/fhir/StructureDefinition/iso21090-nullFlavor">
                        <valueCode value="QS"/>
                     </extension>
                  </numerator>
                  <denominator>
                     <value value="100"/>
                     <unit value="gram"/>
                     <system value="urn:oid:2.16.840.1.113883.2.4.4.1.900.2"/>
                     <code value="215"/>
                  </denominator>
               </amount>
            </ingredient>
         </Medication>
      </resource>
      <search>
         <mode value="include"/>
      </search>
   </entry>
</Bundle>