<Bundle xmlns="http://hl7.org/fhir">
   <id value="5f1fbced-063b-11ef-4368-020000000000"/>
   <type value="searchset"/>
   <total value="5"/>
   <entry>
      <fullUrl value="urn:uuid:5f1fbe4a-063b-11ef-4368-020000000000"/>
      <resource>
         <MedicationRequest>
            <meta>
               <profile value="http://nictiz.nl/fhir/StructureDefinition/mp-MedicationAgreement"/>
            </meta>
            <extension url="http://nictiz.nl/fhir/StructureDefinition/ext-RegistrationDateTime">
               <valueDateTime value="2022-12-27T08:15:00+01:00"/>
            </extension>
            <extension url="http://nictiz.nl/fhir/StructureDefinition/ext-MedicationAgreement.MedicationAgreementAdditionalInformation">
               <valueCodeableConcept>
                  <coding>
                     <system value="urn:oid:2.16.840.1.113883.2.4.3.11.60.20.77.5.2.14.2050"/>
                     <code value="3"/>
                     <display value="Bewust afwijkende toedieningsweg"/>
                  </coding>
               </valueCodeableConcept>
            </extension>
            <extension url="http://nictiz.nl/fhir/StructureDefinition/ext-RenderedDosageInstruction">
               <valueString value="Vanaf &lt;T-5D{08:15:00}&gt; t/m &lt;T+15D{09:15:00}&gt;, zo nodig 1-2 doses onder de tong max. 3 opeenvolgende doses, oromucosaal"/>
            </extension>
            <extension url="http://nictiz.nl/fhir/StructureDefinition/ext-TimeInterval.Period">
               <valuePeriod>
                  <start value="2022-12-27T00:00:00+01:00"/>
                  <end value="2023-01-16T23:59:00+01:00"/>
               </valuePeriod>
            </extension>
            <extension url="http://nictiz.nl/fhir/StructureDefinition/ext-PharmaceuticalTreatment.Identifier">
               <valueIdentifier>
                  <system value="urn:oid:2.16.840.1.113883.2.4.3.11.999.77.1.1"/>
                  <value value="MBH_300_script3"/>
               </valueIdentifier>
            </extension>
            <identifier>
               <system value="urn:oid:2.16.840.1.113883.2.4.3.11.999.77.16076005.1"/>
               <value value="MBH_300_script3_MA"/>
            </identifier>
            <status value="unknown"/>
            <intent value="order"/>
            <category>
               <coding>
                  <system value="http://snomed.info/sct"/>
                  <code value="33633005"/>
                  <display value="voorschrijven van geneesmiddel"/>
               </coding>
            </category>
            <medicationReference>
               <reference value="urn:uuid:5f1fbee0-063b-11ef-4368-020000000000"/>
               <type value="Medication"/>
               <display value="NITROGLYCERINE SPRAY SUBLING. 0,4MG/DO FL 250DO"/>
            </medicationReference>
            <subject>
               <reference value="urn:uuid:5f1fbd1e-063b-11ef-4368-020000000000"/>
               <type value="Patient"/>
               <display value="Patient, H. van de XXX_Kamphuis"/>
            </subject>
            <requester>
               <reference value="urn:uuid:5f1fbd46-063b-11ef-4368-020000000000"/>
               <type value="PractitionerRole"/>
               <display value="Healthcare professional (role), Bertine van Doorn, Huisartsen, niet nader gespecificeerd, Huisartsenpraktijk Pulver &amp; Partners"/>
            </requester>
            <dosageInstruction>
               <additionalInstruction>
                  <coding>
                     <system value="http://terminology.hl7.org/CodeSystem/v3-NullFlavor"/>
                     <code value="OTH"/>
                     <display value="overig"/>
                  </coding>
                  <text value="1-2 doses onder de tong, na 5-10 min herhalen, max. 3 opeenvolgende doses. . Bij onvoldoende effect na in totaal 3 doses direct contact opnemen met een arts."/>
               </additionalInstruction>
               <asNeededCodeableConcept>
                  <coding>
                     <system value="https://referentiemodel.nhg.org/tabellen/nhg-tabel-25-gebruiksvoorschrift#aanvullend-numeriek"/>
                     <code value="1028"/>
                     <display value="Bij pijn"/>
                  </coding>
               </asNeededCodeableConcept>
               <route>
                  <coding>
                     <system value="urn:oid:2.16.840.1.113883.2.4.4.9"/>
                     <code value="34"/>
                     <display value="oromucosaal"/>
                  </coding>
               </route>
               <doseAndRate>
                  <doseRange>
                     <low>
                        <extension url="http://hl7.org/fhir/StructureDefinition/iso21090-PQ-translation">
                           <valueQuantity>
                              <value value="1"/>
                              <unit value="dosis"/>
                              <system value="urn:oid:2.16.840.1.113883.2.4.4.1.900.2"/>
                              <code value="208"/>
                           </valueQuantity>
                        </extension>
                        <value value="1"/>
                        <unit value="dosis"/>
                        <system value="http://unitsofmeasure.org"/>
                        <code value="1"/>
                     </low>
                     <high>
                        <extension url="http://hl7.org/fhir/StructureDefinition/iso21090-PQ-translation">
                           <valueQuantity>
                              <value value="2"/>
                              <unit value="dosis"/>
                              <system value="urn:oid:2.16.840.1.113883.2.4.4.1.900.2"/>
                              <code value="208"/>
                           </valueQuantity>
                        </extension>
                        <value value="2"/>
                        <unit value="dosis"/>
                        <system value="http://unitsofmeasure.org"/>
                        <code value="1"/>
                     </high>
                  </doseRange>
               </doseAndRate>
               <maxDosePerPeriod>
                  <numerator>
                     <extension url="http://hl7.org/fhir/StructureDefinition/iso21090-PQ-translation">
                        <valueQuantity>
                           <value value="3"/>
                           <unit value="dosis"/>
                           <system value="urn:oid:2.16.840.1.113883.2.4.4.1.900.2"/>
                           <code value="208"/>
                        </valueQuantity>
                     </extension>
                     <value value="3"/>
                     <unit value="dosis"/>
                     <system value="http://unitsofmeasure.org"/>
                     <code value="1"/>
                  </numerator>
                  <denominator>
                     <value value="1"/>
                     <unit value="dag"/>
                     <system value="http://unitsofmeasure.org"/>
                     <code value="d"/>
                  </denominator>
               </maxDosePerPeriod>
            </dosageInstruction>
         </MedicationRequest>
      </resource>
      <search>
         <mode value="match"/>
      </search>
   </entry>
   <entry>
      <fullUrl value="urn:uuid:5f1fbe68-063b-11ef-4368-020000000000"/>
      <resource>
         <MedicationRequest>
            <meta>
               <profile value="http://nictiz.nl/fhir/StructureDefinition/mp-DispenseRequest"/>
            </meta>
            <extension url="http://nictiz.nl/fhir/StructureDefinition/ext-PharmaceuticalTreatment.Identifier">
               <valueIdentifier>
                  <system value="urn:oid:2.16.840.1.113883.2.4.3.11.999.77.1.1"/>
                  <value value="MBH_300_script3"/>
               </valueIdentifier>
            </extension>
            <identifier>
               <system value="urn:oid:2.16.840.1.113883.2.4.3.11.999.77.52711000146108.1"/>
               <value value="MBH_300_script3_VV"/>
            </identifier>
            <status value="unknown"/>
            <intent value="order"/>
            <category>
               <coding>
                  <system value="http://snomed.info/sct"/>
                  <code value="52711000146108"/>
                  <display value="verstrekkingsverzoek"/>
               </coding>
            </category>
            <medicationReference>
               <reference value="urn:uuid:5f1fbee0-063b-11ef-4368-020000000000"/>
               <type value="Medication"/>
               <display value="NITROGLYCERINE SPRAY SUBLING. 0,4MG/DO FL 250DO"/>
            </medicationReference>
            <subject>
               <reference value="urn:uuid:5f1fbd1e-063b-11ef-4368-020000000000"/>
               <type value="Patient"/>
               <display value="Patient, H. van de XXX_Kamphuis"/>
            </subject>
            <authoredOn value="2022-12-27T08:15:00+01:00"/>
            <requester>
               <reference value="urn:uuid:5f1fbd46-063b-11ef-4368-020000000000"/>
               <type value="PractitionerRole"/>
               <display value="Healthcare professional (role), Bertine van Doorn, Huisartsen, niet nader gespecificeerd, Huisartsenpraktijk Pulver &amp; Partners"/>
            </requester>
            <performer>
               <reference value="urn:uuid:5f1fbe0e-063b-11ef-4368-020000000000"/>
               <type value="Organization"/>
               <display value="Healthcare provider (organization), Apotheek De Gulle Gaper"/>
            </performer>
            <basedOn>
               <type value="MedicationRequest"/>
               <identifier>
                  <system value="urn:oid:2.16.840.1.113883.2.4.3.11.999.77.16076005.1"/>
                  <value value="MBH_300_script3_MA"/>
               </identifier>
               <display value="relatie naar medicatieafspraak  met identificatie: MBH_300_script3_MA || 2.16.840.1.113883.2.4.3.11.999.77.16076005.1"/>
            </basedOn>
            <dispenseRequest>
               <quantity>
                  <extension url="http://hl7.org/fhir/StructureDefinition/iso21090-PQ-translation">
                     <valueQuantity>
                        <value value="1"/>
                        <unit value="stuk"/>
                        <system value="urn:oid:2.16.840.1.113883.2.4.4.1.900.2"/>
                        <code value="245"/>
                     </valueQuantity>
                  </extension>
                  <value value="1"/>
                  <unit value="stuk"/>
                  <system value="http://unitsofmeasure.org"/>
                  <code value="1"/>
               </quantity>
            </dispenseRequest>
         </MedicationRequest>
      </resource>
      <search>
         <mode value="match"/>
      </search>
   </entry>
   <entry>
      <fullUrl value="urn:uuid:5f1fbe86-063b-11ef-4368-020000000000"/>
      <resource>
         <MedicationDispense>
            <meta>
               <profile value="http://nictiz.nl/fhir/StructureDefinition/mp-AdministrationAgreement"/>
            </meta>
            <extension url="http://nictiz.nl/fhir/StructureDefinition/ext-RegistrationDateTime">
               <valueDateTime value="2022-12-27T09:15:00+01:00"/>
            </extension>
            <extension url="http://nictiz.nl/fhir/StructureDefinition/ext-RenderedDosageInstruction">
               <valueString value="Vanaf &lt;T-5D{08:15:00}&gt; t/m &lt;T+20D{09:15:00}&gt;, zo nodig 1-2 doses onder de tong max. 3 opeenvolgende doses, oromucosaal"/>
            </extension>
            <extension url="http://nictiz.nl/fhir/StructureDefinition/ext-TimeInterval.Period">
               <valuePeriod>
                  <start value="2022-12-27T00:00:00+01:00"/>
                  <end value="2023-01-16T23:59:00+01:00"/>
               </valuePeriod>
            </extension>
            <extension url="http://nictiz.nl/fhir/StructureDefinition/ext-PharmaceuticalTreatment.Identifier">
               <valueIdentifier>
                  <system value="urn:oid:2.16.840.1.113883.2.4.3.11.999.77.1.1"/>
                  <value value="MBH_300_script3"/>
               </valueIdentifier>
            </extension>
            <identifier>
               <system value="urn:oid:2.16.840.1.113883.2.4.3.11.999.77.422037009.1"/>
               <value value="MBH_300_script3_TA"/>
            </identifier>
            <status value="unknown"/>
            <category>
               <coding>
                  <system value="http://snomed.info/sct"/>
                  <code value="422037009"/>
                  <display value="toedieningsafspraak"/>
               </coding>
            </category>
            <medicationReference>
               <reference value="urn:uuid:5f1fbefe-063b-11ef-4368-020000000000"/>
               <type value="Medication"/>
               <display value="NITROLINGUAL OROMUCOSALE SPRAY 0,4MG/DO FLAC 250DO"/>
            </medicationReference>
            <subject>
               <reference value="urn:uuid:5f1fbd1e-063b-11ef-4368-020000000000"/>
               <type value="Patient"/>
               <display value="Patient, H. van de XXX_Kamphuis"/>
            </subject>
            <performer>
               <actor>
                  <reference value="urn:uuid:5f1fbe0e-063b-11ef-4368-020000000000"/>
                  <type value="Organization"/>
                  <display value="Healthcare provider (organization), Apotheek De Gulle Gaper"/>
               </actor>
            </performer>
            <authorizingPrescription>
               <type value="MedicationRequest"/>
               <identifier>
                  <system value="urn:oid:2.16.840.1.113883.2.4.3.11.999.77.16076005.1"/>
                  <value value="MBH_300_script3_MA"/>
               </identifier>
               <display value="relatie naar medicatieafspraak met identificatie: MBH_300_script3_MA || 2.16.840.1.113883.2.4.3.11.999.77.16076005.1"/>
            </authorizingPrescription>
            <dosageInstruction>
               <additionalInstruction>
                  <coding>
                     <system value="http://terminology.hl7.org/CodeSystem/v3-NullFlavor"/>
                     <code value="OTH"/>
                     <display value="overig"/>
                  </coding>
                  <text value="1-2 doses onder de tong, na 5-10 min herhalen, max. 3 opeenvolgende doses. . Bij onvoldoende effect na in totaal 3 doses direct contact opnemen met een arts."/>
               </additionalInstruction>
               <asNeededCodeableConcept>
                  <coding>
                     <system value="https://referentiemodel.nhg.org/tabellen/nhg-tabel-25-gebruiksvoorschrift#aanvullend-numeriek"/>
                     <code value="1028"/>
                     <display value="Bij pijn"/>
                  </coding>
               </asNeededCodeableConcept>
               <route>
                  <coding>
                     <system value="urn:oid:2.16.840.1.113883.2.4.4.9"/>
                     <code value="34"/>
                     <display value="oromucosaal"/>
                  </coding>
               </route>
               <doseAndRate>
                  <doseRange>
                     <low>
                        <extension url="http://hl7.org/fhir/StructureDefinition/iso21090-PQ-translation">
                           <valueQuantity>
                              <value value="1"/>
                              <unit value="Spray"/>
                              <system value="urn:oid:2.16.840.1.113883.2.4.4.1.900.2"/>
                              <code value="303"/>
                           </valueQuantity>
                        </extension>
                        <value value="1"/>
                        <unit value="Spray"/>
                        <system value="http://unitsofmeasure.org"/>
                        <code value="[drp]"/>
                     </low>
                     <high>
                        <extension url="http://hl7.org/fhir/StructureDefinition/iso21090-PQ-translation">
                           <valueQuantity>
                              <value value="2"/>
                              <unit value="Spray"/>
                              <system value="urn:oid:2.16.840.1.113883.2.4.4.1.900.2"/>
                              <code value="303"/>
                           </valueQuantity>
                        </extension>
                        <value value="2"/>
                        <unit value="Spray"/>
                        <system value="http://unitsofmeasure.org"/>
                        <code value="[drp]"/>
                     </high>
                  </doseRange>
               </doseAndRate>
            </dosageInstruction>
         </MedicationDispense>
      </resource>
      <search>
         <mode value="match"/>
      </search>
   </entry>
   <entry>
      <fullUrl value="urn:uuid:5f1fbea4-063b-11ef-4368-020000000000"/>
      <resource>
         <MedicationDispense>
            <meta>
               <profile value="http://nictiz.nl/fhir/StructureDefinition/mp-MedicationDispense"/>
            </meta>
            <extension url="http://nictiz.nl/fhir/StructureDefinition/ext-PharmaceuticalTreatment.Identifier">
               <valueIdentifier>
                  <system value="urn:oid:2.16.840.1.113883.2.4.3.11.999.77.1.1"/>
                  <value value="MBH_300_script3"/>
               </valueIdentifier>
            </extension>
            <identifier>
               <system value="urn:oid:2.16.840.1.113883.2.4.3.11.999.77.373784005.1"/>
               <value value="MBH_300_script3_MVE"/>
            </identifier>
            <status value="completed"/>
            <category>
               <coding>
                  <system value="http://snomed.info/sct"/>
                  <code value="373784005"/>
                  <display value="verstrekken van medicatie"/>
               </coding>
            </category>
            <medicationReference>
               <reference value="urn:uuid:5f1fbefe-063b-11ef-4368-020000000000"/>
               <type value="Medication"/>
               <display value="NITROLINGUAL OROMUCOSALE SPRAY 0,4MG/DO FLAC 250DO"/>
            </medicationReference>
            <subject>
               <reference value="urn:uuid:5f1fbd1e-063b-11ef-4368-020000000000"/>
               <type value="Patient"/>
               <display value="Patient, H. van de XXX_Kamphuis"/>
            </subject>
            <performer>
               <actor>
                  <reference value="urn:uuid:5f1fbe0e-063b-11ef-4368-020000000000"/>
                  <type value="Organization"/>
                  <display value="Healthcare provider (organization), Apotheek De Gulle Gaper"/>
               </actor>
            </performer>
            <authorizingPrescription>
               <type value="MedicationRequest"/>
               <identifier>
                  <system value="urn:oid:2.16.840.1.113883.2.4.3.11.999.77.52711000146108.1"/>
                  <value value="MBH_300_script3_VV"/>
               </identifier>
               <display value="relatie naar verstrekkingsverzoek met identificatie: MBH_300_script3_VV || 2.16.840.1.113883.2.4.3.11.999.77.52711000146108.1"/>
            </authorizingPrescription>
            <quantity>
               <extension url="http://hl7.org/fhir/StructureDefinition/iso21090-PQ-translation">
                  <valueQuantity>
                     <value value="1"/>
                     <unit value="stuk"/>
                     <system value="urn:oid:2.16.840.1.113883.2.4.4.1.900.2"/>
                     <code value="245"/>
                  </valueQuantity>
               </extension>
               <value value="1"/>
               <unit value="stuk"/>
               <system value="http://unitsofmeasure.org"/>
               <code value="1"/>
            </quantity>
            <whenHandedOver value="2022-12-27T09:15:00+01:00"/>
         </MedicationDispense>
      </resource>
      <search>
         <mode value="match"/>
      </search>
   </entry>
   <entry>
      <fullUrl value="urn:uuid:5f1fbec2-063b-11ef-4368-020000000000"/>
      <resource>
         <MedicationStatement>
            <meta>
               <profile value="http://nictiz.nl/fhir/StructureDefinition/mp-MedicationUse2"/>
            </meta>
            <extension url="http://nictiz.nl/fhir/StructureDefinition/ext-RenderedDosageInstruction">
               <valueString value="Vanaf &lt;T-5D{08:15:00}&gt; t/m &lt;T+20D{09:15:00}&gt;, zo nodig 1-2 doses onder de tong max. 3 opeenvolgende doses, oromucosaal"/>
            </extension>
            <extension url="http://nictiz.nl/fhir/StructureDefinition/ext-MedicationUse2.Prescriber">
               <valueReference>
                  <reference value="urn:uuid:5f1fbd46-063b-11ef-4368-020000000000"/>
                  <type value="PractitionerRole"/>
                  <display value="Healthcare professional (role), Bertine van Doorn, Huisartsen, niet nader gespecificeerd, Huisartsenpraktijk Pulver &amp; Partners"/>
               </valueReference>
            </extension>
            <extension url="http://nictiz.nl/fhir/StructureDefinition/ext-AsAgreedIndicator">
               <valueBoolean value="true"/>
            </extension>
            <extension url="http://nictiz.nl/fhir/StructureDefinition/ext-PharmaceuticalTreatment.Identifier">
               <valueIdentifier>
                  <system value="urn:oid:2.16.840.1.113883.2.4.3.11.999.77.1.1"/>
                  <value value="MBH_300_script3"/>
               </valueIdentifier>
            </extension>
            <extension url="http://nictiz.nl/fhir/StructureDefinition/ext-MedicationUse2.Author">
               <valueReference>
                  <reference value="urn:uuid:5f1fbd46-063b-11ef-4368-020000000000"/>
                  <type value="PractitionerRole"/>
                  <display value="Healthcare professional (role), Bertine van Doorn, Huisartsen, niet nader gespecificeerd, Huisartsenpraktijk Pulver &amp; Partners"/>
               </valueReference>
            </extension>
            <identifier>
               <system value="urn:oid:2.16.840.1.113883.2.4.3.11.999.77.6.1"/>
               <value value="MBH_300_script3_MGB"/>
            </identifier>
            <status value="active"/>
            <category>
               <coding>
                  <system value="http://snomed.info/sct"/>
                  <code value="422979000"/>
                  <display value="bevinding betreffende gedrag met betrekking tot medicatieregime"/>
               </coding>
            </category>
            <medicationReference>
               <reference value="urn:uuid:5f1fbefe-063b-11ef-4368-020000000000"/>
               <type value="Medication"/>
               <display value="NITROLINGUAL OROMUCOSALE SPRAY 0,4MG/DO FLAC 250DO"/>
            </medicationReference>
            <subject>
               <reference value="urn:uuid:5f1fbd1e-063b-11ef-4368-020000000000"/>
               <type value="Patient"/>
               <display value="Patient, H. van de XXX_Kamphuis"/>
            </subject>
            <effectivePeriod>
               <start value="2022-12-31T00:00:00+01:00"/>
               <end value="2022-12-31T23:59:59+01:00"/>
            </effectivePeriod>
            <dateAsserted value="2023-01-02T09:15:00+01:00"/>
            <informationSource>
               <reference value="urn:uuid:5f1fbd1e-063b-11ef-4368-020000000000"/>
               <type value="Patient"/>
               <display value="Patient, H. van de XXX_Kamphuis"/>
            </informationSource>
            <derivedFrom>
               <extension url="http://nictiz.nl/fhir/StructureDefinition/ext-ResourceCategory">
                  <valueCodeableConcept>
                     <coding>
                        <system value="http://snomed.info/sct"/>
                        <code value="33633005"/>
                        <display value="voorschrijven van geneesmiddel"/>
                     </coding>
                  </valueCodeableConcept>
               </extension>
               <type value="MedicationRequest"/>
               <identifier>
                  <system value="urn:oid:2.16.840.1.113883.2.4.3.11.999.77.16076005.1"/>
                  <value value="MBH_300_script3_MA"/>
               </identifier>
               <display value="relatie naar medicatieafspraak"/>
            </derivedFrom>
            <dosage>
               <additionalInstruction>
                  <coding>
                     <system value="http://terminology.hl7.org/CodeSystem/v3-NullFlavor"/>
                     <code value="OTH"/>
                     <display value="overig"/>
                  </coding>
                  <text value="1-2 doses onder de tong, na 5-10 min herhalen, max. 3 opeenvolgende doses. Bij onvoldoende effect na in totaal 3 doses direct contact opnemen met een arts."/>
               </additionalInstruction>
               <asNeededCodeableConcept>
                  <coding>
                     <system value="https://referentiemodel.nhg.org/tabellen/nhg-tabel-25-gebruiksvoorschrift#aanvullend-numeriek"/>
                     <code value="1028"/>
                     <display value="Bij pijn"/>
                  </coding>
               </asNeededCodeableConcept>
               <route>
                  <coding>
                     <system value="urn:oid:2.16.840.1.113883.2.4.4.9"/>
                     <code value="34"/>
                     <display value="oromucosaal"/>
                  </coding>
               </route>
               <doseAndRate>
                  <doseQuantity>
                     <extension url="http://hl7.org/fhir/StructureDefinition/iso21090-PQ-translation">
                        <valueQuantity>
                           <value value="2"/>
                           <unit value="dosis"/>
                           <system value="urn:oid:2.16.840.1.113883.2.4.4.1.900.2"/>
                           <code value="208"/>
                        </valueQuantity>
                     </extension>
                     <value value="2"/>
                     <unit value="dosis"/>
                     <system value="http://unitsofmeasure.org"/>
                     <code value="1"/>
                  </doseQuantity>
               </doseAndRate>
               <maxDosePerPeriod>
                  <numerator>
                     <extension url="http://hl7.org/fhir/StructureDefinition/iso21090-PQ-translation">
                        <valueQuantity>
                           <value value="3"/>
                           <unit value="dosis"/>
                           <system value="urn:oid:2.16.840.1.113883.2.4.4.1.900.2"/>
                           <code value="208"/>
                        </valueQuantity>
                     </extension>
                     <value value="3"/>
                     <unit value="dosis"/>
                     <system value="http://unitsofmeasure.org"/>
                     <code value="1"/>
                  </numerator>
                  <denominator>
                     <value value="1"/>
                     <unit value="dag"/>
                     <system value="http://unitsofmeasure.org"/>
                     <code value="d"/>
                  </denominator>
               </maxDosePerPeriod>
            </dosage>
         </MedicationStatement>
      </resource>
      <search>
         <mode value="match"/>
      </search>
   </entry>
   <entry>
      <fullUrl value="urn:uuid:5f1fbd1e-063b-11ef-4368-020000000000"/>
      <resource>
         <Patient>
            <meta>
               <profile value="http://nictiz.nl/fhir/StructureDefinition/nl-core-Patient"/>
            </meta>
            <identifier>
               <system value="http://fhir.nl/fhir/NamingSystem/bsn"/>
               <value value="999900675"/>
            </identifier>
            <name>
               <extension url="http://hl7.org/fhir/StructureDefinition/humanname-assembly-order">
                  <valueCode value="NL1"/>
               </extension>
               <use value="official"/>
               <text value="H. van de XXX_Kamphuis"/>
               <family value="van de XXX_Kamphuis">
                  <extension url="http://hl7.org/fhir/StructureDefinition/humanname-own-prefix">
                     <valueString value="van de"/>
                  </extension>
                  <extension url="http://hl7.org/fhir/StructureDefinition/humanname-own-name">
                     <valueString value="XXX_Kamphuis"/>
                  </extension>
               </family>
               <given value="H.">
                  <extension url="http://hl7.org/fhir/StructureDefinition/iso21090-EN-qualifier">
                     <valueCode value="IN"/>
                  </extension>
               </given>
            </name>
            <gender value="female">
               <extension url="http://nictiz.nl/fhir/StructureDefinition/ext-CodeSpecification">
                  <valueCodeableConcept>
                     <coding>
                        <system value="http://terminology.hl7.org/CodeSystem/v3-AdministrativeGender"/>
                        <code value="F"/>
                        <display value="Vrouw"/>
                     </coding>
                  </valueCodeableConcept>
               </extension>
            </gender>
            <birthDate value="1963-11-08"/>
         </Patient>
      </resource>
      <search>
         <mode value="include"/>
      </search>
   </entry>
   <entry>
      <fullUrl value="urn:uuid:5f1fbd46-063b-11ef-4368-020000000000"/>
      <resource>
         <PractitionerRole>
            <meta>
               <profile value="http://nictiz.nl/fhir/StructureDefinition/nl-core-HealthProfessional-PractitionerRole"/>
            </meta>
            <practitioner>
               <reference value="urn:uuid:5f1fbd6e-063b-11ef-4368-020000000000"/>
               <type value="Practitioner"/>
               <display value="Healthcare professional (person), Bertine van Doorn"/>
            </practitioner>
            <organization>
               <reference value="urn:uuid:5f1fbdb4-063b-11ef-4368-020000000000"/>
               <type value="Organization"/>
               <display value="Healthcare provider (organization), Huisartsenpraktijk Pulver &amp; Partners"/>
            </organization>
            <specialty>
               <coding>
                  <system value="urn:oid:2.16.840.1.113883.2.4.6.7"/>
                  <version value="2020-10-23T00:00:00"/>
                  <code value="0100"/>
                  <display value="Huisartsen, niet nader gespecificeerd"/>
               </coding>
            </specialty>
         </PractitionerRole>
      </resource>
      <search>
         <mode value="include"/>
      </search>
   </entry>
   <entry>
      <fullUrl value="urn:uuid:5f1fbd6e-063b-11ef-4368-020000000000"/>
      <resource>
         <Practitioner>
            <meta>
               <profile value="http://nictiz.nl/fhir/StructureDefinition/nl-core-HealthProfessional-Practitioner"/>
            </meta>
            <identifier>
               <system value="http://fhir.nl/fhir/NamingSystem/uzi-nr-pers"/>
               <value value="000001112"/>
            </identifier>
            <name>
               <use value="official"/>
               <text value="Bertine van Doorn"/>
               <family value="van Doorn">
                  <extension url="http://hl7.org/fhir/StructureDefinition/humanname-own-prefix">
                     <valueString value="van"/>
                  </extension>
                  <extension url="http://hl7.org/fhir/StructureDefinition/humanname-own-name">
                     <valueString value="Doorn"/>
                  </extension>
               </family>
               <given value="Bertine">
                  <extension url="http://hl7.org/fhir/StructureDefinition/iso21090-EN-qualifier">
                     <valueCode value="BR"/>
                  </extension>
               </given>
            </name>
         </Practitioner>
      </resource>
      <search>
         <mode value="include"/>
      </search>
   </entry>
   <entry>
      <fullUrl value="urn:uuid:5f1fbdb4-063b-11ef-4368-020000000000"/>
      <resource>
         <Organization>
            <meta>
               <profile value="http://nictiz.nl/fhir/StructureDefinition/nl-core-HealthcareProvider-Organization"/>
            </meta>
            <identifier>
               <system value="http://fhir.nl/fhir/NamingSystem/ura"/>
               <value value="00001111"/>
            </identifier>
            <name value="Huisartsenpraktijk Pulver &amp; Partners"/>
            <address>
               <extension url="http://nictiz.nl/fhir/StructureDefinition/ext-AddressInformation.AddressType">
                  <valueCodeableConcept>
                     <coding>
                        <system value="http://terminology.hl7.org/CodeSystem/v3-AddressUse"/>
                        <code value="WP"/>
                        <display value="Werkadres"/>
                     </coding>
                  </valueCodeableConcept>
               </extension>
               <use value="work"/>
               <line value="Dorpsstraat 1">
                  <extension url="http://hl7.org/fhir/StructureDefinition/iso21090-ADXP-streetName">
                     <valueString value="Dorpsstraat"/>
                  </extension>
                  <extension url="http://hl7.org/fhir/StructureDefinition/iso21090-ADXP-houseNumber">
                     <valueString value="1"/>
                  </extension>
               </line>
               <city value="Ons Dorp"/>
               <postalCode value="1234AA"/>
            </address>
         </Organization>
      </resource>
      <search>
         <mode value="include"/>
      </search>
   </entry>
   <entry>
      <fullUrl value="urn:uuid:5f1fbe0e-063b-11ef-4368-020000000000"/>
      <resource>
         <Organization>
            <meta>
               <profile value="http://nictiz.nl/fhir/StructureDefinition/nl-core-HealthcareProvider-Organization"/>
            </meta>
            <identifier>
               <system value="http://fhir.nl/fhir/NamingSystem/ura"/>
               <value value="01236578"/>
            </identifier>
            <name value="Apotheek De Gulle Gaper"/>
         </Organization>
      </resource>
      <search>
         <mode value="include"/>
      </search>
   </entry>
   <entry>
      <fullUrl value="urn:uuid:5f1fbee0-063b-11ef-4368-020000000000"/>
      <resource>
         <Medication>
            <meta>
               <profile value="http://nictiz.nl/fhir/StructureDefinition/mp-PharmaceuticalProduct"/>
            </meta>
            <code>
               <coding>
                  <system value="urn:oid:2.16.840.1.113883.2.4.4.10"/>
                  <code value="72214"/>
                  <display value="NITROGLYCERINE SPRAY SUBLING. 0,4MG/DO FL 250DO"/>
                  <userSelected value="true"/>
               </coding>
               <coding>
                  <system value="urn:oid:2.16.840.1.113883.2.4.4.1"/>
                  <code value="119431"/>
                  <display value="NITROGLYCERINE SPRAY SUBLING. 0,4MG/DO"/>
               </coding>
               <text value="NITROGLYCERINE SPRAY SUBLING. 0,4MG/DO FL 250DO"/>
            </code>
         </Medication>
      </resource>
      <search>
         <mode value="include"/>
      </search>
   </entry>
   <entry>
      <fullUrl value="urn:uuid:5f1fbefe-063b-11ef-4368-020000000000"/>
      <resource>
         <Medication>
            <meta>
               <profile value="http://nictiz.nl/fhir/StructureDefinition/mp-PharmaceuticalProduct"/>
            </meta>
            <code>
               <coding>
                  <system value="urn:oid:2.16.840.1.113883.2.4.4.7"/>
                  <code value="704369"/>
                  <display value="NITROLINGUAL OROMUCOSALE SPRAY 0,4MG/DO FLAC 250DO"/>
                  <userSelected value="true"/>
               </coding>
               <coding>
                  <system value="urn:oid:2.16.840.1.113883.2.4.4.10"/>
                  <code value="72214"/>
                  <display value="NITROGLYCERINE SPRAY SUBLING. 0,4MG/DO FL 250DO"/>
               </coding>
               <coding>
                  <system value="urn:oid:2.16.840.1.113883.2.4.4.1"/>
                  <code value="119431"/>
                  <display value="NITROGLYCERINE SPRAY SUBLING. 0,4MG/DO"/>
               </coding>
               <text value="NITROLINGUAL OROMUCOSALE SPRAY 0,4MG/DO FLAC 250DO"/>
            </code>
         </Medication>
      </resource>
      <search>
         <mode value="include"/>
      </search>
   </entry>
</Bundle>
