<?xml version="1.0" encoding="UTF-8"?>
<?xml-model href="http://hl7.org/fhir/STU3/bundle.sch" type="application/xml" schematypens="http://purl.oclc.org/dsdl/schematron"?>
<Bundle xmlns="http://hl7.org/fhir"
        xmlns:xsi="http://www.w3.org/2001/XMLSchema-instance"
        xsi:schemaLocation="http://hl7.org/fhir http://hl7.org/fhir/STU3/bundle.xsd">
   <type value="searchset"/>
   <total value="9"/>
   <entry>
      <fullUrl value="urn:uuid:5067b082-d2e0-11e8-2074-28f10e481d92"/>
      <resource>
         <Patient>
            <meta>
               <profile value="http://fhir.nl/fhir/StructureDefinition/nl-core-patient"/>
            </meta>
            <identifier>
               <system value="http://fhir.nl/fhir/NamingSystem/bsn"/>
               <value value="012345672"/>
            </identifier>
            <name>
               <extension url="http://hl7.org/fhir/StructureDefinition/humanname-assembly-order">
                  <valueCode value="NL1"/>
               </extension>
               <family value="Hansman">
                  <extension url="http://hl7.org/fhir/StructureDefinition/humanname-own-name">
                     <valueString value="Hansman"/>
                  </extension>
               </family>
               <given value="Joris">
                  <extension url="http://hl7.org/fhir/StructureDefinition/iso21090-EN-qualifier">
                     <valueCode value="BR"/>
                  </extension>
               </given>
               <given value="J.">
                  <extension url="http://hl7.org/fhir/StructureDefinition/iso21090-EN-qualifier">
                     <valueCode value="IN"/>
                  </extension>
               </given>
            </name>
            <gender value="male"/>
            <birthDate value="1984-05-12"/>
         </Patient>
      </resource>
   </entry>
   <entry>
      <fullUrl value="urn:oid:2.16.528.1.1007.3.1.012345678"/>
      <resource>
         <Practitioner>
            <meta>
               <profile value="http://fhir.nl/fhir/StructureDefinition/nl-core-practitioner"/>
            </meta>
            <identifier>
               <system value="http://fhir.nl/fhir/NamingSystem/uzi-nr-pers"/>
               <value value="012345678"/>
            </identifier>
            <name>
               <text value="Dr Jansen"/>
            </name>
         </Practitioner>
      </resource>
   </entry>
   <entry>
      <fullUrl value="urn:uuid:5067b2bb-d2e0-11e8-2074-28f10e481d92"/>
      <resource>
         <Organization>
            <meta>
               <profile value="http://fhir.nl/fhir/StructureDefinition/nl-core-organization"/>
            </meta>
            <identifier>
               <system value="urn:oid:1.2.3.4"/>
               <value value="URAnummer"/>
            </identifier>
            <name value="Ziekenhuis zus en zo"/>
         </Organization>
      </resource>
   </entry>
   <entry>
      <fullUrl value="urn:uuid:5067b2b0-d2e0-11e8-2074-28f10e481d92"/>
      <resource>
         <PractitionerRole>
            <meta>
               <profile value="http://fhir.nl/fhir/StructureDefinition/nl-core-practitionerrole"/>
            </meta>
            <practitioner>
               <reference value="urn:oid:2.16.528.1.1007.3.1.012345678"/>
               <display value="Dr Jansen"/>
            </practitioner>
            <organization>
               <reference value="urn:uuid:5067b2bb-d2e0-11e8-2074-28f10e481d92"/>
               <display value="Ziekenhuis zus en zo"/>
            </organization>
            <specialty>
               <coding>
                  <system value="http://fhir.nl/fhir/NamingSystem/uzi-rolcode"/>
                  <code value="01.016"/>
                  <display value="Internist"/>
               </coding>
            </specialty>
         </PractitionerRole>
      </resource>
   </entry>
   <entry>
      <fullUrl value="urn:oid:2.16.840.1.113883.2.4.4.10.133329"/>
      <resource>
         <Medication>
            <meta>
               <profile value="http://nictiz.nl/fhir/StructureDefinition/zib-Product"/>
            </meta>
            <code>
               <coding>
                  <system value="urn:oid:2.16.840.1.113883.2.4.4.10"/>
                  <code value="133329"/>
                  <display value="METOCLOPRAMIDE ZETPIL 20MG"/>
               </coding>
            </code>
         </Medication>
      </resource>
   </entry>
   <entry>
      <fullUrl value="urn:uuid:5067b2d6-d2e0-11e8-2074-28f10e481d92"/>
      <resource>
         <Observation>
            <meta>
               <profile value="http://nictiz.nl/fhir/StructureDefinition/zib-BodyHeight"/>
            </meta>
            <status value="final"/>
            <category>
               <coding>
                  <system value="http://hl7.org/fhir/observation-category"/>
                  <code value="vital-signs"/>
               </coding>
            </category>
            <code>
               <coding>
                  <system value="http://loinc.org"/>
                  <code value="8302-2"/>
                  <display value="lichaamslengte"/>
               </coding>
            </code>
            <subject>
               <reference value="urn:uuid:5067b082-d2e0-11e8-2074-28f10e481d92"/>
               <display value="Joris J. Hansman"/>
            </subject>
            <valueQuantity>
               <value value="189"/>
               <unit value="cm"/>
               <code value="cm"/>
            </valueQuantity>
         </Observation>
      </resource>
   </entry>
   <entry>
      <fullUrl value="urn:uuid:5067b2d8-d2e0-11e8-2074-28f10e481d92"/>
      <resource>
         <Observation>
            <meta>
               <profile value="http://nictiz.nl/fhir/StructureDefinition/zib-BodyWeight"/>
            </meta>
            <status value="final"/>
            <category>
               <coding>
                  <system value="http://hl7.org/fhir/observation-category"/>
                  <code value="vital-signs"/>
               </coding>
            </category>
            <code>
               <coding>
                  <system value="http://loinc.org"/>
                  <code value="29463-7"/>
                  <display value="lichaamsgewicht"/>
               </coding>
            </code>
            <subject>
               <reference value="urn:uuid:5067b082-d2e0-11e8-2074-28f10e481d92"/>
               <display value="Joris J. Hansman"/>
            </subject>
            <valueQuantity>
               <value value="79"/>
               <unit value="kg"/>
               <code value="kg"/>
            </valueQuantity>
         </Observation>
      </resource>
   </entry>
   <entry>
      <fullUrl value="urn:uuid:5067b2bf-d2e0-11e8-2074-28f10e481d92"/>
      <resource>
         <Condition>
            <meta>
               <profile value="http://nictiz.nl/fhir/StructureDefinition/zib-Problem"/>
            </meta>
            <clinicalStatus value="active"/>
            <code>
               <coding>
                  <system value="http://snomed.info/sct"/>
                  <code value="37796009"/>
                  <display value="Migraine"/>
               </coding>
            </code>
            <subject>
               <reference value="urn:uuid:5067b082-d2e0-11e8-2074-28f10e481d92"/>
               <display value="Joris J. Hansman"/>
            </subject>
         </Condition>
      </resource>
   </entry>
   <entry>
      <fullUrl value="urn:uuid:5067b2ac-d2e0-11e8-2074-28f10e481d92"/>
      <resource>
         <MedicationRequest>
            <meta>
               <profile value="http://nictiz.nl/fhir/StructureDefinition/zib-MedicationAgreement"/>
            </meta>
            <extension url="http://nictiz.nl/fhir/StructureDefinition/zib-Medication-MedicationTreatment">
               <valueIdentifier>
                  <system value="urn:oid:1.2.3.999.77.5.3.1"/>
                  <value value="#MB_01a"/>
               </valueIdentifier>
            </extension>
            <extension url="http://nictiz.nl/fhir/StructureDefinition/zib-MedicationAgreement-BasedOnAgreementOrUse">
               <valueReference>
                  <identifier>
                     <system value="urn:oid:1.2.3.999"/>
                     <value value="#MB_01a_MA_01"/>
                  </identifier>
                  <display value="relatie naar medicatieafspraak: #MB_01a_MA_01 || 1.2.3.999"/>
               </valueReference>
            </extension>
            <identifier>
               <system value="urn:oid:1.2.3.999.77.5.3.2"/>
               <value value="#MB_01a_MA_01"/>
            </identifier>
            <intent value="order"/>
            <category>
               <coding>
                  <system value="http://snomed.info/sct"/>
                  <code value="16076005"/>
                  <display value="Prescription (procedure)"/>
               </coding>
               <text value="Medicatieafspraak"/>
            </category>
            <medicationReference>
               <reference value="urn:oid:2.16.840.1.113883.2.4.4.10.133329"/>
               <display value="METOCLOPRAMIDE ZETPIL 20MG"/>
            </medicationReference>
            <subject>
               <reference value="urn:uuid:5067b082-d2e0-11e8-2074-28f10e481d92"/>
               <display value="Joris J. Hansman"/>
            </subject>
            <supportingInformation>
               <reference value="urn:uuid:5067b2d6-d2e0-11e8-2074-28f10e481d92"/>
               <display value="Lengte: 189 cm. Datum/tijd gemeten: onbekend"/>
            </supportingInformation>
            <supportingInformation>
               <reference value="urn:uuid:5067b2d8-d2e0-11e8-2074-28f10e481d92"/>
               <display value="Gewicht: 79 kg. Datum/tijd gemeten: onbekend"/>
            </supportingInformation>
            <authoredOn value="2016-06-23"/>
            <requester>
               <extension url="http://nictiz.nl/fhir/StructureDefinition/zib-MedicationAgreement-RequesterRole">
                  <valueReference>
                     <reference value="urn:uuid:5067b2b0-d2e0-11e8-2074-28f10e481d92"/>
                     <display value="Dr Jansen || Internist || Ziekenhuis zus en zo"/>
                  </valueReference>
               </extension>
               <agent>
                  <reference value="urn:oid:2.16.528.1.1007.3.1.012345678"/>
                  <display value="Dr Jansen"/>
               </agent>
            </requester>
            <reasonCode>
               <coding>
                  <system value="http://snomed.info/sct"/>
                  <code value="266709005"/>
                  <display value="Starten medicamenteuze behandeling"/>
               </coding>
            </reasonCode>
            <reasonReference>
               <reference value="urn:uuid:5067b2bf-d2e0-11e8-2074-28f10e481d92"/>
               <display value="Migraine"/>
            </reasonReference>
            <note>
               <text value="Toelichting in vrije tekst"/>
            </note>
            <dosageInstruction>
               <sequence value="1"/>
               <text value="Tot nader order, Zo nodig 1 keer per dag 1 stuk"/>
               <timing>
                  <repeat>
                     <frequency value="1"/>
                     <period value="1"/>
                     <periodUnit value="d"/>
                  </repeat>
               </timing>
               <asNeededCodeableConcept>
                  <coding>
                     <system value="https://referentiemodel.nhg.org/tabellen/nhg-tabel-25-gebruiksvoorschrift#aanvullend-numeriek"/>
                     <code value="1137"/>
                     <display value="zo nodig"/>
                  </coding>
               </asNeededCodeableConcept>
               <route>
                  <coding>
                     <system value="urn:oid:2.16.840.1.113883.2.4.4.9"/>
                     <code value="12"/>
                     <display value="RECTAAL"/>
                  </coding>
               </route>
               <doseQuantity>
                  <value value="1"/>
                  <unit value="Stuk"/>
                  <system value="urn:oid:2.16.840.1.113883.2.4.4.1.900.2"/>
                  <code value="245"/>
               </doseQuantity>
            </dosageInstruction>
         </MedicationRequest>
      </resource>
   </entry>
</Bundle>
