<?xml version="1.0" encoding="UTF-8"?>
<?xml-model href="http://hl7.org/fhir/STU3/bundle.sch" type="application/xml" schematypens="http://purl.oclc.org/dsdl/schematron"?>
<Bundle xmlns="http://hl7.org/fhir" xmlns:xsi="http://www.w3.org/2001/XMLSchema-instance" xsi:schemaLocation="http://hl7.org/fhir http://hl7.org/fhir/STU3/bundle.xsd">
	<type value="searchset"/>
	<total value="7"/>
	<entry>
		<fullUrl value="urn:uuid:095DA938-C252-11E8-1186-28F10E481D92"/>
		<resource>
			<Patient>
				<meta>
					<profile value="http://fhir.nl/fhir/StructureDefinition/nl-core-patient"/>
				</meta>
				<identifier>
					<system value="http://fhir.nl/fhir/NamingSystem/bsn"/>
					<value value="012345672"/>
				</identifier>
				<name>
					<extension url="http://hl7.org/fhir/StructureDefinition/humanname-assembly-order">
						<valueCode value="NL3"/>
					</extension>
					<family value="de Laat de Vries">
						<extension url="http://hl7.org/fhir/StructureDefinition/humanname-own-prefix">
							<valueString value="de"/>
						</extension>
						<extension url="http://hl7.org/fhir/StructureDefinition/humanname-own-name">
							<valueString value="Vries"/>
						</extension>
					</family>
					<given value="Antje">
						<extension url="http://hl7.org/fhir/StructureDefinition/iso21090-EN-qualifier">
							<valueCode value="BR"/>
						</extension>
					</given>
					<given value="A.A.">
						<extension url="http://hl7.org/fhir/StructureDefinition/iso21090-EN-qualifier">
							<valueCode value="IN"/>
						</extension>
					</given>
					<given value="Aa">
						<extension url="http://hl7.org/fhir/StructureDefinition/iso21090-EN-qualifier">
							<valueCode value="CL"/>
						</extension>
					</given>
				</name>
				<gender value="female"/>
				<birthDate value="1974-05-03"/>
			</Patient>
		</resource>
	</entry>
	<entry>
		<fullUrl value="urn:oid:2.16.528.1.1007.3.1.006797896"/>
		<resource>
			<Practitioner>
				<meta>
					<profile value="http://fhir.nl/fhir/StructureDefinition/nl-core-practitioner"/>
				</meta>
				<identifier>
					<system value="http://fhir.nl/fhir/NamingSystem/uzi-nr-pers"/>
					<value value="006797896"/>
				</identifier>
				<name>
					<family value="van Beek">
						<extension url="http://hl7.org/fhir/StructureDefinition/humanname-own-prefix">
							<valueString value="van"/>
						</extension>
						<extension url="http://hl7.org/fhir/StructureDefinition/humanname-own-name">
							<valueString value="Beek"/>
						</extension>
					</family>
					<given value="">
						<extension url="http://hl7.org/fhir/StructureDefinition/iso21090-EN-qualifier">
							<valueCode value="IN"/>
						</extension>
					</given>
				</name>
			</Practitioner>
		</resource>
	</entry>
	<entry>
		<fullUrl value="urn:oid:1.2.3.4.01234567"/>
		<resource>
			<Organization>
				<meta>
					<profile value="http://fhir.nl/fhir/StructureDefinition/nl-core-organization"/>
				</meta>
				<identifier>
					<system value="urn:oid:1.2.3.4"/>
					<value value="01234567"/>
				</identifier>
				<name value="Ziekenhuis zus en zo"/>
			</Organization>
		</resource>
	</entry>
	<entry>
		<fullUrl value="urn:uuid:095DAB10-C252-11E8-1186-28F10E481D92"/>
		<resource>
			<PractitionerRole>
				<meta>
					<profile value="http://fhir.nl/fhir/StructureDefinition/nl-core-practitionerrole"/>
				</meta>
				<practitioner>
					<reference value="urn:oid:2.16.528.1.1007.3.1.006797896"/>
					<display value="van Beek"/>
				</practitioner>
				<organization>
					<reference value="urn:oid:1.2.3.4.01234567"/>
					<display value="Ziekenhuis zus en zo"/>
				</organization>
				<specialty>
					<coding>
						<system value="http://fhir.nl/fhir/NamingSystem/uzi-rolcode"/>
						<code value="01.016"/>
					</coding>
					<text value="Internist"/>
				</specialty>
			</PractitionerRole>
		</resource>
	</entry>
	<entry>
		<fullUrl value="urn:uuid:095DAB23-C252-11E8-1186-28F10E481D92"/>
		<resource>
			<Medication>
				<meta>
					<profile value="http://nictiz.nl/fhir/StructureDefinition/zib-Product"/>
				</meta>
				<code>
					<coding>
						<system value="urn:oid:2.16.840.1.113883.2.4.4.10"/>
						<code value="6939"/>
					</coding>
					<text value="DOXYCYCLINE TABLET 100MG"/>
				</code>
			</Medication>
		</resource>
	</entry>
	<entry>
		<fullUrl value="urn:uuid:095DAB20-C252-11E8-1186-28F10E481D92"/>
		<resource>
			<Condition>
				<meta>
					<profile value="http://nictiz.nl/fhir/StructureDefinition/zib-Problem"/>
				</meta>
				<clinicalStatus value="active"/>
				<code>
					<coding>
						<system value="urn:oid:2.16.840.1.113883.6.20"/>
						<code value="14"/>
					</coding>
					<text value="RvV: iets vaags"/>
				</code>
				<subject>
					<reference value="urn:uuid:095DA938-C252-11E8-1186-28F10E481D92"/>
					<display value="Antje A.A. Aa de Vries de Laat"/>
				</subject>
			</Condition>
		</resource>
	</entry>
	<entry>
		<fullUrl value="urn:uuid:095DAB0D-C252-11E8-1186-28F10E481D92"/>
		<resource>
			<MedicationRequest>
				<meta>
					<profile value="http://nictiz.nl/fhir/StructureDefinition/zib-MedicationAgreement"/>
				</meta>
				<extension url="http://nictiz.nl/fhir/StructureDefinition/zib-MedicationUse-Duration">
					<valueDuration>
						<value value="10"/>
						<unit value="week"/>
						<system value="http://unitsofmeasure.org"/>
						<code value="wk"/>
					</valueDuration>
				</extension>
				<extension url="http://nictiz.nl/fhir/StructureDefinition/zib-Medication-AdditionalInformation">
					<valueCodeableConcept>
						<coding>
							<system value="urn:oid:2.16.840.1.113883.2.4.3.11.60.20.77.5.2.14.2050"/>
							<code value="5"/>
						</coding>
						<text value="Profylaxe"/>
					</valueCodeableConcept>
				</extension>
				<extension url="http://nictiz.nl/fhir/StructureDefinition/zib-Medication-MedicationTreatment">
					<valueIdentifier>
						<system value="urn:oid:1.2.3.999.77.5.3.1"/>
						<value value="medbeh_VMA_001"/>
					</valueIdentifier>
				</extension>
				<identifier>
					<system value="urn:oid:1.2.3.999.77.5.3.2"/>
					<value value="medbeh_VMA_001_MA02"/>
				</identifier>
				<intent value="order"/>
				<category>
					<coding>
						<system value="http://snomed.info/sct"/>
						<code value="16076005"/>
						<display value="Prescription (procedure)"/>
					</coding>
					<text value="Medicatieafspraak"/>
				</category>
				<medicationReference>
					<reference value="urn:uuid:095DAB23-C252-11E8-1186-28F10E481D92"/>
					<display value="DOXYCYCLINE TABLET 100MG"/>
				</medicationReference>
				<subject>
					<reference value="urn:uuid:095DA938-C252-11E8-1186-28F10E481D92"/>
					<display value="Antje A.A. Aa de Vries de Laat"/>
				</subject>
				<authoredOn value="2017-09-02T14:30:23+02:00"/>
				<requester>
					<extension url="http://nictiz.nl/fhir/StructureDefinition/zib-MedicationAgreement-RequesterRole">
						<valueReference>
							<reference value="urn:uuid:095DAB10-C252-11E8-1186-28F10E481D92"/>
							<display value="van Beek || Internist || Ziekenhuis zus en zo"/>
						</valueReference>
					</extension>
					<agent>
						<reference value="urn:oid:2.16.528.1.1007.3.1.006797896"/>
						<display value="van Beek"/>
					</agent>
				</requester>
				<reasonCode>
					<coding>
						<system value="http://snomed.info/sct"/>
						<code value="438833006"/>
					</coding>
					<text value="Administration of drug or medicament contraindicated (situation)"/>
				</reasonCode>
				<reasonReference>
					<reference value="urn:uuid:095DAB20-C252-11E8-1186-28F10E481D92"/>
					<display value="RvV: iets vaags"/>
				</reasonReference>
				<note>
					<text value="Patiënt gebruikt Verapamil, contra-indicatie voor het origineel voorgeschreven Klacid."/>
				</note>
				<dosageInstruction>
					<sequence value="1"/>
					<text value="Gedurende 10 dagen, eerste dag 2 tabletten en vervolgens 1x daags 1 tablet"/>
					<timing>
						<repeat>
							<boundsDuration>
								<value value="1"/>
								<unit value="dag"/>
								<system value="http://unitsofmeasure.org"/>
								<code value="d"/>
							</boundsDuration>
							<timeOfDay value="08:00:00"/>
						</repeat>
					</timing>
					<route>
						<coding>
							<system value="urn:oid:2.16.840.1.113883.2.4.4.9"/>
							<code value="12"/>
						</coding>
						<text value="rectaal"/>
					</route>
					<doseQuantity>
						<value value="2"/>
						<unit value="Eenheid"/>
						<system value="urn:oid:2.16.840.1.113883.2.4.4.1.900.2"/>
						<code value="211"/>
					</doseQuantity>
				</dosageInstruction>
				<dosageInstruction>
					<sequence value="2"/>
					<text value="Gedurende 10 dagen, eerste dag 2 tabletten en vervolgens 1x daags 1 tablet"/>
					<timing>
						<repeat>
							<boundsDuration>
								<value value="9"/>
								<unit value="dag"/>
								<system value="http://unitsofmeasure.org"/>
								<code value="d"/>
							</boundsDuration>
							<frequency value="1"/>
							<period value="1"/>
							<periodUnit value="d"/>
						</repeat>
					</timing>
					<asNeededCodeableConcept>
						<coding>
							<system value="https://referentiemodel.nhg.org/tabellen/nhg-tabel-25-gebruiksvoorschrift#aanvullend-numeriek"/>
							<code value="1024"/>
							<display value="bij diarree"/>
						</coding>
					</asNeededCodeableConcept>
					<route>
						<coding>
							<system value="urn:oid:2.16.840.1.113883.2.4.4.9"/>
							<code value="12"/>
						</coding>
						<text value="rectaal"/>
					</route>
					<doseQuantity>
						<value value="1"/>
						<unit value="Eenheid"/>
						<system value="urn:oid:2.16.840.1.113883.2.4.4.1.900.2"/>
						<code value="211"/>
					</doseQuantity>
				</dosageInstruction>
			</MedicationRequest>
		</resource>
	</entry>
</Bundle>
