<?xml-model href="http://hl7.org/fhir/STU3/bundle.sch" type="application/xml" schematypens="http://purl.oclc.org/dsdl/schematron"?>
<Bundle xsi:schemaLocation="http://hl7.org/fhir http://hl7.org/fhir/STU3/bundle.xsd"
        xmlns:xsi="http://www.w3.org/2001/XMLSchema-instance"
        xmlns="http://hl7.org/fhir">
   <id value="1318bbec-c737-11ee-8910-020000000000"/>
   <type value="searchset"/>
   <total value="4"/>
   <link>
      <relation value="self"/>
      <url value="http://dummy.nictiz.nl/dummyquery"/>
   </link>
   <entry>
      <fullUrl value="urn:uuid:1318ccb4-c737-11ee-8910-020000000000"/>
      <resource>
         <AllergyIntolerance>
            <meta>
               <profile value="http://nictiz.nl/fhir/StructureDefinition/mp612-AllergyIntoleranceToFHIRConversion"/>
            </meta>
            <text>
               <status value="extensions"/>
               <div xmlns="http://www.w3.org/1999/xhtml">
                  <table>
                     <caption>Allergie/intolerantie. Patiënt: M.P.H. Mike XXX_Smits. Id: CIO_02_01 (urn:oid:2.16.840.1.113883.2.4.3.11.999.26.1.1), Categorie: 
<span title="neiging tot ongewenste reactie op medicatie en/of drug (419511003 - SNOMED CT)">neiging tot ongewenste reactie op medicatie en/of drug</span>, Status: actief / bevestigd
<span style="display: block;">Ingevoerd door: I.N. ter Nist || Medisch specialisten, inwendige geneeskunde || Test Medisch Centrum</span>
                     </caption>
                     <tfoot>
                        <tr>
                           <td colspan="2">Rode vlekken en jeuk. Geldt alleen voor dit merk.</td>
                        </tr>
                     </tfoot>
                     <tbody>
                        <tr>
                           <th>Code</th>
                           <td>
                              <span title="AMOXI/CLAV SANDOZ TABLET 500/125MG (1127039 - G-Standaard HPK)">AMOXI/CLAV SANDOZ TABLET 500/125MG</span>
                           </td>
                        </tr>
                        <tr>
                           <th>Informant</th>
                           <td>13:15:00, 10 januari 2024 - M.P.H. Mike XXX_Smits</td>
                        </tr>
                        <tr>
                           <th>Eerste symptomen</th>
                           <td>21 december 2023</td>
                        </tr>
                     </tbody>
                  </table>
               </div>
            </text>
            <identifier>
               <system value="urn:oid:2.16.840.1.113883.2.4.3.11.999.26.1.1"/>
               <value value="CIO_02_01"/>
            </identifier>
            <clinicalStatus value="active">
               <extension url="http://nictiz.nl/fhir/StructureDefinition/code-specification">
                  <valueCodeableConcept>
                     <coding>
                        <system value="http://hl7.org/fhir/v3/ActStatus"/>
                        <code value="active"/>
                        <display value="Actief"/>
                     </coding>
                  </valueCodeableConcept>
               </extension>
            </clinicalStatus>
            <verificationStatus value="confirmed"/>
            <category value="medication">
               <extension url="http://nictiz.nl/fhir/StructureDefinition/code-specification">
                  <valueCodeableConcept>
                     <coding>
                        <system value="http://snomed.info/sct"/>
                        <code value="419511003"/>
                        <display value="neiging tot ongewenste reactie op medicatie en/of drug"/>
                     </coding>
                  </valueCodeableConcept>
               </extension>
            </category>
            <code>
               <coding>
                  <system value="urn:oid:2.16.840.1.113883.2.4.4.7"/>
                  <code value="1127039"/>
                  <display value="AMOXI/CLAV SANDOZ TABLET 500/125MG"/>
               </coding>
            </code>
            <patient>
               <reference value="urn:uuid:1318bbf4-c737-11ee-8910-020000000000"/>
               <display value="M.P.H. Mike XXX_Smits"/>
            </patient>
            <onsetDateTime value="2023-12-21"/>
            <assertedDate value="2024-01-10T13:15:00+01:00"/>
            <recorder>
               <extension url="http://nictiz.nl/fhir/StructureDefinition/practitionerrole-reference">
                  <valueReference>
                     <reference value="urn:uuid:1318d65e-c737-11ee-8910-020000000000"/>
                     <display value="I.N. ter Nist || Medisch specialisten, inwendige geneeskunde || Test Medisch Centrum"/>
                  </valueReference>
               </extension>
               <reference value="urn:oid:2.16.528.1.1007.3.1.111111112"/>
               <display value="I.N. ter Nist"/>
            </recorder>
            <asserter>
               <reference value="urn:uuid:1318bbf4-c737-11ee-8910-020000000000"/>
               <display value="M.P.H. Mike XXX_Smits"/>
            </asserter>
            <note>
               <text value="Rode vlekken en jeuk. Geldt alleen voor dit merk."/>
            </note>
         </AllergyIntolerance>
      </resource>
      <search>
         <mode value="match"/>
      </search>
   </entry>
   <entry>
      <fullUrl value="urn:uuid:1318d5dd-c737-11ee-8910-020000000000"/>
      <resource>
         <AllergyIntolerance>
            <meta>
               <profile value="http://nictiz.nl/fhir/StructureDefinition/mp612-AllergyIntoleranceToFHIRConversion"/>
            </meta>
            <text>
               <status value="extensions"/>
               <div xmlns="http://www.w3.org/1999/xhtml">
                  <table>
                     <caption>Allergie/intolerantie. Patiënt: M.P.H. Mike XXX_Smits. Id: CIO_02_02 (urn:oid:2.16.840.1.113883.2.4.3.11.999.26.1.1), Categorie: 
<span title="neiging tot ongewenste reactie op medicatie en/of drug (419511003 - SNOMED CT)">neiging tot ongewenste reactie op medicatie en/of drug</span>, Status: inactief / weerlegd
<span style="display: block;">Ingevoerd door: I.N. ter Nist || Medisch specialisten, inwendige geneeskunde || Test Medisch Centrum</span>
                     </caption>
                     <tfoot>
                        <tr>
                           <td colspan="2">Betreft nu Ciprofloxacine. Leidt tot paarse vlekjes op de huid en jeuk.</td>
                        </tr>
                     </tfoot>
                     <tbody>
                        <tr>
                           <th>Code</th>
                           <td>
                              <span title="Amoxicilline (23167 - G-Standaard Bestand 750)">Amoxicilline</span>
                           </td>
                        </tr>
                        <tr>
                           <th>Informant</th>
                           <td>11 december 2023 - I.N. ter Nist || Medisch specialisten, inwendige geneeskunde || Test Medisch Centrum</td>
                        </tr>
                        <tr>
                           <th>Eerste symptomen</th>
                           <td>1 november 2023</td>
                        </tr>
                     </tbody>
                  </table>
               </div>
            </text>
            <identifier>
               <system value="urn:oid:2.16.840.1.113883.2.4.3.11.999.26.1.1"/>
               <value value="CIO_02_02"/>
            </identifier>
            <clinicalStatus value="inactive">
               <extension url="http://nictiz.nl/fhir/StructureDefinition/code-specification">
                  <valueCodeableConcept>
                     <coding>
                        <system value="http://hl7.org/fhir/v3/ActStatus"/>
                        <code value="obsolete"/>
                        <display value="Achterhaald"/>
                     </coding>
                  </valueCodeableConcept>
               </extension>
            </clinicalStatus>
            <verificationStatus value="refuted"/>
            <category value="medication">
               <extension url="http://nictiz.nl/fhir/StructureDefinition/code-specification">
                  <valueCodeableConcept>
                     <coding>
                        <system value="http://snomed.info/sct"/>
                        <code value="419511003"/>
                        <display value="neiging tot ongewenste reactie op medicatie en/of drug"/>
                     </coding>
                  </valueCodeableConcept>
               </extension>
            </category>
            <code>
               <coding>
                  <system value="urn:oid:2.16.840.1.113883.2.4.4.1.750"/>
                  <code value="23167"/>
                  <display value="Amoxicilline"/>
               </coding>
            </code>
            <patient>
               <reference value="urn:uuid:1318bbf4-c737-11ee-8910-020000000000"/>
               <display value="M.P.H. Mike XXX_Smits"/>
            </patient>
            <onsetDateTime value="2023-11-01"/>
            <assertedDate value="2023-12-11"/>
            <recorder>
               <extension url="http://nictiz.nl/fhir/StructureDefinition/practitionerrole-reference">
                  <valueReference>
                     <reference value="urn:uuid:1318d65e-c737-11ee-8910-020000000000"/>
                     <display value="I.N. ter Nist || Medisch specialisten, inwendige geneeskunde || Test Medisch Centrum"/>
                  </valueReference>
               </extension>
               <reference value="urn:oid:2.16.528.1.1007.3.1.111111112"/>
               <display value="I.N. ter Nist"/>
            </recorder>
            <asserter>
               <extension url="http://nictiz.nl/fhir/StructureDefinition/practitionerrole-reference">
                  <valueReference>
                     <reference value="urn:uuid:1318d65e-c737-11ee-8910-020000000000"/>
                     <display value="I.N. ter Nist || Medisch specialisten, inwendige geneeskunde || Test Medisch Centrum"/>
                  </valueReference>
               </extension>
               <reference value="urn:oid:2.16.528.1.1007.3.1.111111112"/>
               <display value="I.N. ter Nist"/>
            </asserter>
            <note>
               <text value="Betreft nu Ciprofloxacine. Leidt tot paarse vlekjes op de huid en jeuk."/>
            </note>
         </AllergyIntolerance>
      </resource>
      <search>
         <mode value="match"/>
      </search>
   </entry>
   <entry>
      <fullUrl value="urn:uuid:1318d60a-c737-11ee-8910-020000000000"/>
      <resource>
         <AllergyIntolerance>
            <meta>
               <profile value="http://nictiz.nl/fhir/StructureDefinition/mp612-AllergyIntoleranceToFHIRConversion"/>
            </meta>
            <text>
               <status value="extensions"/>
               <div xmlns="http://www.w3.org/1999/xhtml">
                  <table>
                     <caption>Allergie/intolerantie. Patiënt: M.P.H. Mike XXX_Smits. Id: CIO_02_03 (urn:oid:2.16.840.1.113883.2.4.3.11.999.26.1.1), Categorie: 
<span title="neiging tot ongewenste reactie op medicatie en/of drug (419511003 - SNOMED CT)">neiging tot ongewenste reactie op medicatie en/of drug</span>, Status: opgelost / bevestigd
<span style="display: block;">Ingevoerd door: S. Calpel || Medisch specialisten, chirurgie || Test Medisch Centrum</span>
                     </caption>
                     <tfoot>
                        <tr>
                           <td colspan="2">Geconstateerd tijdens operatie en leidt tot jeuk.</td>
                        </tr>
                     </tfoot>
                     <tbody>
                        <tr>
                           <th>Code</th>
                           <td>
                              <span title="Amoxicilline oraal (16322 - G-Standaard Bestand 725)">Amoxicilline oraal</span>
                           </td>
                        </tr>
                        <tr>
                           <th>Informant</th>
                           <td>11 november 2023 - S. Calpel || Medisch specialisten, chirurgie || Test Medisch Centrum</td>
                        </tr>
                     </tbody>
                  </table>
               </div>
            </text>
            <identifier>
               <system value="urn:oid:2.16.840.1.113883.2.4.3.11.999.26.1.1"/>
               <value value="CIO_02_03"/>
            </identifier>
            <clinicalStatus value="resolved">
               <extension url="http://nictiz.nl/fhir/StructureDefinition/code-specification">
                  <valueCodeableConcept>
                     <coding>
                        <system value="http://hl7.org/fhir/v3/ActStatus"/>
                        <code value="completed"/>
                        <display value="Niet meer aanwezig"/>
                     </coding>
                  </valueCodeableConcept>
               </extension>
            </clinicalStatus>
            <verificationStatus value="confirmed"/>
            <category value="medication">
               <extension url="http://nictiz.nl/fhir/StructureDefinition/code-specification">
                  <valueCodeableConcept>
                     <coding>
                        <system value="http://snomed.info/sct"/>
                        <code value="419511003"/>
                        <display value="neiging tot ongewenste reactie op medicatie en/of drug"/>
                     </coding>
                  </valueCodeableConcept>
               </extension>
            </category>
            <code>
               <coding>
                  <system value="urn:oid:2.16.840.1.113883.2.4.4.1.725"/>
                  <code value="16322"/>
                  <display value="Amoxicilline oraal"/>
               </coding>
            </code>
            <patient>
               <reference value="urn:uuid:1318bbf4-c737-11ee-8910-020000000000"/>
               <display value="M.P.H. Mike XXX_Smits"/>
            </patient>
            <assertedDate value="2023-11-11"/>
            <recorder>
               <extension url="http://nictiz.nl/fhir/StructureDefinition/practitionerrole-reference">
                  <valueReference>
                     <reference value="urn:uuid:1318d6b4-c737-11ee-8910-020000000000"/>
                     <display value="S. Calpel || Medisch specialisten, chirurgie || Test Medisch Centrum"/>
                  </valueReference>
               </extension>
               <reference value="urn:oid:2.16.528.1.1007.3.1.333333334"/>
               <display value="S. Calpel"/>
            </recorder>
            <asserter>
               <extension url="http://nictiz.nl/fhir/StructureDefinition/practitionerrole-reference">
                  <valueReference>
                     <reference value="urn:uuid:1318d6b4-c737-11ee-8910-020000000000"/>
                     <display value="S. Calpel || Medisch specialisten, chirurgie || Test Medisch Centrum"/>
                  </valueReference>
               </extension>
               <reference value="urn:oid:2.16.528.1.1007.3.1.333333334"/>
               <display value="S. Calpel"/>
            </asserter>
            <note>
               <text value="Geconstateerd tijdens operatie en leidt tot jeuk."/>
            </note>
         </AllergyIntolerance>
      </resource>
      <search>
         <mode value="match"/>
      </search>
   </entry>
   <entry>
      <fullUrl value="urn:uuid:1318d634-c737-11ee-8910-020000000000"/>
      <resource>
         <AllergyIntolerance>
            <meta>
               <profile value="http://nictiz.nl/fhir/StructureDefinition/mp612-AllergyIntoleranceToFHIRConversion"/>
            </meta>
            <text>
               <status value="extensions"/>
               <div xmlns="http://www.w3.org/1999/xhtml">
                  <table>
                     <caption>Allergie/intolerantie. Patiënt: M.P.H. Mike XXX_Smits. Id: CIO_02_04 (urn:oid:2.16.840.1.113883.2.4.3.11.999.26.1.1), Categorie: 
<span title="neiging tot ongewenste reactie op medicatie en/of drug (419511003 - SNOMED CT)">neiging tot ongewenste reactie op medicatie en/of drug</span>, Status: foutieve invoer
<span style="display: block;">Ingevoerd door: O. Orthopeed || Medisch specialisten, orthopedie || Test Medisch Centrum</span>
                     </caption>
                     <tfoot>
                        <tr>
                           <td colspan="2">Verkeerd geregistreerd</td>
                        </tr>
                     </tfoot>
                     <tbody>
                        <tr>
                           <th>Code</th>
                           <td>
                              <span title="Penicillines (35 - G-Standaard Tabel 122)">Penicillines</span>
                           </td>
                        </tr>
                        <tr>
                           <th>Informant</th>
                           <td>12 oktober 2023 - Meike M.G.J. van Hoof</td>
                        </tr>
                        <tr>
                           <th>Eerste symptomen</th>
                           <td>24 juli 2023</td>
                        </tr>
                     </tbody>
                  </table>
               </div>
            </text>
            <identifier>
               <system value="urn:oid:2.16.840.1.113883.2.4.3.11.999.26.1.1"/>
               <value value="CIO_02_04"/>
            </identifier>
            <verificationStatus value="entered-in-error"/>
            <category value="medication">
               <extension url="http://nictiz.nl/fhir/StructureDefinition/code-specification">
                  <valueCodeableConcept>
                     <coding>
                        <system value="http://snomed.info/sct"/>
                        <code value="419511003"/>
                        <display value="neiging tot ongewenste reactie op medicatie en/of drug"/>
                     </coding>
                  </valueCodeableConcept>
               </extension>
            </category>
            <code>
               <coding>
                  <system value="urn:oid:2.16.840.1.113883.2.4.4.1.902.122"/>
                  <code value="35"/>
                  <display value="Penicillines"/>
               </coding>
            </code>
            <patient>
               <reference value="urn:uuid:1318bbf4-c737-11ee-8910-020000000000"/>
               <display value="M.P.H. Mike XXX_Smits"/>
            </patient>
            <onsetDateTime value="2023-07-24"/>
            <assertedDate value="2023-10-12"/>
            <recorder>
               <extension url="http://nictiz.nl/fhir/StructureDefinition/practitionerrole-reference">
                  <valueReference>
                     <reference value="urn:uuid:1318d68a-c737-11ee-8910-020000000000"/>
                     <display value="O. Orthopeed || Medisch specialisten, orthopedie || Test Medisch Centrum"/>
                  </valueReference>
               </extension>
               <reference value="urn:oid:2.16.528.1.1007.3.1.222222223"/>
               <display value="O. Orthopeed"/>
            </recorder>
            <asserter>
               <reference value="urn:uuid:1318d6f7-c737-11ee-8910-020000000000"/>
               <display value="Meike M.G.J. van Hoof"/>
            </asserter>
            <note>
               <text value="Verkeerd geregistreerd"/>
            </note>
         </AllergyIntolerance>
      </resource>
      <search>
         <mode value="match"/>
      </search>
   </entry>
   <entry>
      <fullUrl value="urn:uuid:1318bbf4-c737-11ee-8910-020000000000"/>
      <resource>
         <Patient>
            <meta>
               <profile value="http://fhir.nl/fhir/StructureDefinition/nl-core-patient"/>
            </meta>
            <text>
               <status value="extensions"/>
               <div xmlns="http://www.w3.org/1999/xhtml">
                  <div>Id 
<i>afgeschermd (ontbrekend gegeven)</i> (BSN), 
<span title="Naamsamenstelling: Eigennaam">M.P.H. XXX_Smits</span> (Mike), Man, 30 juli 1964</div>
                  <div>
                     <a href="tel:06-12345678">06-12345678</a> (Mobiel Privé)</div>
                  <div>Knolweg 1000 f, 9999XA Stitswerd, 6030 (Bezoek)</div>
               </div>
            </text>
            <identifier>
               <system value="http://fhir.nl/fhir/NamingSystem/bsn"/>
               <value>
                  <extension url="http://hl7.org/fhir/StructureDefinition/data-absent-reason">
                     <valueCode value="masked"/>
                  </extension>
               </value>
            </identifier>
            <name>
               <extension url="http://hl7.org/fhir/StructureDefinition/humanname-assembly-order">
                  <valueCode value="NL1"/>
               </extension>
               <family value="XXX_Smits">
                  <extension url="http://hl7.org/fhir/StructureDefinition/humanname-own-name">
                     <valueString value="XXX_Smits"/>
                  </extension>
               </family>
               <given value="M.P.H.">
                  <extension url="http://hl7.org/fhir/StructureDefinition/iso21090-EN-qualifier">
                     <valueCode value="IN"/>
                  </extension>
               </given>
               <given value="Mike">
                  <extension url="http://hl7.org/fhir/StructureDefinition/iso21090-EN-qualifier">
                     <valueCode value="CL"/>
                  </extension>
               </given>
            </name>
            <telecom>
               <extension url="http://nictiz.nl/fhir/StructureDefinition/zib-ContactInformation-TelecomType">
                  <valueCodeableConcept>
                     <coding>
                        <system value="http://hl7.org/fhir/v3/AddressUse"/>
                        <code value="MC"/>
                        <display value="Mobiel telefoonnummer"/>
                     </coding>
                  </valueCodeableConcept>
               </extension>
               <system value="phone"/>
               <value value="06-12345678"/>
               <use value="home"/>
            </telecom>
            <gender value="male">
               <extension url="http://nictiz.nl/fhir/StructureDefinition/code-specification">
                  <valueCodeableConcept>
                     <coding>
                        <system value="http://hl7.org/fhir/v3/AdministrativeGender"/>
                        <code value="M"/>
                        <display value="Man"/>
                     </coding>
                  </valueCodeableConcept>
               </extension>
            </gender>
            <birthDate value="1964-07-30"/>
            <address>
               <extension url="http://nictiz.nl/fhir/StructureDefinition/zib-AddressInformation-AddressType">
                  <valueCodeableConcept>
                     <coding>
                        <system value="http://hl7.org/fhir/v3/AddressUse"/>
                        <code value="PHYS"/>
                        <display value="Woon-/verblijfadres"/>
                     </coding>
                  </valueCodeableConcept>
               </extension>
               <use value="home"/>
               <type value="physical"/>
               <line value="Knolweg 1000 f">
                  <extension url="http://hl7.org/fhir/StructureDefinition/iso21090-ADXP-streetName">
                     <valueString value="Knolweg"/>
                  </extension>
                  <extension url="http://hl7.org/fhir/StructureDefinition/iso21090-ADXP-houseNumber">
                     <valueString value="1000"/>
                  </extension>
                  <extension url="http://hl7.org/fhir/StructureDefinition/iso21090-ADXP-buildingNumberSuffix">
                     <valueString value="f"/>
                  </extension>
               </line>
               <city value="Stitswerd"/>
               <postalCode value="9999XA"/>
               <country value="6030">
                  <extension url="http://nictiz.nl/fhir/StructureDefinition/code-specification">
                     <valueCodeableConcept>
                        <coding>
                           <system value="urn:oid:2.16.840.1.113883.2.4.4.16.34"/>
                           <code value="6030"/>
                           <display value="Nederland"/>
                        </coding>
                     </valueCodeableConcept>
                  </extension>
               </country>
            </address>
         </Patient>
      </resource>
      <search>
         <mode value="include"/>
      </search>
   </entry>
   <entry>
      <fullUrl value="urn:oid:2.16.528.1.1007.3.1.111111112"/>
      <resource>
         <Practitioner>
            <meta>
               <profile value="http://fhir.nl/fhir/StructureDefinition/nl-core-practitioner"/>
            </meta>
            <text>
               <status value="extensions"/>
               <div xmlns="http://www.w3.org/1999/xhtml">
                  <div>Id 111111112 (UZI-NR-PERS), 
<span title="Naamsamenstelling: Eigennaam">I.N. ter Nist</span>
                  </div>
                  <div>Valkendael 45 1 hoog, 6245HK Maastricht, 6030 (WP)</div>
               </div>
            </text>
            <identifier>
               <system value="http://fhir.nl/fhir/NamingSystem/uzi-nr-pers"/>
               <value value="111111112"/>
            </identifier>
            <name>
               <extension url="http://hl7.org/fhir/StructureDefinition/humanname-assembly-order">
                  <valueCode value="NL1"/>
               </extension>
               <family value="ter Nist">
                  <extension url="http://hl7.org/fhir/StructureDefinition/humanname-own-prefix">
                     <valueString value="ter"/>
                  </extension>
                  <extension url="http://hl7.org/fhir/StructureDefinition/humanname-own-name">
                     <valueString value="Nist"/>
                  </extension>
               </family>
               <given value="I.N.">
                  <extension url="http://hl7.org/fhir/StructureDefinition/iso21090-EN-qualifier">
                     <valueCode value="IN"/>
                  </extension>
               </given>
            </name>
            <address>
               <extension url="http://nictiz.nl/fhir/StructureDefinition/zib-AddressInformation-AddressType">
                  <valueCodeableConcept>
                     <coding>
                        <system value="http://hl7.org/fhir/v3/AddressUse"/>
                        <code value="WP"/>
                        <display value="Werkadres"/>
                     </coding>
                  </valueCodeableConcept>
               </extension>
               <use value="work"/>
               <line value="Valkendael 45 1 hoog">
                  <extension url="http://hl7.org/fhir/StructureDefinition/iso21090-ADXP-streetName">
                     <valueString value="Valkendael"/>
                  </extension>
                  <extension url="http://hl7.org/fhir/StructureDefinition/iso21090-ADXP-houseNumber">
                     <valueString value="45"/>
                  </extension>
                  <extension url="http://hl7.org/fhir/StructureDefinition/iso21090-ADXP-buildingNumberSuffix">
                     <valueString value="1 hoog"/>
                  </extension>
               </line>
               <city value="Maastricht"/>
               <postalCode value="6245HK"/>
               <country value="6030">
                  <extension url="http://nictiz.nl/fhir/StructureDefinition/code-specification">
                     <valueCodeableConcept>
                        <coding>
                           <system value="urn:oid:2.16.840.1.113883.2.4.4.16.34"/>
                           <code value="6030"/>
                           <display value="Nederland"/>
                        </coding>
                     </valueCodeableConcept>
                  </extension>
               </country>
            </address>
         </Practitioner>
      </resource>
      <search>
         <mode value="include"/>
      </search>
   </entry>
   <entry>
      <fullUrl value="urn:oid:2.16.528.1.1007.3.1.222222223"/>
      <resource>
         <Practitioner>
            <meta>
               <profile value="http://fhir.nl/fhir/StructureDefinition/nl-core-practitioner"/>
            </meta>
            <text>
               <status value="extensions"/>
               <div xmlns="http://www.w3.org/1999/xhtml">
                  <div>Id 222222223 (UZI-NR-PERS), 
<span title="Naamsamenstelling: Eigennaam">O. Orthopeed</span>
                  </div>
                  <div>Valkendael 45 2 hoog, 6245HK Maastricht, 6030 (WP)</div>
               </div>
            </text>
            <identifier>
               <system value="http://fhir.nl/fhir/NamingSystem/uzi-nr-pers"/>
               <value value="222222223"/>
            </identifier>
            <name>
               <extension url="http://hl7.org/fhir/StructureDefinition/humanname-assembly-order">
                  <valueCode value="NL1"/>
               </extension>
               <family value="Orthopeed">
                  <extension url="http://hl7.org/fhir/StructureDefinition/humanname-own-name">
                     <valueString value="Orthopeed"/>
                  </extension>
               </family>
               <given value="O.">
                  <extension url="http://hl7.org/fhir/StructureDefinition/iso21090-EN-qualifier">
                     <valueCode value="IN"/>
                  </extension>
               </given>
            </name>
            <address>
               <extension url="http://nictiz.nl/fhir/StructureDefinition/zib-AddressInformation-AddressType">
                  <valueCodeableConcept>
                     <coding>
                        <system value="http://hl7.org/fhir/v3/AddressUse"/>
                        <code value="WP"/>
                        <display value="Werkadres"/>
                     </coding>
                  </valueCodeableConcept>
               </extension>
               <use value="work"/>
               <line value="Valkendael 45 2 hoog">
                  <extension url="http://hl7.org/fhir/StructureDefinition/iso21090-ADXP-streetName">
                     <valueString value="Valkendael"/>
                  </extension>
                  <extension url="http://hl7.org/fhir/StructureDefinition/iso21090-ADXP-houseNumber">
                     <valueString value="45"/>
                  </extension>
                  <extension url="http://hl7.org/fhir/StructureDefinition/iso21090-ADXP-buildingNumberSuffix">
                     <valueString value="2 hoog"/>
                  </extension>
               </line>
               <city value="Maastricht"/>
               <postalCode value="6245HK"/>
               <country value="6030">
                  <extension url="http://nictiz.nl/fhir/StructureDefinition/code-specification">
                     <valueCodeableConcept>
                        <coding>
                           <system value="urn:oid:2.16.840.1.113883.2.4.4.16.34"/>
                           <code value="6030"/>
                           <display value="Nederland"/>
                        </coding>
                     </valueCodeableConcept>
                  </extension>
               </country>
            </address>
         </Practitioner>
      </resource>
      <search>
         <mode value="include"/>
      </search>
   </entry>
   <entry>
      <fullUrl value="urn:oid:2.16.528.1.1007.3.1.333333334"/>
      <resource>
         <Practitioner>
            <meta>
               <profile value="http://fhir.nl/fhir/StructureDefinition/nl-core-practitioner"/>
            </meta>
            <text>
               <status value="extensions"/>
               <div xmlns="http://www.w3.org/1999/xhtml">
                  <div>Id 333333334 (UZI-NR-PERS), 
<span title="Naamsamenstelling: Eigennaam">S. Calpel</span>
                  </div>
                  <div>Valkendael 45 3 hoog, 6245HK Maastricht, 6030 (WP)</div>
               </div>
            </text>
            <identifier>
               <system value="http://fhir.nl/fhir/NamingSystem/uzi-nr-pers"/>
               <value value="333333334"/>
            </identifier>
            <name>
               <extension url="http://hl7.org/fhir/StructureDefinition/humanname-assembly-order">
                  <valueCode value="NL1"/>
               </extension>
               <family value="Calpel">
                  <extension url="http://hl7.org/fhir/StructureDefinition/humanname-own-name">
                     <valueString value="Calpel"/>
                  </extension>
               </family>
               <given value="S.">
                  <extension url="http://hl7.org/fhir/StructureDefinition/iso21090-EN-qualifier">
                     <valueCode value="IN"/>
                  </extension>
               </given>
            </name>
            <address>
               <extension url="http://nictiz.nl/fhir/StructureDefinition/zib-AddressInformation-AddressType">
                  <valueCodeableConcept>
                     <coding>
                        <system value="http://hl7.org/fhir/v3/AddressUse"/>
                        <code value="WP"/>
                        <display value="Werkadres"/>
                     </coding>
                  </valueCodeableConcept>
               </extension>
               <use value="work"/>
               <line value="Valkendael 45 3 hoog">
                  <extension url="http://hl7.org/fhir/StructureDefinition/iso21090-ADXP-streetName">
                     <valueString value="Valkendael"/>
                  </extension>
                  <extension url="http://hl7.org/fhir/StructureDefinition/iso21090-ADXP-houseNumber">
                     <valueString value="45"/>
                  </extension>
                  <extension url="http://hl7.org/fhir/StructureDefinition/iso21090-ADXP-buildingNumberSuffix">
                     <valueString value="3 hoog"/>
                  </extension>
               </line>
               <city value="Maastricht"/>
               <postalCode value="6245HK"/>
               <country value="6030">
                  <extension url="http://nictiz.nl/fhir/StructureDefinition/code-specification">
                     <valueCodeableConcept>
                        <coding>
                           <system value="urn:oid:2.16.840.1.113883.2.4.4.16.34"/>
                           <code value="6030"/>
                           <display value="Nederland"/>
                        </coding>
                     </valueCodeableConcept>
                  </extension>
               </country>
            </address>
         </Practitioner>
      </resource>
      <search>
         <mode value="include"/>
      </search>
   </entry>
   <entry>
      <fullUrl value="urn:oid:2.16.528.1.1007.3.3.3999999"/>
      <resource>
         <Organization>
            <meta>
               <profile value="http://fhir.nl/fhir/StructureDefinition/nl-core-organization"/>
            </meta>
            <text>
               <status value="extensions"/>
               <div xmlns="http://www.w3.org/1999/xhtml">
                  <table>
                     <caption>Organisatie. Id: 03999999 (URA)</caption>
                     <tbody>
                        <tr>
                           <th>Naam</th>
                           <td>Test Medisch Centrum</td>
                        </tr>
                        <tr>
                           <th>Type</th>
                           <td>
                              <span title="Zelfstandig behandelcentrum (Z4 - organization-type)">Zelfstandig behandelcentrum</span>
                           </td>
                        </tr>
                        <tr>
                           <th>Adres</th>
                           <td>Valkendael 45, 6245HK Maastricht, 6030 (WP)</td>
                        </tr>
                     </tbody>
                  </table>
               </div>
            </text>
            <identifier>
               <system value="http://fhir.nl/fhir/NamingSystem/ura"/>
               <value value="03999999"/>
            </identifier>
            <type>
               <coding>
                  <system value="http://nictiz.nl/fhir/NamingSystem/organization-type"/>
                  <code value="Z4"/>
                  <display value="Zelfstandig behandelcentrum"/>
               </coding>
            </type>
            <name value="Test Medisch Centrum"/>
            <address>
               <extension url="http://nictiz.nl/fhir/StructureDefinition/zib-AddressInformation-AddressType">
                  <valueCodeableConcept>
                     <coding>
                        <system value="http://hl7.org/fhir/v3/AddressUse"/>
                        <code value="WP"/>
                        <display value="Werkadres"/>
                     </coding>
                  </valueCodeableConcept>
               </extension>
               <use value="work"/>
               <line value="Valkendael 45">
                  <extension url="http://hl7.org/fhir/StructureDefinition/iso21090-ADXP-streetName">
                     <valueString value="Valkendael"/>
                  </extension>
                  <extension url="http://hl7.org/fhir/StructureDefinition/iso21090-ADXP-houseNumber">
                     <valueString value="45"/>
                  </extension>
               </line>
               <city value="Maastricht"/>
               <postalCode value="6245HK"/>
               <country value="6030">
                  <extension url="http://nictiz.nl/fhir/StructureDefinition/code-specification">
                     <valueCodeableConcept>
                        <coding>
                           <system value="urn:oid:2.16.840.1.113883.2.4.4.16.34"/>
                           <code value="6030"/>
                           <display value="Nederland"/>
                        </coding>
                     </valueCodeableConcept>
                  </extension>
               </country>
            </address>
         </Organization>
      </resource>
      <search>
         <mode value="include"/>
      </search>
   </entry>
   <entry>
      <fullUrl value="urn:uuid:1318d65e-c737-11ee-8910-020000000000"/>
      <resource>
         <PractitionerRole>
            <meta>
               <profile value="http://fhir.nl/fhir/StructureDefinition/nl-core-practitionerrole"/>
            </meta>
            <text>
               <status value="extensions"/>
               <div xmlns="http://www.w3.org/1999/xhtml">
                  <table>
                     <caption>Zorgverlenerrol. </caption>
                     <tbody>
                        <tr>
                           <th>Zorgverlener</th>
                           <td>
                              <div>I.N. ter Nist</div>
                              <div>Test Medisch Centrum</div>
                           </td>
                        </tr>
                        <tr>
                           <th>Specialisme</th>
                           <td>
                              <span title="Medisch specialisten, inwendige geneeskunde (0313 - AGB-medisch specialisme)">Medisch specialisten, inwendige geneeskunde</span>
                           </td>
                        </tr>
                     </tbody>
                  </table>
               </div>
            </text>
            <practitioner>
               <reference value="urn:oid:2.16.528.1.1007.3.1.111111112"/>
               <display value="I.N. ter Nist"/>
            </practitioner>
            <organization>
               <reference value="urn:oid:2.16.528.1.1007.3.3.3999999"/>
               <display value="Test Medisch Centrum"/>
            </organization>
            <specialty>
               <coding>
                  <system value="urn:oid:2.16.840.1.113883.2.4.6.7"/>
                  <version value="2017-12-14T00:00:00"/>
                  <code value="0313"/>
                  <display value="Medisch specialisten, inwendige geneeskunde"/>
               </coding>
            </specialty>
         </PractitionerRole>
      </resource>
      <search>
         <mode value="include"/>
      </search>
   </entry>
   <entry>
      <fullUrl value="urn:uuid:1318d68a-c737-11ee-8910-020000000000"/>
      <resource>
         <PractitionerRole>
            <meta>
               <profile value="http://fhir.nl/fhir/StructureDefinition/nl-core-practitionerrole"/>
            </meta>
            <text>
               <status value="extensions"/>
               <div xmlns="http://www.w3.org/1999/xhtml">
                  <table>
                     <caption>Zorgverlenerrol. </caption>
                     <tbody>
                        <tr>
                           <th>Zorgverlener</th>
                           <td>
                              <div>O. Orthopeed</div>
                              <div>Test Medisch Centrum</div>
                           </td>
                        </tr>
                        <tr>
                           <th>Specialisme</th>
                           <td>
                              <span title="Medisch specialisten, orthopedie (0305 - AGB-medisch specialisme)">Medisch specialisten, orthopedie</span>
                           </td>
                        </tr>
                     </tbody>
                  </table>
               </div>
            </text>
            <practitioner>
               <reference value="urn:oid:2.16.528.1.1007.3.1.222222223"/>
               <display value="O. Orthopeed"/>
            </practitioner>
            <organization>
               <reference value="urn:oid:2.16.528.1.1007.3.3.3999999"/>
               <display value="Test Medisch Centrum"/>
            </organization>
            <specialty>
               <coding>
                  <system value="urn:oid:2.16.840.1.113883.2.4.6.7"/>
                  <version value="2017-12-14T00:00:00"/>
                  <code value="0305"/>
                  <display value="Medisch specialisten, orthopedie"/>
               </coding>
            </specialty>
         </PractitionerRole>
      </resource>
      <search>
         <mode value="include"/>
      </search>
   </entry>
   <entry>
      <fullUrl value="urn:uuid:1318d6b4-c737-11ee-8910-020000000000"/>
      <resource>
         <PractitionerRole>
            <meta>
               <profile value="http://fhir.nl/fhir/StructureDefinition/nl-core-practitionerrole"/>
            </meta>
            <text>
               <status value="extensions"/>
               <div xmlns="http://www.w3.org/1999/xhtml">
                  <table>
                     <caption>Zorgverlenerrol. </caption>
                     <tbody>
                        <tr>
                           <th>Zorgverlener</th>
                           <td>
                              <div>S. Calpel</div>
                              <div>Test Medisch Centrum</div>
                           </td>
                        </tr>
                        <tr>
                           <th>Specialisme</th>
                           <td>
                              <span title="Medisch specialisten, chirurgie (0303 - AGB-medisch specialisme)">Medisch specialisten, chirurgie</span>
                           </td>
                        </tr>
                     </tbody>
                  </table>
               </div>
            </text>
            <practitioner>
               <reference value="urn:oid:2.16.528.1.1007.3.1.333333334"/>
               <display value="S. Calpel"/>
            </practitioner>
            <organization>
               <reference value="urn:oid:2.16.528.1.1007.3.3.3999999"/>
               <display value="Test Medisch Centrum"/>
            </organization>
            <specialty>
               <coding>
                  <system value="urn:oid:2.16.840.1.113883.2.4.6.7"/>
                  <version value="2017-12-14T00:00:00"/>
                  <code value="0303"/>
                  <display value="Medisch specialisten, chirurgie"/>
               </coding>
            </specialty>
         </PractitionerRole>
      </resource>
      <search>
         <mode value="include"/>
      </search>
   </entry>
   <entry>
      <fullUrl value="urn:uuid:1318d6f7-c737-11ee-8910-020000000000"/>
      <resource>
         <RelatedPerson>
            <meta>
               <profile value="http://fhir.nl/fhir/StructureDefinition/nl-core-relatedperson"/>
            </meta>
            <text>
               <status value="extensions"/>
               <div xmlns="http://www.w3.org/1999/xhtml">
                  <div>
                     <span title="Naamsamenstelling: Eigennaam">Meike M.G.J. van Hoof</span>
                  </div>
                  <div>
                     <a href="tel:06-12345678">06-12345678</a> (Mobiel Werk), 
<a href="mailto:m.vanhoof@werkmail.nl">m.vanhoof@werkmail.nl</a> (E-mail Werk)</div>
                  <div>Heuvellaan 10 b, 9999XX Ons Dorp, 6030 (Bezoek)</div>
                  <div>
                     <span title="Eerste relatie/contactpersoon (1 - RoleCodeLijst (COD472-VEKT))">Eerste relatie/contactpersoon</span> van M.P.H. Mike XXX_Smits</div>
               </div>
            </text>
            <extension url="http://fhir.nl/fhir/StructureDefinition/nl-core-relatedperson-role">
               <valueCodeableConcept>
                  <coding>
                     <system value="urn:oid:2.16.840.1.113883.2.4.3.11.22.472"/>
                     <code value="1"/>
                     <display value="Eerste relatie/contactpersoon"/>
                  </coding>
               </valueCodeableConcept>
            </extension>
            <patient>
               <reference value="urn:uuid:1318bbf4-c737-11ee-8910-020000000000"/>
               <display value="M.P.H. Mike XXX_Smits"/>
            </patient>
            <name>
               <extension url="http://hl7.org/fhir/StructureDefinition/humanname-assembly-order">
                  <valueCode value="NL1"/>
               </extension>
               <family value="van Hoof">
                  <extension url="http://hl7.org/fhir/StructureDefinition/humanname-own-prefix">
                     <valueString value="van"/>
                  </extension>
                  <extension url="http://hl7.org/fhir/StructureDefinition/humanname-own-name">
                     <valueString value="Hoof"/>
                  </extension>
               </family>
               <given value="Meike">
                  <extension url="http://hl7.org/fhir/StructureDefinition/iso21090-EN-qualifier">
                     <valueCode value="BR"/>
                  </extension>
               </given>
               <given value="M.G.J.">
                  <extension url="http://hl7.org/fhir/StructureDefinition/iso21090-EN-qualifier">
                     <valueCode value="IN"/>
                  </extension>
               </given>
            </name>
            <telecom>
               <extension url="http://nictiz.nl/fhir/StructureDefinition/zib-ContactInformation-TelecomType">
                  <valueCodeableConcept>
                     <coding>
                        <system value="http://hl7.org/fhir/v3/AddressUse"/>
                        <code value="MC"/>
                        <display value="Mobiel telefoonnummer"/>
                     </coding>
                  </valueCodeableConcept>
               </extension>
               <system value="phone"/>
               <value value="06-12345678"/>
               <use value="work"/>
            </telecom>
            <telecom>
               <system value="email"/>
               <value value="m.vanhoof@werkmail.nl"/>
               <use value="work"/>
            </telecom>
            <address>
               <extension url="http://nictiz.nl/fhir/StructureDefinition/zib-AddressInformation-AddressType">
                  <valueCodeableConcept>
                     <coding>
                        <system value="http://hl7.org/fhir/v3/AddressUse"/>
                        <code value="PHYS"/>
                        <display value="Woon-/verblijfadres"/>
                     </coding>
                  </valueCodeableConcept>
               </extension>
               <use value="home"/>
               <type value="physical"/>
               <line value="Heuvellaan 10 b">
                  <extension url="http://hl7.org/fhir/StructureDefinition/iso21090-ADXP-streetName">
                     <valueString value="Heuvellaan"/>
                  </extension>
                  <extension url="http://hl7.org/fhir/StructureDefinition/iso21090-ADXP-houseNumber">
                     <valueString value="10"/>
                  </extension>
                  <extension url="http://hl7.org/fhir/StructureDefinition/iso21090-ADXP-buildingNumberSuffix">
                     <valueString value="b"/>
                  </extension>
               </line>
               <city value="Ons Dorp"/>
               <postalCode value="9999XX"/>
               <country value="6030">
                  <extension url="http://nictiz.nl/fhir/StructureDefinition/code-specification">
                     <valueCodeableConcept>
                        <coding>
                           <system value="urn:oid:2.16.840.1.113883.2.4.4.16.34"/>
                           <code value="6030"/>
                           <display value="Nederland"/>
                        </coding>
                     </valueCodeableConcept>
                  </extension>
               </country>
            </address>
         </RelatedPerson>
      </resource>
      <search>
         <mode value="include"/>
      </search>
   </entry>
</Bundle>