<?xml-model href="http://hl7.org/fhir/R4/bundle.sch" type="application/xml" schematypens="http://purl.oclc.org/dsdl/schematron"?><Bundle xmlns="http://hl7.org/fhir"
        xmlns:xsi="http://www.w3.org/2001/XMLSchema-instance"
        xsi:schemaLocation="http://hl7.org/fhir https://hl7.org/fhir/R4/bundle.xsd">
   <id value="aa925f6a-8b36-11ec-1401-020000000000"/>
   <type value="searchset"/>
   <total value="1"/>
   <entry>
      <fullUrl value="urn:uuid:aa925fb8-8b36-11ec-1401-020000000000"/>
      <resource>
         <MedicationRequest>
            <id value="21684011138832431199977160760051-MBH920afbouwschemaMA"/>
            <meta>
               <profile value="http://nictiz.nl/fhir/StructureDefinition/nl-core-MedicationAgreement"/>
            </meta>
            <extension url="http://nictiz.nl/fhir/StructureDefinition/ext-RenderedDosageInstruction">
               <valueString value="Vanaf 1 jan 2021, tot en met 11 feb 2021, eerst gedurende 2 weken 1 maal per dag 3 gram, dan gedurende 3 weken 1 maal per dag 2 gram, dan gedurende 6 dagen 1 maal per dag 1 gram, cutaan"/>
            </extension>
            <extension url="http://nictiz.nl/fhir/StructureDefinition/ext-TimeInterval.Period">
               <valuePeriod>
                  <start value="2021-01-01T00:00:00+01:00"/>
                  <end value="2021-02-11T23:59:59+01:00"/>
               </valuePeriod>
            </extension>
            <extension url="http://nictiz.nl/fhir/StructureDefinition/ext-PharmaceuticalTreatment.Identifier">
               <valueIdentifier>
                  <system value="urn:oid:2.16.840.1.113883.2.4.3.11.999.77.1.1"/>
                  <value value="MBH_920_afbouwschema"/>
               </valueIdentifier>
            </extension>
            <identifier>
               <system value="urn:oid:2.16.840.1.113883.2.4.3.11.999.77.16076005.1"/>
               <value value="MBH_920_afbouwschema_MA"/>
            </identifier>
            <status value="unknown"/>
            <intent value="order"/>
            <category>
               <coding>
                  <system value="http://snomed.info/sct"/>
                  <code value="16076005"/>
                  <display value="voorschrijven"/>
               </coding>
            </category>
            <medicationReference>
               <reference value="urn:uuid:aa925fd6-8b36-11ec-1401-020000000000"/>
               <type value="Medication"/>
               <display value="Fusidinezuur creme 20mg/g"/>
            </medicationReference>
            <subject>
               <reference value="urn:uuid:aa925f9a-8b36-11ec-1401-020000000000"/>
               <type value="Patient"/>
               <display value="Patient, G. XXX_Hemsbergen"/>
            </subject>
            <authoredOn value="2021-01-01T08:40:00+01:00"/>
            <requester>
               <reference value="urn:uuid:aa925ff4-8b36-11ec-1401-020000000000"/>
               <type value="PractitionerRole"/>
               <display value="Healthcare professional (role), Peter van Pulver, Huisartsen, niet nader gespecificeerd"/>
            </requester>
            <dosageInstruction>
               <sequence value="1"/>
               <timing>
                  <repeat>
                     <boundsDuration>
                        <value value="2"/>
                        <unit value="week"/>
                        <system value="http://unitsofmeasure.org"/>
                        <code value="wk"/>
                     </boundsDuration>
                     <frequency value="1"/>
                     <period value="1"/>
                     <periodUnit value="d"/>
                  </repeat>
               </timing>
               <route>
                  <coding>
                     <system value="urn:oid:2.16.840.1.113883.2.4.4.9"/>
                     <code value="53"/>
                     <display value="cutaan"/>
                  </coding>
               </route>
               <doseAndRate>
                  <doseQuantity>
                     <extension url="http://hl7.org/fhir/StructureDefinition/iso21090-PQ-translation">
                        <valueQuantity>
                           <value value="3"/>
                           <unit value="gram"/>
                           <system value="urn:oid:2.16.840.1.113883.2.4.4.1.900.2"/>
                           <code value="215"/>
                        </valueQuantity>
                     </extension>
                     <value value="3"/>
                     <unit value="gram"/>
                     <system value="http://unitsofmeasure.org"/>
                     <code value="g"/>
                  </doseQuantity>
               </doseAndRate>
            </dosageInstruction>
            <dosageInstruction>
               <sequence value="2"/>
               <timing>
                  <repeat>
                     <boundsDuration>
                        <value value="3"/>
                        <unit value="week"/>
                        <system value="http://unitsofmeasure.org"/>
                        <code value="wk"/>
                     </boundsDuration>
                     <frequency value="1"/>
                     <period value="1"/>
                     <periodUnit value="d"/>
                  </repeat>
               </timing>
               <route>
                  <coding>
                     <system value="urn:oid:2.16.840.1.113883.2.4.4.9"/>
                     <code value="53"/>
                     <display value="cutaan"/>
                  </coding>
               </route>
               <doseAndRate>
                  <doseQuantity>
                     <extension url="http://hl7.org/fhir/StructureDefinition/iso21090-PQ-translation">
                        <valueQuantity>
                           <value value="2"/>
                           <unit value="gram"/>
                           <system value="urn:oid:2.16.840.1.113883.2.4.4.1.900.2"/>
                           <code value="215"/>
                        </valueQuantity>
                     </extension>
                     <value value="2"/>
                     <unit value="gram"/>
                     <system value="http://unitsofmeasure.org"/>
                     <code value="g"/>
                  </doseQuantity>
               </doseAndRate>
            </dosageInstruction>
            <dosageInstruction>
               <sequence value="3"/>
               <timing>
                  <repeat>
                     <boundsDuration>
                        <value value="6"/>
                        <unit value="dag"/>
                        <system value="http://unitsofmeasure.org"/>
                        <code value="d"/>
                     </boundsDuration>
                     <frequency value="1"/>
                     <period value="1"/>
                     <periodUnit value="d"/>
                  </repeat>
               </timing>
               <route>
                  <coding>
                     <system value="urn:oid:2.16.840.1.113883.2.4.4.9"/>
                     <code value="53"/>
                     <display value="cutaan"/>
                  </coding>
               </route>
               <doseAndRate>
                  <doseQuantity>
                     <extension url="http://hl7.org/fhir/StructureDefinition/iso21090-PQ-translation">
                        <valueQuantity>
                           <value value="1"/>
                           <unit value="gram"/>
                           <system value="urn:oid:2.16.840.1.113883.2.4.4.1.900.2"/>
                           <code value="215"/>
                        </valueQuantity>
                     </extension>
                     <value value="1"/>
                     <unit value="gram"/>
                     <system value="http://unitsofmeasure.org"/>
                     <code value="g"/>
                  </doseQuantity>
               </doseAndRate>
            </dosageInstruction>
         </MedicationRequest>
      </resource>
      <search>
         <mode value="match"/>
      </search>
   </entry>
   <entry>
      <fullUrl value="urn:uuid:aa925f9a-8b36-11ec-1401-020000000000"/>
      <resource>
         <Patient>
            <id value="G.XXX-Hemsbergen"/>
            <meta>
               <profile value="http://nictiz.nl/fhir/StructureDefinition/nl-core-Patient"/>
            </meta>
            <identifier>
               <system value="http://fhir.nl/fhir/NamingSystem/bsn"/>
               <value value="999900602"/>
            </identifier>
            <name>
               <extension url="http://hl7.org/fhir/StructureDefinition/humanname-assembly-order">
                  <valueCode value="NL1"/>
               </extension>
               <use value="official"/>
               <text value="G. XXX_Hemsbergen"/>
               <family value="XXX_Hemsbergen">
                  <extension url="http://hl7.org/fhir/StructureDefinition/humanname-own-name">
                     <valueString value="XXX_Hemsbergen"/>
                  </extension>
               </family>
               <given value="G.">
                  <extension url="http://hl7.org/fhir/StructureDefinition/iso21090-EN-qualifier">
                     <valueCode value="IN"/>
                  </extension>
               </given>
            </name>
            <gender value="female">
               <extension url="http://nictiz.nl/fhir/StructureDefinition/ext-CodeSpecification">
                  <valueCodeableConcept>
                     <coding>
                        <system value="http://terminology.hl7.org/CodeSystem/v3-AdministrativeGender"/>
                        <code value="F"/>
                        <display value="Vrouw"/>
                     </coding>
                  </valueCodeableConcept>
               </extension>
            </gender>
            <birthDate value="1963-11-02"/>
         </Patient>
      </resource>
   </entry>
   <entry>
      <fullUrl value="urn:uuid:aa925ff4-8b36-11ec-1401-020000000000"/>
      <resource>
         <PractitionerRole>
            <id value="000001111-0100-00001111"/>
            <meta>
               <profile value="http://nictiz.nl/fhir/StructureDefinition/nl-core-HealthProfessional-PractitionerRole"/>
            </meta>
            <practitioner>
               <reference value="urn:uuid:aa926012-8b36-11ec-1401-020000000000"/>
               <type value="Practitioner"/>
               <display value="Healthcare professional (person), Peter van Pulver"/>
            </practitioner>
            <organization>
               <reference value="urn:uuid:aa926030-8b36-11ec-1401-020000000000"/>
               <type value="Organization"/>
               <display value="Healthcare provider (organization), Huisartsenpraktijk Pulver &amp; Partners"/>
            </organization>
            <specialty>
               <coding>
                  <system value="urn:oid:2.16.840.1.113883.2.4.6.7"/>
                  <version value="2020-10-23T00:00:00"/>
                  <code value="0100"/>
                  <display value="Huisartsen, niet nader gespecificeerd"/>
               </coding>
            </specialty>
         </PractitionerRole>
      </resource>
   </entry>
   <entry>
      <fullUrl value="urn:uuid:aa926012-8b36-11ec-1401-020000000000"/>
      <resource>
         <Practitioner>
            <id value="2.16.528.1.1007.3.1-000001111"/>
            <meta>
               <profile value="http://nictiz.nl/fhir/StructureDefinition/nl-core-HealthProfessional-Practitioner"/>
            </meta>
            <identifier>
               <system value="http://fhir.nl/fhir/NamingSystem/uzi-nr-pers"/>
               <value value="000001111"/>
            </identifier>
            <name>
               <use value="official"/>
               <text value="Peter van Pulver"/>
               <family value="van Pulver">
                  <extension url="http://hl7.org/fhir/StructureDefinition/humanname-own-prefix">
                     <valueString value="van"/>
                  </extension>
                  <extension url="http://hl7.org/fhir/StructureDefinition/humanname-own-name">
                     <valueString value="Pulver"/>
                  </extension>
               </family>
               <given value="Peter">
                  <extension url="http://hl7.org/fhir/StructureDefinition/iso21090-EN-qualifier">
                     <valueCode value="BR"/>
                  </extension>
               </given>
            </name>
         </Practitioner>
      </resource>
   </entry>
   <entry>
      <fullUrl value="urn:uuid:aa926030-8b36-11ec-1401-020000000000"/>
      <resource>
         <Organization>
            <id value="2.16.528.1.1007.3.3-00001111"/>
            <meta>
               <profile value="http://nictiz.nl/fhir/StructureDefinition/nl-core-HealthcareProvider-Organization"/>
            </meta>
            <identifier>
               <system value="http://fhir.nl/fhir/NamingSystem/ura"/>
               <value value="00001111"/>
            </identifier>
            <name value="Huisartsenpraktijk Pulver &amp; Partners"/>
            <address>
               <extension url="http://nictiz.nl/fhir/StructureDefinition/ext-AddressInformation.AddressType">
                  <valueCodeableConcept>
                     <coding>
                        <system value="http://terminology.hl7.org/CodeSystem/v3-AddressUse"/>
                        <code value="WP"/>
                        <display value="Werkadres"/>
                     </coding>
                  </valueCodeableConcept>
               </extension>
               <use value="work"/>
               <line value="Dorpsstraat 1">
                  <extension url="http://hl7.org/fhir/StructureDefinition/iso21090-ADXP-streetName">
                     <valueString value="Dorpsstraat"/>
                  </extension>
                  <extension url="http://hl7.org/fhir/StructureDefinition/iso21090-ADXP-houseNumber">
                     <valueString value="1"/>
                  </extension>
               </line>
               <city value="Ons Dorp"/>
               <postalCode value="1234AA"/>
            </address>
         </Organization>
      </resource>
   </entry>
   <entry>
      <fullUrl value="urn:uuid:aa925fd6-8b36-11ec-1401-020000000000"/>
      <resource>
         <Medication>
            <id value="2.16.840.1.113883.2.4.4.10-16705"/>
            <meta>
               <profile value="http://nictiz.nl/fhir/StructureDefinition/nl-core-PharmaceuticalProduct"/>
            </meta>
            <code>
               <coding>
                  <system value="urn:oid:2.16.840.1.113883.2.4.4.10"/>
                  <code value="16705"/>
                  <display value="Fusidinezuur creme 20mg/g"/>
                  <userSelected value="true"/>
               </coding>
               <coding>
                  <system value="urn:oid:2.16.840.1.113883.2.4.4.1"/>
                  <code value="73466"/>
                  <display value="Fusidinezuur creme 20mg/g"/>
               </coding>
               <text value="Fusidinezuur creme 20mg/g"/>
            </code>
         </Medication>
      </resource>
   </entry>
</Bundle>
