<?xml-model href="http://hl7.org/fhir/R4/bundle.sch" type="application/xml" schematypens="http://purl.oclc.org/dsdl/schematron"?><Bundle xmlns="http://hl7.org/fhir"
        xmlns:xsi="http://www.w3.org/2001/XMLSchema-instance"
        xsi:schemaLocation="http://hl7.org/fhir https://hl7.org/fhir/R4/bundle.xsd">
   <id value="a6e4fde0-5e55-11ec-8011-020000000000"/>
   <type value="searchset"/>
   <total value="1"/>
   <entry>
      <fullUrl value="urn:uuid:a6e501ef-5e55-11ec-8011-020000000000"/>
      <resource>
         <MedicationStatement>
            <meta>
               <profile value="http://nictiz.nl/fhir/StructureDefinition/nl-core-MedicationUse2"/>
            </meta>
            <extension url="http://nictiz.nl/fhir/StructureDefinition/ext-RenderedDosageInstruction">
               <valueString value="Vanaf 1 jan 2021, tot en met 15 jan 2021, cyclus van 28 dagen: steeds gedurende 21 dagen 1 maal per dag 1 stuk, oraal"/>
            </extension>
            <extension url="http://nictiz.nl/fhir/StructureDefinition/ext-MedicationUse2.Prescriber">
               <valueReference>
                  <reference value="urn:uuid:a6e4fe7e-5e55-11ec-8011-020000000000"/>
                  <type value="PractitionerRole"/>
                  <display value="Healthcare professional (role), Peter van Pulver, Huisartsen, niet nader gespecificeerd"/>
               </valueReference>
            </extension>
            <extension url="http://nictiz.nl/fhir/StructureDefinition/ext-MedicationUse2.AsAgreedIndicator">
               <valueBoolean value="true"/>
            </extension>
            <extension url="http://nictiz.nl/fhir/StructureDefinition/ext-PharmaceuticalTreatment.Identifier">
               <valueIdentifier>
                  <system value="urn:oid:2.16.840.1.113883.2.4.3.11.999.77.1.1"/>
                  <value value="MBH_920_cyclischschema"/>
               </valueIdentifier>
            </extension>
            <extension url="http://nictiz.nl/fhir/StructureDefinition/ext-MedicationUse.Author">
               <valueReference>
                  <reference value="urn:uuid:a6e4fe7e-5e55-11ec-8011-020000000000"/>
                  <type value="PractitionerRole"/>
                  <display value="Healthcare professional (role), Peter van Pulver, Huisartsen, niet nader gespecificeerd"/>
               </valueReference>
            </extension>
            <modifierExtension url="http://nictiz.nl/fhir/StructureDefinition/ext-InstructionsForUse.RepeatPeriodCyclicalSchedule">
               <valueDuration>
                  <value value="28"/>
                  <unit value="dag"/>
                  <system value="http://unitsofmeasure.org"/>
                  <code value="d"/>
               </valueDuration>
            </modifierExtension>
            <identifier>
               <system value="urn:oid:2.16.840.1.113883.2.4.3.11.999.77.6.1"/>
               <value value="MBH_920_cyclischschema_MGB"/>
            </identifier>
            <status value="active"/>
            <category>
               <coding>
                  <system value="http://snomed.info/sct"/>
                  <code value="422979000"/>
                  <display value="bevinding betreffende gedrag met betrekking tot medicatieregime"/>
               </coding>
            </category>
            <medicationReference>
               <reference value="urn:uuid:a6e4feba-5e55-11ec-8011-020000000000"/>
               <type value="Medication"/>
               <display value="ETHINYLESTRADIOL/DESOGESTREL TABLET 30/150UG"/>
            </medicationReference>
            <subject>
               <reference value="urn:uuid:a6e4fe1a-5e55-11ec-8011-020000000000"/>
               <type value="Patient"/>
               <display value="Patient, G. XXX_Hemsbergen"/>
            </subject>
            <effectivePeriod>
               <start value="2021-01-01T00:00:00+01:00"/>
               <end value="2021-01-15T23:59:59+01:00"/>
            </effectivePeriod>
            <dateAsserted value="2021-01-15T23:59:59+01:00"/>
            <informationSource>
               <reference value="urn:uuid:a6e4fe1a-5e55-11ec-8011-020000000000"/>
               <type value="Patient"/>
               <display value="Patient, G. XXX_Hemsbergen"/>
            </informationSource>
            <derivedFrom>
               <identifier>
                  <system value="urn:oid:2.16.840.1.113883.2.4.3.11.999.77.16076005.1"/>
                  <value value="MBH_920_cyclischschema_MA"/>
               </identifier>
               <display value="relatie naar medicatieafspraak"/>
            </derivedFrom>
            <dosage>
               <timing>
                  <repeat>
                     <boundsDuration>
                        <value value="21"/>
                        <unit value="dag"/>
                        <system value="http://unitsofmeasure.org"/>
                        <code value="d"/>
                     </boundsDuration>
                     <frequency value="1"/>
                     <period value="1"/>
                     <periodUnit value="d"/>
                  </repeat>
               </timing>
               <route>
                  <coding>
                     <system value="urn:oid:2.16.840.1.113883.2.4.4.9"/>
                     <code value="9"/>
                     <display value="oraal"/>
                  </coding>
               </route>
               <doseAndRate>
                  <doseQuantity>
                     <extension url="http://hl7.org/fhir/StructureDefinition/iso21090-PQ-translation">
                        <valueQuantity>
                           <value value="1"/>
                           <unit value="stuk"/>
                           <system value="urn:oid:2.16.840.1.113883.2.4.4.1.900.2"/>
                           <code value="245"/>
                        </valueQuantity>
                     </extension>
                     <value value="1"/>
                     <unit value="stuk"/>
                     <system value="http://unitsofmeasure.org"/>
                     <code value="1"/>
                  </doseQuantity>
               </doseAndRate>
            </dosage>
         </MedicationStatement>
      </resource>
      <search>
         <mode value="match"/>
      </search>
   </entry>
   <entry>
      <fullUrl value="urn:uuid:a6e4fe1a-5e55-11ec-8011-020000000000"/>
      <resource>
         <Patient>
            <id value="nl-core-Patient--G-XXX-Hemsbergen"/>
            <meta>
               <profile value="http://nictiz.nl/fhir/StructureDefinition/nl-core-Patient"/>
            </meta>
            <identifier>
               <system value="http://fhir.nl/fhir/NamingSystem/bsn"/>
               <value>
                  <extension url="http://hl7.org/fhir/StructureDefinition/data-absent-reason">
                     <valueCode value="masked"/>
                  </extension>
               </value>
            </identifier>
            <name>
               <extension url="http://hl7.org/fhir/StructureDefinition/humanname-assembly-order">
                  <valueCode value="NL1"/>
               </extension>
               <use value="official"/>
               <text value="G. XXX_Hemsbergen"/>
               <family value="XXX_Hemsbergen">
                  <extension url="http://hl7.org/fhir/StructureDefinition/humanname-own-name">
                     <valueString value="XXX_Hemsbergen"/>
                  </extension>
               </family>
               <given value="G.">
                  <extension url="http://hl7.org/fhir/StructureDefinition/iso21090-EN-qualifier">
                     <valueCode value="IN"/>
                  </extension>
               </given>
            </name>
            <gender value="female">
               <extension url="http://nictiz.nl/fhir/StructureDefinition/ext-CodeSpecification">
                  <valueCodeableConcept>
                     <coding>
                        <system value="http://terminology.hl7.org/CodeSystem/v3-AdministrativeGender"/>
                        <code value="F"/>
                        <display value="Vrouw"/>
                     </coding>
                  </valueCodeableConcept>
               </extension>
            </gender>
            <birthDate value="1963-11-02"/>
         </Patient>
      </resource>
   </entry>
   <entry>
      <fullUrl value="urn:uuid:a6e4fe7e-5e55-11ec-8011-020000000000"/>
      <resource>
         <PractitionerRole>
            <id value="ore-HealthProfessional-PractitionerRole--000001111-0100-00001111"/>
            <meta>
               <profile value="http://nictiz.nl/fhir/StructureDefinition/nl-core-HealthProfessional-PractitionerRole"/>
            </meta>
            <practitioner>
               <reference value="urn:uuid:a6e4fe9c-5e55-11ec-8011-020000000000"/>
               <type value="Practitioner"/>
               <display value="Healthcare professional (person), Peter van Pulver"/>
            </practitioner>
            <organization>
               <reference value="urn:uuid:a6e4fed8-5e55-11ec-8011-020000000000"/>
               <type value="Organization"/>
               <display value="Healthcare provider (organization), Huisartsenpraktijk Pulver &amp; Partners"/>
            </organization>
            <specialty>
               <coding>
                  <system value="urn:oid:2.16.840.1.113883.2.4.6.7"/>
                  <version value="2020-10-23T00:00:00"/>
                  <code value="0100"/>
                  <display value="Huisartsen, niet nader gespecificeerd"/>
               </coding>
            </specialty>
         </PractitionerRole>
      </resource>
   </entry>
   <entry>
      <fullUrl value="urn:uuid:a6e4fe9c-5e55-11ec-8011-020000000000"/>
      <resource>
         <Practitioner>
            <id value="e-HealthProfessional-Practitioner--2-16-528-1-1007-3-1-000001111"/>
            <meta>
               <profile value="http://nictiz.nl/fhir/StructureDefinition/nl-core-HealthProfessional-Practitioner"/>
            </meta>
            <identifier>
               <system value="http://fhir.nl/fhir/NamingSystem/uzi-nr-pers"/>
               <value value="000001111"/>
            </identifier>
            <name>
               <use value="official"/>
               <text value="Peter van Pulver"/>
               <family value="van Pulver">
                  <extension url="http://hl7.org/fhir/StructureDefinition/humanname-own-prefix">
                     <valueString value="van"/>
                  </extension>
                  <extension url="http://hl7.org/fhir/StructureDefinition/humanname-own-name">
                     <valueString value="Pulver"/>
                  </extension>
               </family>
               <given value="Peter">
                  <extension url="http://hl7.org/fhir/StructureDefinition/iso21090-EN-qualifier">
                     <valueCode value="BR"/>
                  </extension>
               </given>
            </name>
         </Practitioner>
      </resource>
   </entry>
   <entry>
      <fullUrl value="urn:uuid:a6e4fed8-5e55-11ec-8011-020000000000"/>
      <resource>
         <Organization>
            <id value="re-HealthcareProvider-Organization--2-16-528-1-1007-3-3-00001111"/>
            <meta>
               <profile value="http://nictiz.nl/fhir/StructureDefinition/nl-core-HealthcareProvider-Organization"/>
            </meta>
            <identifier>
               <system value="http://fhir.nl/fhir/NamingSystem/ura"/>
               <value value="00001111"/>
            </identifier>
            <name value="Huisartsenpraktijk Pulver &amp; Partners"/>
            <address>
               <extension url="http://nictiz.nl/fhir/StructureDefinition/ext-AddressInformation.AddressType">
                  <valueCodeableConcept>
                     <coding>
                        <system value="http://terminology.hl7.org/CodeSystem/v3-AddressUse"/>
                        <code value="WP"/>
                        <display value="Werkadres"/>
                     </coding>
                  </valueCodeableConcept>
               </extension>
               <use value="work"/>
               <line value="Dorpsstraat 1">
                  <extension url="http://hl7.org/fhir/StructureDefinition/iso21090-ADXP-streetName">
                     <valueString value="Dorpsstraat"/>
                  </extension>
                  <extension url="http://hl7.org/fhir/StructureDefinition/iso21090-ADXP-houseNumber">
                     <valueString value="1"/>
                  </extension>
               </line>
               <city value="Ons Dorp"/>
               <postalCode value="1234AA"/>
            </address>
         </Organization>
      </resource>
   </entry>
   <entry>
      <fullUrl value="urn:uuid:a6e4feba-5e55-11ec-8011-020000000000"/>
      <resource>
         <Medication>
            <id value="nl-core-PharmaceuticalProduct--2-16-840-1-113883-2-4-4-10-16292"/>
            <meta>
               <profile value="http://nictiz.nl/fhir/StructureDefinition/nl-core-PharmaceuticalProduct"/>
            </meta>
            <code>
               <coding>
                  <system value="urn:oid:2.16.840.1.113883.2.4.4.10"/>
                  <code value="16292"/>
                  <display value="ETHINYLESTRADIOL/DESOGESTREL TABLET 30/150UG"/>
                  <userSelected value="true"/>
               </coding>
               <coding>
                  <system value="urn:oid:2.16.840.1.113883.2.4.4.1"/>
                  <code value="39578"/>
                  <display value="ETHINYLESTRADIOL/DESOGESTREL TABLET 30/150UG"/>
               </coding>
               <text value="ETHINYLESTRADIOL/DESOGESTREL TABLET 30/150UG"/>
            </code>
         </Medication>
      </resource>
   </entry>
</Bundle>
