<?xml-model href="http://hl7.org/fhir/R4/bundle.sch" type="application/xml" schematypens="http://purl.oclc.org/dsdl/schematron"?><Bundle xmlns="http://hl7.org/fhir"
        xmlns:xsi="http://www.w3.org/2001/XMLSchema-instance"
        xsi:schemaLocation="http://hl7.org/fhir https://hl7.org/fhir/R4/bundle.xsd">
   <id value="53371c6a-5db4-11ec-9711-020000000000"/>
   <type value="searchset"/>
   <total value="1"/>
   <entry>
      <fullUrl value="urn:uuid:5337180b-5db4-11ec-9711-020000000000"/>
      <resource>
         <MedicationDispense>
            <id value="re-AdministrationAgreement--5337180a-5db4-11ec-9711-020000000000"/>
            <meta>
               <profile value="http://nictiz.nl/fhir/StructureDefinition/nl-core-AdministrationAgreement"/>
            </meta>
            <extension url="http://nictiz.nl/fhir/StructureDefinition/ext-AdministrationAgreement.AdministrationAgreementDateTime">
               <valueDateTime value="2021-01-01T13:00:00+01:00"/>
            </extension>
            <extension url="http://nictiz.nl/fhir/StructureDefinition/ext-RenderedDosageInstruction">
               <valueString value="Vanaf 1 jan 2021, tot en met 1 feb 2021, Zo nodig, cutaan"/>
            </extension>
            <extension url="http://nictiz.nl/fhir/StructureDefinition/ext-TimeInterval-Period">
               <valuePeriod>
                  <start value="2021-01-01T00:00:00+01:00"/>
                  <end value="2021-02-01T23:59:59+01:00"/>
               </valuePeriod>
            </extension>
            <extension url="http://nictiz.nl/fhir/StructureDefinition/ext-PharmaceuticalTreatment.Identifier">
               <valueIdentifier>
                  <system value="urn:oid:2.16.840.1.113883.2.4.3.11.999.77.1.1"/>
                  <value value="MBH_920_magistraalalleingredienten"/>
               </valueIdentifier>
            </extension>
            <identifier>
               <system value="urn:oid:2.16.840.1.113883.2.4.3.11.999.77.422037009.1"/>
               <value value="MBH_920_magistraalalleingredienten_TA"/>
            </identifier>
            <status value="unknown"/>
            <category>
               <coding>
                  <system value="http://snomed.info/sct"/>
                  <code value="422037009"/>
                  <display value="toedieningsafspraak"/>
               </coding>
            </category>
            <medicationReference>
               <reference value="urn:uuid:53371d26-5db4-11ec-9711-020000000000"/>
               <type value="Medication"/>
               <display value="overig"/>
            </medicationReference>
            <subject>
               <reference value="urn:uuid:53371ca4-5db4-11ec-9711-020000000000"/>
               <type value="Patient"/>
               <display value="Patient, G. XXX_Hess"/>
            </subject>
            <performer>
               <actor>
                  <reference value="urn:uuid:53371d44-5db4-11ec-9711-020000000000"/>
                  <type value="Organization"/>
                  <display value="Healthcare provider (organization), Apotheek De Gulle Gaper"/>
               </actor>
            </performer>
            <authorizingPrescription>
               <type value="MedicationRequest"/>
               <identifier>
                  <system value="urn:oid:2.16.840.1.113883.2.4.3.11.999.77.16076005.1"/>
                  <value value="MBH_920_magistraalalleingredienten_MA"/>
               </identifier>
               <display value="relatie naar medicatieafspraak met identificatie: MBH_920_magistraalalleingredienten_MA || 2.16.840.1.113883.2.4.3.11.999.77.16076005.1"/>
            </authorizingPrescription>
            <dosageInstruction>
               <asNeededCodeableConcept>
                  <coding>
                     <system value="https://referentiemodel.nhg.org/tabellen/nhg-tabel-25-gebruiksvoorschrift#aanvullend-numeriek"/>
                     <code value="1137"/>
                     <display value="Zo nodig"/>
                  </coding>
               </asNeededCodeableConcept>
               <route>
                  <coding>
                     <system value="urn:oid:2.16.840.1.113883.2.4.4.9"/>
                     <code value="53"/>
                     <display value="cutaan"/>
                  </coding>
               </route>
            </dosageInstruction>
         </MedicationDispense>
      </resource>
      <search>
         <mode value="match"/>
      </search>
   </entry>
   <entry>
      <fullUrl value="urn:uuid:53371ca4-5db4-11ec-9711-020000000000"/>
      <resource>
         <Patient>
            <id value="nl-core-Patient--G.XXX-Hess"/>
            <meta>
               <profile value="http://nictiz.nl/fhir/StructureDefinition/nl-core-Patient"/>
            </meta>
            <identifier>
               <system value="http://fhir.nl/fhir/NamingSystem/bsn"/>
               <value>
                  <extension url="http://hl7.org/fhir/StructureDefinition/data-absent-reason">
                     <valueCode value="masked"/>
                  </extension>
               </value>
            </identifier>
            <name>
               <extension url="http://hl7.org/fhir/StructureDefinition/humanname-assembly-order">
                  <valueCode value="NL1"/>
               </extension>
               <use value="official"/>
               <text value="G. XXX_Hess"/>
               <family value="XXX_Hess">
                  <extension url="http://hl7.org/fhir/StructureDefinition/humanname-own-name">
                     <valueString value="XXX_Hess"/>
                  </extension>
               </family>
               <given value="G.">
                  <extension url="http://hl7.org/fhir/StructureDefinition/iso21090-EN-qualifier">
                     <valueCode value="IN"/>
                  </extension>
               </given>
            </name>
            <gender value="male">
               <extension url="http://nictiz.nl/fhir/StructureDefinition/ext-CodeSpecification">
                  <valueCodeableConcept>
                     <coding>
                        <system value="http://terminology.hl7.org/CodeSystem/v3-AdministrativeGender"/>
                        <code value="M"/>
                        <display value="Man"/>
                     </coding>
                  </valueCodeableConcept>
               </extension>
            </gender>
            <birthDate value="1963-11-03"/>
         </Patient>
      </resource>
   </entry>
   <entry>
      <fullUrl value="urn:uuid:53371d44-5db4-11ec-9711-020000000000"/>
      <resource>
         <Organization>
            <id value="re-HealthcareProvider-Organization--2.16.528.1.1007.3.3-01236578"/>
            <meta>
               <profile value="http://nictiz.nl/fhir/StructureDefinition/nl-core-HealthcareProvider-Organization"/>
            </meta>
            <identifier>
               <system value="http://fhir.nl/fhir/NamingSystem/ura"/>
               <value value="01236578"/>
            </identifier>
            <name value="Apotheek De Gulle Gaper"/>
         </Organization>
      </resource>
   </entry>
   <entry>
      <fullUrl value="urn:uuid:53371d26-5db4-11ec-9711-020000000000"/>
      <resource>
         <Medication>
            <id value="core-PharmaceuticalProduct--5337181f-5db4-11ec-9711-020000000000"/>
            <meta>
               <profile value="http://nictiz.nl/fhir/StructureDefinition/nl-core-PharmaceuticalProduct"/>
            </meta>
            <code>
               <extension url="http://hl7.org/fhir/StructureDefinition/iso21090-nullFlavor">
                  <valueCode value="OTH"/>
               </extension>
               <text value="Ureum 10% in eucerine cum aqua 100gr"/>
            </code>
         </Medication>
      </resource>
   </entry>
</Bundle>
