<Bundle xmlns="http://hl7.org/fhir">
   <id value="c33f0e1c-6a95-11ec-0000-020000000000"/>
   <type value="searchset"/>
   <total value="1"/>
   <entry>
      <fullUrl value="urn:uuid:c33f0e6a-6a95-11ec-0000-020000000000"/>
      <resource>
         <MedicationDispense>
            <id value="mp-MedDsp--MBH200afleverlocatieMVE"/>
            <meta>
               <profile value="http://nictiz.nl/fhir/StructureDefinition/mp-MedicationDispense"/>
            </meta>
            <extension url="http://nictiz.nl/fhir/StructureDefinition/ext-MedicationDispense.RequestDate">
               <valueDateTime value="2022-01-01T11:07:00+01:00"/>
            </extension>
            <extension url="http://nictiz.nl/fhir/StructureDefinition/ext-PharmaceuticalTreatment.Identifier">
               <valueIdentifier>
                  <system value="urn:oid:2.16.840.1.113883.2.4.3.11.999.77.1.1"/>
                  <value value="MBH_200_afleverlocatie"/>
               </valueIdentifier>
            </extension>
            <identifier>
               <system value="urn:oid:2.16.840.1.113883.2.4.3.11.999.77.373784005.1"/>
               <value value="MBH_200_afleverlocatie_MVE"/>
            </identifier>
            <status value="completed"/>
            <category>
               <coding>
                  <system value="http://snomed.info/sct"/>
                  <code value="373784005"/>
                  <display value="verstrekken van medicatie"/>
               </coding>
            </category>
            <medicationReference>
               <reference value="urn:uuid:c33f0ea6-6a95-11ec-0000-020000000000"/>
               <type value="Medication"/>
               <display value="BROXIL CAPSULE 500MG"/>
            </medicationReference>
            <subject>
               <reference value="urn:uuid:c33f0e4c-6a95-11ec-0000-020000000000"/>
               <type value="Patient"/>
               <display value="Patient, M. XXX_Nederveen"/>
            </subject>
            <performer>
               <actor>
                  <reference value="urn:uuid:c33f0ec4-6a95-11ec-0000-020000000000"/>
                  <type value="Organization"/>
                  <display value="Healthcare provider (organization), Apotheek De Gulle Gaper"/>
               </actor>
            </performer>
            <authorizingPrescription>
               <type value="MedicationRequest"/>
               <identifier>
                  <system value="urn:oid:2.16.840.1.113883.2.4.3.11.999.77.52711000146108.1"/>
                  <value value="MBH_200_afleverlocatie_VV"/>
               </identifier>
               <display value="relatie naar verstrekkingsverzoek met identificatie: MBH_200_afleverlocatie_VV || 2.16.840.1.113883.2.4.3.11.999.77.52711000146108.1"/>
            </authorizingPrescription>
            <quantity>
               <extension url="http://hl7.org/fhir/StructureDefinition/iso21090-PQ-translation">
                  <valueQuantity>
                     <value value="30"/>
                     <unit value="stuk"/>
                     <system value="urn:oid:2.16.840.1.113883.2.4.4.1.900.2"/>
                     <code value="245"/>
                  </valueQuantity>
               </extension>
               <value value="30"/>
               <unit value="stuk"/>
               <system value="http://unitsofmeasure.org"/>
               <code value="1"/>
            </quantity>
            <whenHandedOver value="2022-01-01T12:07:00+01:00"/>
            <destination>
               <reference value="urn:uuid:c33f0e88-6a95-11ec-0000-020000000000"/>
               <type value="Location"/>
               <display value="afleverlocatie"/>
            </destination>
         </MedicationDispense>
      </resource>
      <search>
         <mode value="match"/>
      </search>
   </entry>
   <entry>
      <fullUrl value="urn:uuid:c33f0e4c-6a95-11ec-0000-020000000000"/>
      <resource>
         <Patient>
            <id value="nl-core-Patient--M-XXX-Nederveen"/>
            <meta>
               <profile value="http://nictiz.nl/fhir/StructureDefinition/nl-core-Patient"/>
            </meta>
            <identifier>
               <system value="http://fhir.nl/fhir/NamingSystem/bsn"/>
               <value value="999900833"/>
            </identifier>
            <name>
               <extension url="http://hl7.org/fhir/StructureDefinition/humanname-assembly-order">
                  <valueCode value="NL1"/>
               </extension>
               <use value="official"/>
               <text value="M. XXX_Nederveen"/>
               <family value="XXX_Nederveen">
                  <extension url="http://hl7.org/fhir/StructureDefinition/humanname-own-name">
                     <valueString value="XXX_Nederveen"/>
                  </extension>
               </family>
               <given value="M.">
                  <extension url="http://hl7.org/fhir/StructureDefinition/iso21090-EN-qualifier">
                     <valueCode value="IN"/>
                  </extension>
               </given>
            </name>
            <gender value="female">
               <extension url="http://nictiz.nl/fhir/StructureDefinition/ext-CodeSpecification">
                  <valueCodeableConcept>
                     <coding>
                        <system value="http://terminology.hl7.org/CodeSystem/v3-AdministrativeGender"/>
                        <code value="F"/>
                        <display value="Vrouw"/>
                     </coding>
                  </valueCodeableConcept>
               </extension>
            </gender>
            <birthDate value="1985-10-28"/>
         </Patient>
      </resource>
      <search>
         <mode value="match"/>
      </search>
   </entry>
   <entry>
      <fullUrl value="urn:uuid:c33f0ec4-6a95-11ec-0000-020000000000"/>
      <resource>
         <Organization>
            <id value="nl-core-HPrv-Org--2165281100733-01236578"/>
            <meta>
               <profile value="http://nictiz.nl/fhir/StructureDefinition/nl-core-HealthcareProvider-Organization"/>
            </meta>
            <identifier>
               <system value="http://fhir.nl/fhir/NamingSystem/ura"/>
               <value value="01236578"/>
            </identifier>
            <name value="Apotheek De Gulle Gaper"/>
         </Organization>
      </resource>
      <search>
         <mode value="match"/>
      </search>
   </entry>
   <entry>
      <fullUrl value="urn:uuid:c33f0ea6-6a95-11ec-0000-020000000000"/>
      <resource>
         <Medication>
            <id value="nl-core-PhPrd--21684011138832447-425087"/>
            <meta>
               <profile value="http://nictiz.nl/fhir/StructureDefinition/nl-core-PharmaceuticalProduct"/>
            </meta>
            <code>
               <coding>
                  <system value="urn:oid:2.16.840.1.113883.2.4.4.7"/>
                  <code value="425087"/>
                  <display value="BROXIL CAPSULE 500MG"/>
                  <userSelected value="true"/>
               </coding>
               <coding>
                  <system value="urn:oid:2.16.840.1.113883.2.4.4.10"/>
                  <code value="17205"/>
                  <display value="FENETICILLINE CAPSULE 500MG"/>
               </coding>
               <coding>
                  <system value="urn:oid:2.16.840.1.113883.2.4.4.1"/>
                  <code value="41092"/>
                  <display value="FENETICILLINE 500MG CAPSULE"/>
               </coding>
               <text value="BROXIL CAPSULE 500MG"/>
            </code>
         </Medication>
      </resource>
      <search>
         <mode value="match"/>
      </search>
   </entry>
   <entry>
      <fullUrl value="urn:uuid:c33f0e88-6a95-11ec-0000-020000000000"/>
      <resource>
         <Location>
            <id value="nl-core-Dummy--Dorpsrand2001256ZZOnsDorp"/>
            <name value="Dorpsrand 200,1256ZZ Ons Dorp"/>
         </Location>
      </resource>
      <search>
         <mode value="match"/>
      </search>
   </entry>
</Bundle>