<Bundle xmlns="http://hl7.org/fhir">
   <id value="mg-mp-mg-tst-MTD-Scenarioset2-v30"/>
   <type value="transaction"/>
   <entry>
      <fullUrl value="urn:uuid:f018880f-6ab2-11ec-0000-020000000000"/>
      <resource>
         <MedicationAdministration>
            <meta>
               <profile value="http://nictiz.nl/fhir/StructureDefinition/mp-MedicationAdministration2"/>
            </meta>
            <extension url="http://nictiz.nl/fhir/StructureDefinition/ext-RegistrationDateTime">
               <valueDateTime value="${DATE, T, D, -18}T10:33:47+02:00"/>
            </extension>
            <extension url="http://nictiz.nl/fhir/StructureDefinition/ext-PharmaceuticalTreatment.Identifier">
               <valueIdentifier>
                  <system value="urn:oid:2.16.840.1.113883.2.4.3.11.999.77.1.1"/>
                  <value value="MBH_300_toelichting"/>
               </valueIdentifier>
            </extension>
            <identifier>
               <system value="urn:oid:2.16.840.1.113883.2.4.3.11.999.77.18629005.1"/>
               <value value="MBH_300_toelichting_MTD"/>
            </identifier>
            <status value="unknown"/>
            <category>
               <coding>
                  <system value="http://snomed.info/sct"/>
                  <code value="18629005"/>
                  <display value="toediening van medicatie"/>
               </coding>
            </category>
            <medicationReference>
               <reference value="urn:uuid:ff75311d-6b1a-11ec-0000-020000000000"/>
               <type value="Medication"/>
               <display value="FUROSEMIDE SANDOZ TABLET 40MG"/>
            </medicationReference>
            <subject>
               <reference value="urn:uuid:72cf5c78-6afc-11ec-0000-020000000000"/>
               <type value="Patient"/>
               <display value="Patient, D. XXX_Dixhoorn"/>
            </subject>
            <supportingInformation>
               <type value="MedicationDispense"/>
               <identifier>
                  <system value="urn:oid:2.16.840.1.113883.2.4.3.11.999.77.422037009.1"/>
                  <value value="MBH_300_toelichting_TA"/>
               </identifier>
               <display value="relatie naar toedieningsafspraak met identificatie: MBH_300_toelichting_TA || 2.16.840.1.113883.2.4.3.11.999.77.422037009.1"/>
            </supportingInformation>
            <effectiveDateTime value="${DATE, T, D, -18}T10:33:47+02:00"/>
            <performer>
               <actor>
                  <reference value="urn:uuid:a757282e-6b76-11ec-0000-020000000000"/>
                  <type value="PractitionerRole"/>
                  <display value="Healthcare professional (role), Jantien Toedien, Verpleegkundigen, niet nader gespecificeerd, Thuiszorg Om en Bij"/>
               </actor>
            </performer>
            <note>
               <text value="In overleg met specialist"/>
            </note>
            <dosage>
               <route>
                  <coding>
                     <system value="urn:oid:2.16.840.1.113883.2.4.4.9"/>
                     <code value="9"/>
                     <display value="Oraal"/>
                  </coding>
               </route>
               <dose>
                  <extension url="http://hl7.org/fhir/StructureDefinition/iso21090-PQ-translation">
                     <valueQuantity>
                        <value value="1"/>
                        <unit value="stuk"/>
                        <system value="urn:oid:2.16.840.1.113883.2.4.4.1.900.2"/>
                        <code value="245"/>
                     </valueQuantity>
                  </extension>
                  <value value="1"/>
                  <unit value="stuk"/>
                  <system value="http://unitsofmeasure.org"/>
                  <code value="1"/>
               </dose>
            </dosage>
         </MedicationAdministration>
      </resource>
      <request>
         <method value="POST"/>
         <url value="MedicationAdministration"/>
      </request>
   </entry>
   <entry>
      <fullUrl value="urn:uuid:f8939f5d-6aed-11ec-0000-020000000000"/>
      <resource>
         <MedicationAdministration>
            <meta>
               <profile value="http://nictiz.nl/fhir/StructureDefinition/mp-MedicationAdministration2"/>
            </meta>
            <extension url="http://nictiz.nl/fhir/StructureDefinition/ext-RegistrationDateTime">
               <valueDateTime value="${DATE, T, D, -4}T11:26:44+02:00"/>
            </extension>
            <extension url="http://nictiz.nl/fhir/StructureDefinition/ext-PharmaceuticalTreatment.Identifier">
               <valueIdentifier>
                  <system value="urn:oid:2.16.840.1.113883.2.4.3.11.999.77.1.1"/>
                  <value value="MBH_300_Toedieningsweg"/>
               </valueIdentifier>
            </extension>
            <identifier>
               <system value="urn:oid:2.16.840.1.113883.2.4.3.11.999.77.18629005.1"/>
               <value value="MBH_300_Toedieningsweg_MTD"/>
            </identifier>
            <status value="unknown"/>
            <category>
               <coding>
                  <system value="http://snomed.info/sct"/>
                  <code value="18629005"/>
                  <display value="toediening van medicatie"/>
               </coding>
            </category>
            <medicationReference>
               <reference value="urn:uuid:2467cc04-6b6e-11ec-0000-020000000000"/>
               <type value="Medication"/>
               <display value="SOFRADEX OORDRUPPELS"/>
            </medicationReference>
            <subject>
               <reference value="urn:uuid:72cf5c78-6afc-11ec-0000-020000000000"/>
               <type value="Patient"/>
               <display value="Patient, D. XXX_Dixhoorn"/>
            </subject>
            <supportingInformation>
               <type value="MedicationDispense"/>
               <identifier>
                  <system value="urn:oid:2.16.840.1.113883.2.4.3.11.999.77.422037009.1"/>
                  <value value="MBH_300_Toedieningsweg_TA"/>
               </identifier>
               <display value="relatie naar toedieningsafspraak met identificatie: MBH_300_Toedieningsweg_TA || 2.16.840.1.113883.2.4.3.11.999.77.422037009.1"/>
            </supportingInformation>
            <effectiveDateTime value="${DATE, T, D, -4}T11:26:00+02:00"/>
            <performer>
               <actor>
                  <reference value="urn:uuid:a757282e-6b76-11ec-0000-020000000000"/>
                  <type value="PractitionerRole"/>
                  <display value="Healthcare professional (role), Jantien Toedien, Verpleegkundigen, niet nader gespecificeerd, Thuiszorg Om en Bij"/>
               </actor>
            </performer>
            <dosage>
               <route>
                  <coding>
                     <system value="urn:oid:2.16.840.1.113883.2.4.4.9"/>
                     <code value="7"/>
                     <display value="Oculair"/>
                  </coding>
               </route>
               <dose>
                  <extension url="http://hl7.org/fhir/StructureDefinition/iso21090-PQ-translation">
                     <valueQuantity>
                        <value value="1"/>
                        <unit value="Druppel"/>
                        <system value="urn:oid:2.16.840.1.113883.2.4.4.1.900.2"/>
                        <code value="303"/>
                     </valueQuantity>
                  </extension>
                  <value value="1"/>
                  <unit value="Druppel"/>
                  <system value="http://unitsofmeasure.org"/>
                  <code value="[drp]"/>
               </dose>
            </dosage>
         </MedicationAdministration>
      </resource>
      <request>
         <method value="POST"/>
         <url value="MedicationAdministration"/>
      </request>
   </entry>
   <entry>
      <fullUrl value="urn:uuid:72cf5c78-6afc-11ec-0000-020000000000"/>
      <resource>
         <Patient>
            <meta>
               <profile value="http://nictiz.nl/fhir/StructureDefinition/nl-core-Patient"/>
            </meta>
            <identifier>
               <system value="http://fhir.nl/fhir/NamingSystem/bsn"/>
               <value value="999900481"/>
            </identifier>
            <name>
               <extension url="http://hl7.org/fhir/StructureDefinition/humanname-assembly-order">
                  <valueCode value="NL1"/>
               </extension>
               <use value="official"/>
               <text value="D. XXX_Dixhoorn"/>
               <family value="XXX_Dixhoorn">
                  <extension url="http://hl7.org/fhir/StructureDefinition/humanname-own-name">
                     <valueString value="XXX_Dixhoorn"/>
                  </extension>
               </family>
               <given value="D.">
                  <extension url="http://hl7.org/fhir/StructureDefinition/iso21090-EN-qualifier">
                     <valueCode value="IN"/>
                  </extension>
               </given>
            </name>
            <gender value="male">
               <extension url="http://nictiz.nl/fhir/StructureDefinition/ext-CodeSpecification">
                  <valueCodeableConcept>
                     <coding>
                        <system value="http://terminology.hl7.org/CodeSystem/v3-AdministrativeGender"/>
                        <code value="M"/>
                        <display value="Man"/>
                     </coding>
                  </valueCodeableConcept>
               </extension>
            </gender>
            <birthDate value="1963-10-22"/>
         </Patient>
      </resource>
      <request>
         <method value="POST"/>
         <url value="Patient"/>
      </request>
   </entry>
   <entry>
      <fullUrl value="urn:uuid:a757282e-6b76-11ec-0000-020000000000"/>
      <resource>
         <PractitionerRole>
            <meta>
               <profile value="http://nictiz.nl/fhir/StructureDefinition/nl-core-HealthProfessional-PractitionerRole"/>
            </meta>
            <practitioner>
               <reference value="urn:uuid:f1e8c824-6b20-11ec-0000-020000000000"/>
               <type value="Practitioner"/>
               <display value="Healthcare professional (person), Jantien Toedien"/>
            </practitioner>
            <organization>
               <reference value="urn:uuid:b0d9956e-6a9d-11ec-0000-020000000000"/>
               <type value="Organization"/>
               <display value="Healthcare provider (organization), Thuiszorg Om en Bij"/>
            </organization>
            <specialty>
               <coding>
                  <system value="urn:oid:2.16.840.1.113883.2.4.6.7"/>
                  <version value="2020-10-23T00:00:00"/>
                  <code value="9100"/>
                  <display value="Verpleegkundigen, niet nader gespecificeerd"/>
               </coding>
            </specialty>
         </PractitionerRole>
      </resource>
      <request>
         <method value="POST"/>
         <url value="PractitionerRole"/>
      </request>
   </entry>
   <entry>
      <fullUrl value="urn:uuid:f1e8c824-6b20-11ec-0000-020000000000"/>
      <resource>
         <Practitioner>
            <meta>
               <profile value="http://nictiz.nl/fhir/StructureDefinition/nl-core-HealthProfessional-Practitioner"/>
            </meta>
            <identifier>
               <system value="http://fhir.nl/fhir/NamingSystem/uzi-nr-pers"/>
               <value value="222220000"/>
            </identifier>
            <name>
               <use value="official"/>
               <text value="Jantien Toedien"/>
               <family value="Toedien">
                  <extension url="http://hl7.org/fhir/StructureDefinition/humanname-own-name">
                     <valueString value="Toedien"/>
                  </extension>
               </family>
               <given value="Jantien">
                  <extension url="http://hl7.org/fhir/StructureDefinition/iso21090-EN-qualifier">
                     <valueCode value="BR"/>
                  </extension>
               </given>
            </name>
         </Practitioner>
      </resource>
      <request>
         <method value="POST"/>
         <url value="Practitioner"/>
      </request>
   </entry>
   <entry>
      <fullUrl value="urn:uuid:b0d9956e-6a9d-11ec-0000-020000000000"/>
      <resource>
         <Organization>
            <meta>
               <profile value="http://nictiz.nl/fhir/StructureDefinition/nl-core-HealthcareProvider-Organization"/>
            </meta>
            <identifier>
               <system value="http://fhir.nl/fhir/NamingSystem/ura"/>
               <value value="11110000"/>
            </identifier>
            <type>
               <coding>
                  <system value="http://nictiz.nl/fhir/NamingSystem/organization-type"/>
                  <code value="T2"/>
                  <display value="Thuiszorg"/>
               </coding>
            </type>
            <name value="Thuiszorg Om en Bij"/>
         </Organization>
      </resource>
      <request>
         <method value="POST"/>
         <url value="Organization"/>
      </request>
   </entry>
   <entry>
      <fullUrl value="urn:uuid:2467cc04-6b6e-11ec-0000-020000000000"/>
      <resource>
         <Medication>
            <meta>
               <profile value="http://nictiz.nl/fhir/StructureDefinition/mp-PharmaceuticalProduct"/>
            </meta>
            <code>
               <coding>
                  <system value="urn:oid:2.16.840.1.113883.2.4.4.7"/>
                  <code value="644781"/>
                  <display value="SOFRADEX OORDRUPPELS"/>
                  <userSelected value="true"/>
               </coding>
               <coding>
                  <system value="urn:oid:2.16.840.1.113883.2.4.4.10"/>
                  <code value="80691"/>
                  <display value="DEXAMETHASON/FRAMYCETINE/GRAMICIDINE OORDR"/>
               </coding>
               <coding>
                  <system value="urn:oid:2.16.840.1.113883.2.4.4.1"/>
                  <code value="79804"/>
                  <display value="DEXAMETHASON/FRAMYCETINE/GRAMICIDINE OORDR"/>
               </coding>
               <text value="SOFRADEX OORDRUPPELS"/>
            </code>
         </Medication>
      </resource>
      <request>
         <method value="POST"/>
         <url value="Medication"/>
      </request>
   </entry>
   <entry>
      <fullUrl value="urn:uuid:ff75311d-6b1a-11ec-0000-020000000000"/>
      <resource>
         <Medication>
            <meta>
               <profile value="http://nictiz.nl/fhir/StructureDefinition/mp-PharmaceuticalProduct"/>
            </meta>
            <code>
               <coding>
                  <system value="urn:oid:2.16.840.1.113883.2.4.4.7"/>
                  <code value="598860"/>
                  <display value="FUROSEMIDE SANDOZ TABLET 40MG"/>
                  <userSelected value="true"/>
               </coding>
               <coding>
                  <system value="urn:oid:2.16.840.1.113883.2.4.4.10"/>
                  <code value="5967"/>
                  <display value="FUROSEMIDE 40MG TABLET"/>
               </coding>
               <coding>
                  <system value="urn:oid:2.16.840.1.113883.2.4.4.1"/>
                  <code value="16810"/>
                  <display value="FUROSEMIDE 40MG TABLET"/>
               </coding>
               <text value="FUROSEMIDE SANDOZ TABLET 40MG"/>
            </code>
         </Medication>
      </resource>
      <request>
         <method value="POST"/>
         <url value="Medication"/>
      </request>
   </entry>
</Bundle>
