<?xml version="1.0" encoding="UTF-8"?>
<?xml-model href="http://hl7.org/fhir/STU3/bundle.sch" type="application/xml" schematypens="http://purl.oclc.org/dsdl/schematron"?>
<Bundle xmlns="http://hl7.org/fhir"
        xmlns:xsi="http://www.w3.org/2001/XMLSchema-instance"
        xsi:schemaLocation="http://hl7.org/fhir http://hl7.org/fhir/STU3/bundle.xsd">
   <type value="searchset"/>
   <total value="29"/>
   <entry>
      <fullUrl value="urn:uuid:c6d90c8b-d186-11e9-1855-020000000000"/>
      <resource>
         <MedicationDispense>
            <meta>
               <profile value="http://nictiz.nl/fhir/StructureDefinition/zib-AdministrationAgreement"/>
            </meta>
            <extension url="http://nictiz.nl/fhir/StructureDefinition/zib-AdministrationAgreement-AuthoredOn">
               <valueDateTime value="2016-03-03"/>
            </extension>
            <extension url="http://nictiz.nl/fhir/StructureDefinition/zib-Medication-MedicationTreatment">
               <valueIdentifier>
                  <system value="urn:oid:2.16.528.1.1007.3.3.1234567.3"/>
                  <value value="MedBehConverted_mag01"/>
               </valueIdentifier>
            </extension>
            <identifier>
               <system value="urn:oid:2.16.528.1.1007.3.3.1234567.3"/>
               <value value="TAConverted_mag01"/>
            </identifier>
            <category>
               <coding>
                  <system value="http://snomed.info/sct"/>
                  <code value="422037009"/>
                  <display value="Provider medication administration instructions (procedure)"/>
               </coding>
               <text value="Toedieningsafspraak"/>
            </category>
            <medicationReference>
               <reference value="urn:uuid:c6d90c95-d186-11e9-1855-020000000000"/>
               <display value="Hydrocortison zetpil 100 mg"/>
            </medicationReference>
            <subject>
               <reference value="urn:uuid:c6d8fff0-d186-11e9-1855-020000000000"/>
               <display value="J.J. le Noble van Son"/>
            </subject>
            <performer>
               <actor>
                  <reference value="urn:oid:2.16.528.1.1007.3.3.1234567"/>
               </actor>
            </performer>
            <authorizingPrescription>
               <identifier>
                  <system value="'2.16.840.1.113883.5.1008'"/>
                  <value value="NI"/>
               </identifier>
               <display value="relatie naar medicatieafspraak: NI || '2.16.840.1.113883.5.1008'"/>
            </authorizingPrescription>
            <dosageInstruction>
               <text value="gebruik volgens schema"/>
               <additionalInstruction>
                  <coding>
                     <system value="https://referentiemodel.nhg.org/tabellen/nhg-tabel-25-gebruiksvoorschrift#aanvullend-numeriek"/>
                     <code value="1131"/>
                     <display value="gebruik volgens schema"/>
                  </coding>
               </additionalInstruction>
               <route>
                  <extension url="http://hl7.org/fhir/StructureDefinition/iso21090-nullFlavor">
                     <valueCode value="NI"/>
                  </extension>
               </route>
            </dosageInstruction>
         </MedicationDispense>
      </resource>
   </entry>
   <entry>
      <fullUrl value="urn:uuid:c6d9150e-d186-11e9-1855-020000000000"/>
      <resource>
         <MedicationDispense>
            <meta>
               <profile value="http://nictiz.nl/fhir/StructureDefinition/zib-AdministrationAgreement"/>
            </meta>
            <extension url="http://nictiz.nl/fhir/StructureDefinition/zib-AdministrationAgreement-AuthoredOn">
               <valueDateTime value="2016-03-03"/>
            </extension>
            <extension url="http://nictiz.nl/fhir/StructureDefinition/zib-Medication-MedicationTreatment">
               <valueIdentifier>
                  <system value="urn:oid:2.16.528.1.1007.3.3.1234567.3"/>
                  <value value="MedBehConverted_mag02"/>
               </valueIdentifier>
            </extension>
            <identifier>
               <system value="urn:oid:2.16.528.1.1007.3.3.1234567.3"/>
               <value value="TAConverted_mag02"/>
            </identifier>
            <category>
               <coding>
                  <system value="http://snomed.info/sct"/>
                  <code value="422037009"/>
                  <display value="Provider medication administration instructions (procedure)"/>
               </coding>
               <text value="Toedieningsafspraak"/>
            </category>
            <medicationReference>
               <reference value="urn:uuid:c6d91517-d186-11e9-1855-020000000000"/>
               <display value="Ketoconazol crème met 20% vaseline en 0,1% triam acet"/>
            </medicationReference>
            <subject>
               <reference value="urn:uuid:c6d8fff0-d186-11e9-1855-020000000000"/>
               <display value="J.J. le Noble van Son"/>
            </subject>
            <performer>
               <actor>
                  <reference value="urn:oid:2.16.528.1.1007.3.3.1234567"/>
               </actor>
            </performer>
            <authorizingPrescription>
               <identifier>
                  <system value="'2.16.840.1.113883.5.1008'"/>
                  <value value="NI"/>
               </identifier>
               <display value="relatie naar medicatieafspraak: NI || '2.16.840.1.113883.5.1008'"/>
            </authorizingPrescription>
            <dosageInstruction>
               <text value="gebruik volgens schema"/>
               <additionalInstruction>
                  <coding>
                     <system value="https://referentiemodel.nhg.org/tabellen/nhg-tabel-25-gebruiksvoorschrift#aanvullend-numeriek"/>
                     <code value="1131"/>
                     <display value="gebruik volgens schema"/>
                  </coding>
               </additionalInstruction>
               <route>
                  <extension url="http://hl7.org/fhir/StructureDefinition/iso21090-nullFlavor">
                     <valueCode value="NI"/>
                  </extension>
               </route>
            </dosageInstruction>
         </MedicationDispense>
      </resource>
   </entry>
   <entry>
      <fullUrl value="urn:uuid:c6d9156f-d186-11e9-1855-020000000000"/>
      <resource>
         <MedicationDispense>
            <meta>
               <profile value="http://nictiz.nl/fhir/StructureDefinition/zib-AdministrationAgreement"/>
            </meta>
            <extension url="http://nictiz.nl/fhir/StructureDefinition/zib-AdministrationAgreement-AuthoredOn">
               <valueDateTime value="2016-03-03"/>
            </extension>
            <extension url="http://nictiz.nl/fhir/StructureDefinition/zib-Medication-MedicationTreatment">
               <valueIdentifier>
                  <system value="urn:oid:2.16.528.1.1007.3.3.1234567.3"/>
                  <value value="MedBehConverted_mag03"/>
               </valueIdentifier>
            </extension>
            <identifier>
               <system value="urn:oid:2.16.528.1.1007.3.3.1234567.3"/>
               <value value="TAConverted_mag03"/>
            </identifier>
            <category>
               <coding>
                  <system value="http://snomed.info/sct"/>
                  <code value="422037009"/>
                  <display value="Provider medication administration instructions (procedure)"/>
               </coding>
               <text value="Toedieningsafspraak"/>
            </category>
            <medicationReference>
               <reference value="urn:uuid:c6d91578-d186-11e9-1855-020000000000"/>
               <display value="Nafazoline oogdruppels 0,025% ex FNA"/>
            </medicationReference>
            <subject>
               <reference value="urn:uuid:c6d8fff0-d186-11e9-1855-020000000000"/>
               <display value="J.J. le Noble van Son"/>
            </subject>
            <performer>
               <actor>
                  <reference value="urn:oid:2.16.528.1.1007.3.3.1234567"/>
               </actor>
            </performer>
            <authorizingPrescription>
               <identifier>
                  <system value="'2.16.840.1.113883.5.1008'"/>
                  <value value="NI"/>
               </identifier>
               <display value="relatie naar medicatieafspraak: NI || '2.16.840.1.113883.5.1008'"/>
            </authorizingPrescription>
            <dosageInstruction>
               <text value="gebruik volgens schema"/>
               <additionalInstruction>
                  <coding>
                     <system value="https://referentiemodel.nhg.org/tabellen/nhg-tabel-25-gebruiksvoorschrift#aanvullend-numeriek"/>
                     <code value="1131"/>
                     <display value="gebruik volgens schema"/>
                  </coding>
               </additionalInstruction>
               <route>
                  <extension url="http://hl7.org/fhir/StructureDefinition/iso21090-nullFlavor">
                     <valueCode value="NI"/>
                  </extension>
               </route>
            </dosageInstruction>
         </MedicationDispense>
      </resource>
   </entry>
   <entry>
      <fullUrl value="urn:uuid:c6d915be-d186-11e9-1855-020000000000"/>
      <resource>
         <MedicationDispense>
            <meta>
               <profile value="http://nictiz.nl/fhir/StructureDefinition/zib-AdministrationAgreement"/>
            </meta>
            <extension url="http://nictiz.nl/fhir/StructureDefinition/zib-AdministrationAgreement-AuthoredOn">
               <valueDateTime value="2016-03-03"/>
            </extension>
            <extension url="http://nictiz.nl/fhir/StructureDefinition/zib-Medication-MedicationTreatment">
               <valueIdentifier>
                  <system value="urn:oid:2.16.528.1.1007.3.3.1234567.3"/>
                  <value value="MedBehConverted_mag04"/>
               </valueIdentifier>
            </extension>
            <identifier>
               <system value="urn:oid:2.16.528.1.1007.3.3.1234567.3"/>
               <value value="TAConverted_mag04"/>
            </identifier>
            <category>
               <coding>
                  <system value="http://snomed.info/sct"/>
                  <code value="422037009"/>
                  <display value="Provider medication administration instructions (procedure)"/>
               </coding>
               <text value="Toedieningsafspraak"/>
            </category>
            <medicationReference>
               <reference value="urn:uuid:c6d915c7-d186-11e9-1855-020000000000"/>
               <display value="Abilify caps 2,5 mg"/>
            </medicationReference>
            <subject>
               <reference value="urn:uuid:c6d8fff0-d186-11e9-1855-020000000000"/>
               <display value="J.J. le Noble van Son"/>
            </subject>
            <performer>
               <actor>
                  <reference value="urn:oid:2.16.528.1.1007.3.3.1234567"/>
               </actor>
            </performer>
            <authorizingPrescription>
               <identifier>
                  <system value="'2.16.840.1.113883.5.1008'"/>
                  <value value="NI"/>
               </identifier>
               <display value="relatie naar medicatieafspraak: NI || '2.16.840.1.113883.5.1008'"/>
            </authorizingPrescription>
            <dosageInstruction>
               <text value="gebruik volgens schema"/>
               <additionalInstruction>
                  <coding>
                     <system value="https://referentiemodel.nhg.org/tabellen/nhg-tabel-25-gebruiksvoorschrift#aanvullend-numeriek"/>
                     <code value="1131"/>
                     <display value="gebruik volgens schema"/>
                  </coding>
               </additionalInstruction>
               <route>
                  <extension url="http://hl7.org/fhir/StructureDefinition/iso21090-nullFlavor">
                     <valueCode value="NI"/>
                  </extension>
               </route>
            </dosageInstruction>
         </MedicationDispense>
      </resource>
   </entry>
   <entry>
      <fullUrl value="urn:uuid:c6d9161f-d186-11e9-1855-020000000000"/>
      <resource>
         <MedicationDispense>
            <meta>
               <profile value="http://nictiz.nl/fhir/StructureDefinition/zib-AdministrationAgreement"/>
            </meta>
            <extension url="http://nictiz.nl/fhir/StructureDefinition/zib-AdministrationAgreement-AuthoredOn">
               <valueDateTime value="2016-03-03"/>
            </extension>
            <extension url="http://nictiz.nl/fhir/StructureDefinition/zib-Medication-MedicationTreatment">
               <valueIdentifier>
                  <system value="urn:oid:2.16.528.1.1007.3.3.1234567.3"/>
                  <value value="MedBehConverted_mag06"/>
               </valueIdentifier>
            </extension>
            <identifier>
               <system value="urn:oid:2.16.528.1.1007.3.3.1234567.3"/>
               <value value="TAConverted_mag06"/>
            </identifier>
            <category>
               <coding>
                  <system value="http://snomed.info/sct"/>
                  <code value="422037009"/>
                  <display value="Provider medication administration instructions (procedure)"/>
               </coding>
               <text value="Toedieningsafspraak"/>
            </category>
            <medicationReference>
               <reference value="urn:uuid:c6d91628-d186-11e9-1855-020000000000"/>
               <display value="Haparine 100 ie= 10 ml"/>
            </medicationReference>
            <subject>
               <reference value="urn:uuid:c6d8fff0-d186-11e9-1855-020000000000"/>
               <display value="J.J. le Noble van Son"/>
            </subject>
            <performer>
               <actor>
                  <reference value="urn:oid:2.16.528.1.1007.3.3.1234567"/>
               </actor>
            </performer>
            <authorizingPrescription>
               <identifier>
                  <system value="'2.16.840.1.113883.5.1008'"/>
                  <value value="NI"/>
               </identifier>
               <display value="relatie naar medicatieafspraak: NI || '2.16.840.1.113883.5.1008'"/>
            </authorizingPrescription>
            <dosageInstruction>
               <text value="gebruik volgens schema"/>
               <additionalInstruction>
                  <coding>
                     <system value="https://referentiemodel.nhg.org/tabellen/nhg-tabel-25-gebruiksvoorschrift#aanvullend-numeriek"/>
                     <code value="1131"/>
                     <display value="gebruik volgens schema"/>
                  </coding>
               </additionalInstruction>
               <route>
                  <extension url="http://hl7.org/fhir/StructureDefinition/iso21090-nullFlavor">
                     <valueCode value="NI"/>
                  </extension>
               </route>
            </dosageInstruction>
         </MedicationDispense>
      </resource>
   </entry>
   <entry>
      <fullUrl value="urn:uuid:c6d91680-d186-11e9-1855-020000000000"/>
      <resource>
         <MedicationDispense>
            <meta>
               <profile value="http://nictiz.nl/fhir/StructureDefinition/zib-AdministrationAgreement"/>
            </meta>
            <extension url="http://nictiz.nl/fhir/StructureDefinition/zib-AdministrationAgreement-AuthoredOn">
               <valueDateTime value="2016-03-03"/>
            </extension>
            <extension url="http://nictiz.nl/fhir/StructureDefinition/zib-Medication-MedicationTreatment">
               <valueIdentifier>
                  <system value="urn:oid:2.16.528.1.1007.3.3.1234567.3"/>
                  <value value="MedBehConverted_mag07"/>
               </valueIdentifier>
            </extension>
            <identifier>
               <system value="urn:oid:2.16.528.1.1007.3.3.1234567.3"/>
               <value value="TAConverted_mag07"/>
            </identifier>
            <category>
               <coding>
                  <system value="http://snomed.info/sct"/>
                  <code value="422037009"/>
                  <display value="Provider medication administration instructions (procedure)"/>
               </coding>
               <text value="Toedieningsafspraak"/>
            </category>
            <medicationReference>
               <reference value="urn:uuid:c6d91689-d186-11e9-1855-020000000000"/>
               <display value="Easyspump penicilline g 18me"/>
            </medicationReference>
            <subject>
               <reference value="urn:uuid:c6d8fff0-d186-11e9-1855-020000000000"/>
               <display value="J.J. le Noble van Son"/>
            </subject>
            <performer>
               <actor>
                  <reference value="urn:oid:2.16.528.1.1007.3.3.1234567"/>
               </actor>
            </performer>
            <authorizingPrescription>
               <identifier>
                  <system value="'2.16.840.1.113883.5.1008'"/>
                  <value value="NI"/>
               </identifier>
               <display value="relatie naar medicatieafspraak: NI || '2.16.840.1.113883.5.1008'"/>
            </authorizingPrescription>
            <dosageInstruction>
               <text value="gebruik volgens schema"/>
               <additionalInstruction>
                  <coding>
                     <system value="https://referentiemodel.nhg.org/tabellen/nhg-tabel-25-gebruiksvoorschrift#aanvullend-numeriek"/>
                     <code value="1131"/>
                     <display value="gebruik volgens schema"/>
                  </coding>
               </additionalInstruction>
               <route>
                  <extension url="http://hl7.org/fhir/StructureDefinition/iso21090-nullFlavor">
                     <valueCode value="NI"/>
                  </extension>
               </route>
            </dosageInstruction>
         </MedicationDispense>
      </resource>
   </entry>
   <entry>
      <fullUrl value="urn:uuid:c6d916f3-d186-11e9-1855-020000000000"/>
      <resource>
         <MedicationDispense>
            <meta>
               <profile value="http://nictiz.nl/fhir/StructureDefinition/zib-AdministrationAgreement"/>
            </meta>
            <extension url="http://nictiz.nl/fhir/StructureDefinition/zib-AdministrationAgreement-AuthoredOn">
               <valueDateTime value="2016-03-03"/>
            </extension>
            <extension url="http://nictiz.nl/fhir/StructureDefinition/zib-Medication-MedicationTreatment">
               <valueIdentifier>
                  <system value="urn:oid:2.16.528.1.1007.3.3.1234567.3"/>
                  <value value="MedBehConverted_mag08"/>
               </valueIdentifier>
            </extension>
            <identifier>
               <system value="urn:oid:2.16.528.1.1007.3.3.1234567.3"/>
               <value value="TAConverted_mag08"/>
            </identifier>
            <category>
               <coding>
                  <system value="http://snomed.info/sct"/>
                  <code value="422037009"/>
                  <display value="Provider medication administration instructions (procedure)"/>
               </coding>
               <text value="Toedieningsafspraak"/>
            </category>
            <medicationReference>
               <reference value="urn:uuid:c6d916fc-d186-11e9-1855-020000000000"/>
               <display value="Furosemide 125mg/50ml pump"/>
            </medicationReference>
            <subject>
               <reference value="urn:uuid:c6d8fff0-d186-11e9-1855-020000000000"/>
               <display value="J.J. le Noble van Son"/>
            </subject>
            <performer>
               <actor>
                  <reference value="urn:oid:2.16.528.1.1007.3.3.1234567"/>
               </actor>
            </performer>
            <authorizingPrescription>
               <identifier>
                  <system value="'2.16.840.1.113883.5.1008'"/>
                  <value value="NI"/>
               </identifier>
               <display value="relatie naar medicatieafspraak: NI || '2.16.840.1.113883.5.1008'"/>
            </authorizingPrescription>
            <dosageInstruction>
               <text value="gebruik volgens schema"/>
               <additionalInstruction>
                  <coding>
                     <system value="https://referentiemodel.nhg.org/tabellen/nhg-tabel-25-gebruiksvoorschrift#aanvullend-numeriek"/>
                     <code value="1131"/>
                     <display value="gebruik volgens schema"/>
                  </coding>
               </additionalInstruction>
               <route>
                  <extension url="http://hl7.org/fhir/StructureDefinition/iso21090-nullFlavor">
                     <valueCode value="NI"/>
                  </extension>
               </route>
            </dosageInstruction>
         </MedicationDispense>
      </resource>
   </entry>
   <entry>
      <fullUrl value="urn:uuid:c6d91754-d186-11e9-1855-020000000000"/>
      <resource>
         <MedicationDispense>
            <meta>
               <profile value="http://nictiz.nl/fhir/StructureDefinition/zib-AdministrationAgreement"/>
            </meta>
            <extension url="http://nictiz.nl/fhir/StructureDefinition/zib-AdministrationAgreement-AuthoredOn">
               <valueDateTime value="2016-03-03"/>
            </extension>
            <extension url="http://nictiz.nl/fhir/StructureDefinition/zib-Medication-MedicationTreatment">
               <valueIdentifier>
                  <system value="urn:oid:2.16.528.1.1007.3.3.1234567.3"/>
                  <value value="MedBehConverted_mag09"/>
               </valueIdentifier>
            </extension>
            <identifier>
               <system value="urn:oid:2.16.528.1.1007.3.3.1234567.3"/>
               <value value="TAConverted_mag09"/>
            </identifier>
            <category>
               <coding>
                  <system value="http://snomed.info/sct"/>
                  <code value="422037009"/>
                  <display value="Provider medication administration instructions (procedure)"/>
               </coding>
               <text value="Toedieningsafspraak"/>
            </category>
            <medicationReference>
               <reference value="urn:uuid:c6d9175d-d186-11e9-1855-020000000000"/>
               <display value="Penicilline 12milj/24 uur"/>
            </medicationReference>
            <subject>
               <reference value="urn:uuid:c6d8fff0-d186-11e9-1855-020000000000"/>
               <display value="J.J. le Noble van Son"/>
            </subject>
            <performer>
               <actor>
                  <reference value="urn:oid:2.16.528.1.1007.3.3.1234567"/>
               </actor>
            </performer>
            <authorizingPrescription>
               <identifier>
                  <system value="'2.16.840.1.113883.5.1008'"/>
                  <value value="NI"/>
               </identifier>
               <display value="relatie naar medicatieafspraak: NI || '2.16.840.1.113883.5.1008'"/>
            </authorizingPrescription>
            <dosageInstruction>
               <text value="gebruik volgens schema"/>
               <additionalInstruction>
                  <coding>
                     <system value="https://referentiemodel.nhg.org/tabellen/nhg-tabel-25-gebruiksvoorschrift#aanvullend-numeriek"/>
                     <code value="1131"/>
                     <display value="gebruik volgens schema"/>
                  </coding>
               </additionalInstruction>
               <route>
                  <extension url="http://hl7.org/fhir/StructureDefinition/iso21090-nullFlavor">
                     <valueCode value="NI"/>
                  </extension>
               </route>
            </dosageInstruction>
         </MedicationDispense>
      </resource>
   </entry>
   <entry>
      <fullUrl value="urn:uuid:c6d917c7-d186-11e9-1855-020000000000"/>
      <resource>
         <MedicationDispense>
            <meta>
               <profile value="http://nictiz.nl/fhir/StructureDefinition/zib-AdministrationAgreement"/>
            </meta>
            <extension url="http://nictiz.nl/fhir/StructureDefinition/zib-AdministrationAgreement-AuthoredOn">
               <valueDateTime value="2016-03-03"/>
            </extension>
            <extension url="http://nictiz.nl/fhir/StructureDefinition/zib-Medication-MedicationTreatment">
               <valueIdentifier>
                  <system value="urn:oid:2.16.528.1.1007.3.3.1234567.3"/>
                  <value value="MedBehConverted_mag10"/>
               </valueIdentifier>
            </extension>
            <identifier>
               <system value="urn:oid:2.16.528.1.1007.3.3.1234567.3"/>
               <value value="TAConverted_mag10"/>
            </identifier>
            <category>
               <coding>
                  <system value="http://snomed.info/sct"/>
                  <code value="422037009"/>
                  <display value="Provider medication administration instructions (procedure)"/>
               </coding>
               <text value="Toedieningsafspraak"/>
            </category>
            <medicationReference>
               <reference value="urn:uuid:c6d917d0-d186-11e9-1855-020000000000"/>
               <display value="Dalterparine ing. 0,5ml=500e"/>
            </medicationReference>
            <subject>
               <reference value="urn:uuid:c6d8fff0-d186-11e9-1855-020000000000"/>
               <display value="J.J. le Noble van Son"/>
            </subject>
            <performer>
               <actor>
                  <reference value="urn:oid:2.16.528.1.1007.3.3.1234567"/>
               </actor>
            </performer>
            <authorizingPrescription>
               <identifier>
                  <system value="'2.16.840.1.113883.5.1008'"/>
                  <value value="NI"/>
               </identifier>
               <display value="relatie naar medicatieafspraak: NI || '2.16.840.1.113883.5.1008'"/>
            </authorizingPrescription>
            <dosageInstruction>
               <text value="gebruik volgens schema"/>
               <additionalInstruction>
                  <coding>
                     <system value="https://referentiemodel.nhg.org/tabellen/nhg-tabel-25-gebruiksvoorschrift#aanvullend-numeriek"/>
                     <code value="1131"/>
                     <display value="gebruik volgens schema"/>
                  </coding>
               </additionalInstruction>
               <route>
                  <extension url="http://hl7.org/fhir/StructureDefinition/iso21090-nullFlavor">
                     <valueCode value="NI"/>
                  </extension>
               </route>
            </dosageInstruction>
         </MedicationDispense>
      </resource>
   </entry>
   <entry>
      <fullUrl value="urn:uuid:c6d90cb4-d186-11e9-1855-020000000000"/>
      <resource>
         <MedicationDispense>
            <meta>
               <profile value="http://nictiz.nl/fhir/StructureDefinition/zib-Dispense"/>
            </meta>
            <extension url="http://nictiz.nl/fhir/StructureDefinition/zib-Dispense-RequestDate">
               <valueDateTime value="2016-03-03"/>
            </extension>
            <extension url="http://nictiz.nl/fhir/StructureDefinition/zib-Medication-MedicationTreatment">
               <valueIdentifier>
                  <system value="urn:oid:2.16.528.1.1007.3.3.1234567.3"/>
                  <value value="MedBehConverted_mag01"/>
               </valueIdentifier>
            </extension>
            <identifier>
               <system value="urn:oid:2.16.528.1.1007.3.3.1234567.3"/>
               <value value="mag01"/>
            </identifier>
            <category>
               <coding>
                  <system value="http://snomed.info/sct"/>
                  <code value="373784005"/>
                  <display value="Dispensing medication (procedure)"/>
               </coding>
               <text value="Medicatieverstrekking"/>
            </category>
            <medicationReference>
               <reference value="urn:uuid:c6d90c95-d186-11e9-1855-020000000000"/>
               <display value="Hydrocortison zetpil 100 mg"/>
            </medicationReference>
            <subject>
               <reference value="urn:uuid:c6d8fff0-d186-11e9-1855-020000000000"/>
               <display value="J.J. le Noble van Son"/>
            </subject>
            <performer>
               <actor>
                  <reference value="urn:oid:2.16.528.1.1007.3.3.1234567"/>
               </actor>
            </performer>
            <quantity>
               <value value="1"/>
               <unit value="Stuk"/>
               <system value="urn:oid:2.16.840.1.113883.2.4.4.1.900.2"/>
               <code value="245"/>
            </quantity>
         </MedicationDispense>
      </resource>
   </entry>
   <entry>
      <fullUrl value="urn:uuid:c6d91540-d186-11e9-1855-020000000000"/>
      <resource>
         <MedicationDispense>
            <meta>
               <profile value="http://nictiz.nl/fhir/StructureDefinition/zib-Dispense"/>
            </meta>
            <extension url="http://nictiz.nl/fhir/StructureDefinition/zib-Dispense-RequestDate">
               <valueDateTime value="2016-03-03"/>
            </extension>
            <extension url="http://nictiz.nl/fhir/StructureDefinition/zib-Medication-MedicationTreatment">
               <valueIdentifier>
                  <system value="urn:oid:2.16.528.1.1007.3.3.1234567.3"/>
                  <value value="MedBehConverted_mag02"/>
               </valueIdentifier>
            </extension>
            <identifier>
               <system value="urn:oid:2.16.528.1.1007.3.3.1234567.3"/>
               <value value="mag02"/>
            </identifier>
            <category>
               <coding>
                  <system value="http://snomed.info/sct"/>
                  <code value="373784005"/>
                  <display value="Dispensing medication (procedure)"/>
               </coding>
               <text value="Medicatieverstrekking"/>
            </category>
            <medicationReference>
               <reference value="urn:uuid:c6d91517-d186-11e9-1855-020000000000"/>
               <display value="Ketoconazol crème met 20% vaseline en 0,1% triam acet"/>
            </medicationReference>
            <subject>
               <reference value="urn:uuid:c6d8fff0-d186-11e9-1855-020000000000"/>
               <display value="J.J. le Noble van Son"/>
            </subject>
            <performer>
               <actor>
                  <reference value="urn:oid:2.16.528.1.1007.3.3.1234567"/>
               </actor>
            </performer>
            <quantity>
               <value value="1"/>
               <unit value="Stuk"/>
               <system value="urn:oid:2.16.840.1.113883.2.4.4.1.900.2"/>
               <code value="245"/>
            </quantity>
         </MedicationDispense>
      </resource>
   </entry>
   <entry>
      <fullUrl value="urn:uuid:c6d91598-d186-11e9-1855-020000000000"/>
      <resource>
         <MedicationDispense>
            <meta>
               <profile value="http://nictiz.nl/fhir/StructureDefinition/zib-Dispense"/>
            </meta>
            <extension url="http://nictiz.nl/fhir/StructureDefinition/zib-Dispense-RequestDate">
               <valueDateTime value="2016-03-03"/>
            </extension>
            <extension url="http://nictiz.nl/fhir/StructureDefinition/zib-Medication-MedicationTreatment">
               <valueIdentifier>
                  <system value="urn:oid:2.16.528.1.1007.3.3.1234567.3"/>
                  <value value="MedBehConverted_mag03"/>
               </valueIdentifier>
            </extension>
            <identifier>
               <system value="urn:oid:2.16.528.1.1007.3.3.1234567.3"/>
               <value value="mag03"/>
            </identifier>
            <category>
               <coding>
                  <system value="http://snomed.info/sct"/>
                  <code value="373784005"/>
                  <display value="Dispensing medication (procedure)"/>
               </coding>
               <text value="Medicatieverstrekking"/>
            </category>
            <medicationReference>
               <reference value="urn:uuid:c6d91578-d186-11e9-1855-020000000000"/>
               <display value="Nafazoline oogdruppels 0,025% ex FNA"/>
            </medicationReference>
            <subject>
               <reference value="urn:uuid:c6d8fff0-d186-11e9-1855-020000000000"/>
               <display value="J.J. le Noble van Son"/>
            </subject>
            <performer>
               <actor>
                  <reference value="urn:oid:2.16.528.1.1007.3.3.1234567"/>
               </actor>
            </performer>
            <quantity>
               <value value="1"/>
               <unit value="Stuk"/>
               <system value="urn:oid:2.16.840.1.113883.2.4.4.1.900.2"/>
               <code value="245"/>
            </quantity>
         </MedicationDispense>
      </resource>
   </entry>
   <entry>
      <fullUrl value="urn:uuid:c6d915f0-d186-11e9-1855-020000000000"/>
      <resource>
         <MedicationDispense>
            <meta>
               <profile value="http://nictiz.nl/fhir/StructureDefinition/zib-Dispense"/>
            </meta>
            <extension url="http://nictiz.nl/fhir/StructureDefinition/zib-Dispense-RequestDate">
               <valueDateTime value="2016-03-03"/>
            </extension>
            <extension url="http://nictiz.nl/fhir/StructureDefinition/zib-Medication-MedicationTreatment">
               <valueIdentifier>
                  <system value="urn:oid:2.16.528.1.1007.3.3.1234567.3"/>
                  <value value="MedBehConverted_mag04"/>
               </valueIdentifier>
            </extension>
            <identifier>
               <system value="urn:oid:2.16.528.1.1007.3.3.1234567.3"/>
               <value value="mag04"/>
            </identifier>
            <category>
               <coding>
                  <system value="http://snomed.info/sct"/>
                  <code value="373784005"/>
                  <display value="Dispensing medication (procedure)"/>
               </coding>
               <text value="Medicatieverstrekking"/>
            </category>
            <medicationReference>
               <reference value="urn:uuid:c6d915c7-d186-11e9-1855-020000000000"/>
               <display value="Abilify caps 2,5 mg"/>
            </medicationReference>
            <subject>
               <reference value="urn:uuid:c6d8fff0-d186-11e9-1855-020000000000"/>
               <display value="J.J. le Noble van Son"/>
            </subject>
            <performer>
               <actor>
                  <reference value="urn:oid:2.16.528.1.1007.3.3.1234567"/>
               </actor>
            </performer>
            <quantity>
               <value value="1"/>
               <unit value="Stuk"/>
               <system value="urn:oid:2.16.840.1.113883.2.4.4.1.900.2"/>
               <code value="245"/>
            </quantity>
         </MedicationDispense>
      </resource>
   </entry>
   <entry>
      <fullUrl value="urn:uuid:c6d91651-d186-11e9-1855-020000000000"/>
      <resource>
         <MedicationDispense>
            <meta>
               <profile value="http://nictiz.nl/fhir/StructureDefinition/zib-Dispense"/>
            </meta>
            <extension url="http://nictiz.nl/fhir/StructureDefinition/zib-Dispense-RequestDate">
               <valueDateTime value="2016-03-03"/>
            </extension>
            <extension url="http://nictiz.nl/fhir/StructureDefinition/zib-Medication-MedicationTreatment">
               <valueIdentifier>
                  <system value="urn:oid:2.16.528.1.1007.3.3.1234567.3"/>
                  <value value="MedBehConverted_mag06"/>
               </valueIdentifier>
            </extension>
            <identifier>
               <system value="urn:oid:2.16.528.1.1007.3.3.1234567.3"/>
               <value value="mag06"/>
            </identifier>
            <category>
               <coding>
                  <system value="http://snomed.info/sct"/>
                  <code value="373784005"/>
                  <display value="Dispensing medication (procedure)"/>
               </coding>
               <text value="Medicatieverstrekking"/>
            </category>
            <medicationReference>
               <reference value="urn:uuid:c6d91628-d186-11e9-1855-020000000000"/>
               <display value="Haparine 100 ie= 10 ml"/>
            </medicationReference>
            <subject>
               <reference value="urn:uuid:c6d8fff0-d186-11e9-1855-020000000000"/>
               <display value="J.J. le Noble van Son"/>
            </subject>
            <performer>
               <actor>
                  <reference value="urn:oid:2.16.528.1.1007.3.3.1234567"/>
               </actor>
            </performer>
            <quantity>
               <value value="1"/>
               <unit value="Stuk"/>
               <system value="urn:oid:2.16.840.1.113883.2.4.4.1.900.2"/>
               <code value="245"/>
            </quantity>
         </MedicationDispense>
      </resource>
   </entry>
   <entry>
      <fullUrl value="urn:uuid:c6d916bb-d186-11e9-1855-020000000000"/>
      <resource>
         <MedicationDispense>
            <meta>
               <profile value="http://nictiz.nl/fhir/StructureDefinition/zib-Dispense"/>
            </meta>
            <extension url="http://nictiz.nl/fhir/StructureDefinition/zib-Dispense-RequestDate">
               <valueDateTime value="2016-03-03"/>
            </extension>
            <extension url="http://nictiz.nl/fhir/StructureDefinition/zib-Medication-MedicationTreatment">
               <valueIdentifier>
                  <system value="urn:oid:2.16.528.1.1007.3.3.1234567.3"/>
                  <value value="MedBehConverted_mag07"/>
               </valueIdentifier>
            </extension>
            <identifier>
               <system value="urn:oid:2.16.528.1.1007.3.3.1234567.3"/>
               <value value="mag07"/>
            </identifier>
            <category>
               <coding>
                  <system value="http://snomed.info/sct"/>
                  <code value="373784005"/>
                  <display value="Dispensing medication (procedure)"/>
               </coding>
               <text value="Medicatieverstrekking"/>
            </category>
            <medicationReference>
               <reference value="urn:uuid:c6d91689-d186-11e9-1855-020000000000"/>
               <display value="Easyspump penicilline g 18me"/>
            </medicationReference>
            <subject>
               <reference value="urn:uuid:c6d8fff0-d186-11e9-1855-020000000000"/>
               <display value="J.J. le Noble van Son"/>
            </subject>
            <performer>
               <actor>
                  <reference value="urn:oid:2.16.528.1.1007.3.3.1234567"/>
               </actor>
            </performer>
            <quantity>
               <value value="1"/>
               <unit value="Stuk"/>
               <system value="urn:oid:2.16.840.1.113883.2.4.4.1.900.2"/>
               <code value="245"/>
            </quantity>
         </MedicationDispense>
      </resource>
   </entry>
   <entry>
      <fullUrl value="urn:uuid:c6d91725-d186-11e9-1855-020000000000"/>
      <resource>
         <MedicationDispense>
            <meta>
               <profile value="http://nictiz.nl/fhir/StructureDefinition/zib-Dispense"/>
            </meta>
            <extension url="http://nictiz.nl/fhir/StructureDefinition/zib-Dispense-RequestDate">
               <valueDateTime value="2016-03-03"/>
            </extension>
            <extension url="http://nictiz.nl/fhir/StructureDefinition/zib-Medication-MedicationTreatment">
               <valueIdentifier>
                  <system value="urn:oid:2.16.528.1.1007.3.3.1234567.3"/>
                  <value value="MedBehConverted_mag08"/>
               </valueIdentifier>
            </extension>
            <identifier>
               <system value="urn:oid:2.16.528.1.1007.3.3.1234567.3"/>
               <value value="mag08"/>
            </identifier>
            <category>
               <coding>
                  <system value="http://snomed.info/sct"/>
                  <code value="373784005"/>
                  <display value="Dispensing medication (procedure)"/>
               </coding>
               <text value="Medicatieverstrekking"/>
            </category>
            <medicationReference>
               <reference value="urn:uuid:c6d916fc-d186-11e9-1855-020000000000"/>
               <display value="Furosemide 125mg/50ml pump"/>
            </medicationReference>
            <subject>
               <reference value="urn:uuid:c6d8fff0-d186-11e9-1855-020000000000"/>
               <display value="J.J. le Noble van Son"/>
            </subject>
            <performer>
               <actor>
                  <reference value="urn:oid:2.16.528.1.1007.3.3.1234567"/>
               </actor>
            </performer>
            <quantity>
               <value value="1"/>
               <unit value="Stuk"/>
               <system value="urn:oid:2.16.840.1.113883.2.4.4.1.900.2"/>
               <code value="245"/>
            </quantity>
         </MedicationDispense>
      </resource>
   </entry>
   <entry>
      <fullUrl value="urn:uuid:c6d9178f-d186-11e9-1855-020000000000"/>
      <resource>
         <MedicationDispense>
            <meta>
               <profile value="http://nictiz.nl/fhir/StructureDefinition/zib-Dispense"/>
            </meta>
            <extension url="http://nictiz.nl/fhir/StructureDefinition/zib-Dispense-RequestDate">
               <valueDateTime value="2016-03-03"/>
            </extension>
            <extension url="http://nictiz.nl/fhir/StructureDefinition/zib-Medication-MedicationTreatment">
               <valueIdentifier>
                  <system value="urn:oid:2.16.528.1.1007.3.3.1234567.3"/>
                  <value value="MedBehConverted_mag09"/>
               </valueIdentifier>
            </extension>
            <identifier>
               <system value="urn:oid:2.16.528.1.1007.3.3.1234567.3"/>
               <value value="mag09"/>
            </identifier>
            <category>
               <coding>
                  <system value="http://snomed.info/sct"/>
                  <code value="373784005"/>
                  <display value="Dispensing medication (procedure)"/>
               </coding>
               <text value="Medicatieverstrekking"/>
            </category>
            <medicationReference>
               <reference value="urn:uuid:c6d9175d-d186-11e9-1855-020000000000"/>
               <display value="Penicilline 12milj/24 uur"/>
            </medicationReference>
            <subject>
               <reference value="urn:uuid:c6d8fff0-d186-11e9-1855-020000000000"/>
               <display value="J.J. le Noble van Son"/>
            </subject>
            <performer>
               <actor>
                  <reference value="urn:oid:2.16.528.1.1007.3.3.1234567"/>
               </actor>
            </performer>
            <quantity>
               <value value="1"/>
               <unit value="Stuk"/>
               <system value="urn:oid:2.16.840.1.113883.2.4.4.1.900.2"/>
               <code value="245"/>
            </quantity>
         </MedicationDispense>
      </resource>
   </entry>
   <entry>
      <fullUrl value="urn:uuid:c6d917f0-d186-11e9-1855-020000000000"/>
      <resource>
         <MedicationDispense>
            <meta>
               <profile value="http://nictiz.nl/fhir/StructureDefinition/zib-Dispense"/>
            </meta>
            <extension url="http://nictiz.nl/fhir/StructureDefinition/zib-Dispense-RequestDate">
               <valueDateTime value="2016-03-03"/>
            </extension>
            <extension url="http://nictiz.nl/fhir/StructureDefinition/zib-Medication-MedicationTreatment">
               <valueIdentifier>
                  <system value="urn:oid:2.16.528.1.1007.3.3.1234567.3"/>
                  <value value="MedBehConverted_mag10"/>
               </valueIdentifier>
            </extension>
            <identifier>
               <system value="urn:oid:2.16.528.1.1007.3.3.1234567.3"/>
               <value value="mag10"/>
            </identifier>
            <category>
               <coding>
                  <system value="http://snomed.info/sct"/>
                  <code value="373784005"/>
                  <display value="Dispensing medication (procedure)"/>
               </coding>
               <text value="Medicatieverstrekking"/>
            </category>
            <medicationReference>
               <reference value="urn:uuid:c6d917d0-d186-11e9-1855-020000000000"/>
               <display value="Dalterparine ing. 0,5ml=500e"/>
            </medicationReference>
            <subject>
               <reference value="urn:uuid:c6d8fff0-d186-11e9-1855-020000000000"/>
               <display value="J.J. le Noble van Son"/>
            </subject>
            <performer>
               <actor>
                  <reference value="urn:oid:2.16.528.1.1007.3.3.1234567"/>
               </actor>
            </performer>
            <quantity>
               <value value="1"/>
               <unit value="Stuk"/>
               <system value="urn:oid:2.16.840.1.113883.2.4.4.1.900.2"/>
               <code value="245"/>
            </quantity>
         </MedicationDispense>
      </resource>
   </entry>
   <entry>
      <fullUrl value="urn:uuid:c6d8fff0-d186-11e9-1855-020000000000"/>
      <resource>
         <Patient>
            <meta>
               <profile value="http://fhir.nl/fhir/StructureDefinition/nl-core-patient"/>
            </meta>
            <identifier>
               <system value="http://fhir.nl/fhir/NamingSystem/bsn"/>
               <value value="012345672"/>
            </identifier>
            <name>
               <extension url="http://hl7.org/fhir/StructureDefinition/humanname-assembly-order">
                  <valueCode value="NL3"/>
               </extension>
               <family value="van Son-le Noble">
                  <extension url="http://hl7.org/fhir/StructureDefinition/humanname-own-prefix">
                     <valueString value="le "/>
                  </extension>
                  <extension url="http://hl7.org/fhir/StructureDefinition/humanname-own-name">
                     <valueString value="Noble"/>
                  </extension>
                  <extension url="http://hl7.org/fhir/StructureDefinition/humanname-partner-prefix">
                     <valueString value="van "/>
                  </extension>
                  <extension url="http://hl7.org/fhir/StructureDefinition/humanname-partner-name">
                     <valueString value="Son"/>
                  </extension>
               </family>
               <given value="J.J.">
                  <extension url="http://hl7.org/fhir/StructureDefinition/iso21090-EN-qualifier">
                     <valueCode value="IN"/>
                  </extension>
               </given>
            </name>
            <gender value="female"/>
            <birthDate value="1972-12-18"/>
         </Patient>
      </resource>
      <search>
         <mode value="include"/>
      </search>
   </entry>
   <entry>
      <fullUrl value="urn:oid:2.16.528.1.1007.3.3.1234567"/>
      <resource>
         <Organization>
            <meta>
               <profile value="http://fhir.nl/fhir/StructureDefinition/nl-core-organization"/>
            </meta>
            <identifier>
               <system value="http://fhir.nl/fhir/NamingSystem/ura"/>
               <value value="01234567"/>
            </identifier>
            <name>
               <extension url="http://hl7.org/fhir/StructureDefinition/iso21090-nullFlavor">
                  <valueCode value="NI"/>
               </extension>
            </name>
         </Organization>
      </resource>
      <search>
         <mode value="include"/>
      </search>
   </entry>
   <entry>
      <fullUrl value="urn:uuid:c6d90c95-d186-11e9-1855-020000000000"/>
      <resource>
         <Medication>
            <meta>
               <profile value="http://nictiz.nl/fhir/StructureDefinition/zib-Product"/>
            </meta>
            <extension url="http://nictiz.nl/fhir/StructureDefinition/zib-Product-Description">
               <valueString value="Titel: Hydrocortison zetpil 100 mg Regel: Hydrocort micronisatum 100 mg Regel: Witepsol H15 past 1,99 gr"/>
            </extension>
            <code>
               <extension url="http://hl7.org/fhir/StructureDefinition/iso21090-nullFlavor">
                  <valueCode value="OTH"/>
               </extension>
               <text value="Hydrocortison zetpil 100 mg"/>
            </code>
            <ingredient>
               <itemCodeableConcept>
                  <coding>
                     <system value="urn:oid:2.16.840.1.113883.2.4.4.7"/>
                     <code value="252247"/>
                     <display value="HYDROCORTISONUM MICRONISAT"/>
                  </coding>
               </itemCodeableConcept>
               <amount>
                  <numerator>
                     <value value="10"/>
                     <unit value="milligram"/>
                     <system value="urn:oid:2.16.840.1.113883.2.4.4.1.900.2"/>
                     <code value="229"/>
                  </numerator>
                  <denominator>
                     <value value="1"/>
                     <unit value="stuk"/>
                     <system value="urn:oid:2.16.840.1.113883.2.4.4.1.900.2"/>
                     <code value="245"/>
                  </denominator>
               </amount>
            </ingredient>
            <ingredient>
               <itemCodeableConcept>
                  <coding>
                     <system value="urn:oid:2.16.840.1.113883.2.4.4.7"/>
                     <code value="265144"/>
                     <display value="WITEPSOL H15 PAST"/>
                  </coding>
               </itemCodeableConcept>
               <amount>
                  <numerator>
                     <value value="1.99"/>
                     <unit value="gram"/>
                     <system value="urn:oid:2.16.840.1.113883.2.4.4.1.900.2"/>
                     <code value="215"/>
                  </numerator>
                  <denominator>
                     <value value="1"/>
                     <unit value="stuk"/>
                     <system value="urn:oid:2.16.840.1.113883.2.4.4.1.900.2"/>
                     <code value="245"/>
                  </denominator>
               </amount>
            </ingredient>
         </Medication>
      </resource>
      <search>
         <mode value="include"/>
      </search>
   </entry>
   <entry>
      <fullUrl value="urn:uuid:c6d91517-d186-11e9-1855-020000000000"/>
      <resource>
         <Medication>
            <meta>
               <profile value="http://nictiz.nl/fhir/StructureDefinition/zib-Product"/>
            </meta>
            <extension url="http://nictiz.nl/fhir/StructureDefinition/zib-Product-Description">
               <valueString value="Titel: Ketoconazol crème met 20% vaseline en 0,1% triam acet Regel: Vaselinum album 120 gr Regel: Triamcinolon acet c am or trit 1=10 6 gr Regel: Ketoconazol crème 20mg/g 474 gr"/>
            </extension>
            <code>
               <extension url="http://hl7.org/fhir/StructureDefinition/iso21090-nullFlavor">
                  <valueCode value="OTH"/>
               </extension>
               <text value="Ketoconazol crème met 20% vaseline en 0,1% triam acet"/>
            </code>
            <ingredient>
               <itemCodeableConcept>
                  <coding>
                     <system value="urn:oid:2.16.840.1.113883.2.4.4.7"/>
                     <code value="264105"/>
                     <display value="TRIAMCINOLONI ACETONIDUM C AM OR TRIT 1=10 MICRON"/>
                  </coding>
               </itemCodeableConcept>
               <amount>
                  <numerator>
                     <value value="6"/>
                     <unit value="gram"/>
                     <system value="urn:oid:2.16.840.1.113883.2.4.4.1.900.2"/>
                     <code value="215"/>
                  </numerator>
                  <denominator>
                     <value value="600"/>
                     <unit value="gram"/>
                     <system value="urn:oid:2.16.840.1.113883.2.4.4.1.900.2"/>
                     <code value="215"/>
                  </denominator>
               </amount>
            </ingredient>
            <ingredient>
               <itemCodeableConcept>
                  <coding>
                     <system value="urn:oid:2.16.840.1.113883.2.4.4.7"/>
                     <code value="1131508"/>
                     <display value="KETOCONAZOL JC CREME 20MG/G"/>
                  </coding>
               </itemCodeableConcept>
               <amount>
                  <numerator>
                     <value value="474"/>
                     <unit value="gram"/>
                     <system value="urn:oid:2.16.840.1.113883.2.4.4.1.900.2"/>
                     <code value="215"/>
                  </numerator>
                  <denominator>
                     <value value="600"/>
                     <unit value="gram"/>
                     <system value="urn:oid:2.16.840.1.113883.2.4.4.1.900.2"/>
                     <code value="215"/>
                  </denominator>
               </amount>
            </ingredient>
            <ingredient>
               <itemCodeableConcept>
                  <coding>
                     <system value="urn:oid:2.16.840.1.113883.2.4.4.7"/>
                     <code value="265012"/>
                     <display value="VASELINUM ALBUM"/>
                  </coding>
               </itemCodeableConcept>
               <amount>
                  <numerator>
                     <value value="120"/>
                     <unit value="gram"/>
                     <system value="urn:oid:2.16.840.1.113883.2.4.4.1.900.2"/>
                     <code value="215"/>
                  </numerator>
                  <denominator>
                     <value value="600"/>
                     <unit value="gram"/>
                     <system value="urn:oid:2.16.840.1.113883.2.4.4.1.900.2"/>
                     <code value="215"/>
                  </denominator>
               </amount>
            </ingredient>
         </Medication>
      </resource>
      <search>
         <mode value="include"/>
      </search>
   </entry>
   <entry>
      <fullUrl value="urn:uuid:c6d91578-d186-11e9-1855-020000000000"/>
      <resource>
         <Medication>
            <meta>
               <profile value="http://nictiz.nl/fhir/StructureDefinition/zib-Product"/>
            </meta>
            <extension url="http://nictiz.nl/fhir/StructureDefinition/zib-Product-Description">
               <valueString value="Titel: Nafazoline oogdruppels 0,025% ex FNA Regel: Naphazolini nitras 25 mg Regel: Boorzuur-benzalk opl FNA ad 100 ml"/>
            </extension>
            <code>
               <extension url="http://hl7.org/fhir/StructureDefinition/iso21090-nullFlavor">
                  <valueCode value="OTH"/>
               </extension>
               <text value="Nafazoline oogdruppels 0,025% ex FNA"/>
            </code>
            <ingredient>
               <itemCodeableConcept>
                  <coding>
                     <system value="urn:oid:2.16.840.1.113883.2.4.4.7"/>
                     <code value="256234"/>
                     <display value="NAPHAZOLINI HYDROCHLORIDUM"/>
                  </coding>
               </itemCodeableConcept>
               <amount>
                  <numerator>
                     <value value="25"/>
                     <unit value="milligram"/>
                     <system value="urn:oid:2.16.840.1.113883.2.4.4.1.900.2"/>
                     <code value="229"/>
                  </numerator>
                  <denominator>
                     <value value="100"/>
                     <unit value="milliliter"/>
                     <system value="urn:oid:2.16.840.1.113883.2.4.4.1.900.2"/>
                     <code value="233"/>
                  </denominator>
               </amount>
            </ingredient>
            <ingredient>
               <itemCodeableConcept>
                  <coding>
                     <system value="urn:oid:2.16.840.1.113883.2.4.4.7"/>
                     <code value="261173"/>
                     <display value="BOORZUUR-BENZALKONIUMOPLOSSING FNA MR"/>
                  </coding>
               </itemCodeableConcept>
               <amount>
                  <numerator>
                     <extension url="http://hl7.org/fhir/StructureDefinition/iso21090-nullFlavor">
                        <valueCode value="QS"/>
                     </extension>
                  </numerator>
                  <denominator>
                     <value value="100"/>
                     <unit value="milliliter"/>
                     <system value="urn:oid:2.16.840.1.113883.2.4.4.1.900.2"/>
                     <code value="233"/>
                  </denominator>
               </amount>
            </ingredient>
         </Medication>
      </resource>
      <search>
         <mode value="include"/>
      </search>
   </entry>
   <entry>
      <fullUrl value="urn:uuid:c6d915c7-d186-11e9-1855-020000000000"/>
      <resource>
         <Medication>
            <meta>
               <profile value="http://nictiz.nl/fhir/StructureDefinition/zib-Product"/>
            </meta>
            <extension url="http://nictiz.nl/fhir/StructureDefinition/zib-Product-Description">
               <valueString value="Titel: Abilify caps 2,5 mg Regel: Abilify 10 mg tabl 22,5 st Regel: Cell Micr PH102 ad 33 ml Regel: Caps capsicards nr 2 helder 90 st"/>
            </extension>
            <code>
               <extension url="http://hl7.org/fhir/StructureDefinition/iso21090-nullFlavor">
                  <valueCode value="OTH"/>
               </extension>
               <text value="Abilify caps 2,5 mg"/>
            </code>
            <ingredient>
               <itemCodeableConcept>
                  <coding>
                     <system value="urn:oid:2.16.840.1.113883.2.4.4.7"/>
                     <code value="1647091"/>
                     <display value="ABILIFY TABLET 10MG"/>
                  </coding>
               </itemCodeableConcept>
               <amount>
                  <numerator>
                     <value value="22.5"/>
                     <unit value="stuk"/>
                     <system value="urn:oid:2.16.840.1.113883.2.4.4.1.900.2"/>
                     <code value="245"/>
                  </numerator>
                  <denominator>
                     <value value="90"/>
                     <unit value="stuk"/>
                     <system value="urn:oid:2.16.840.1.113883.2.4.4.1.900.2"/>
                     <code value="245"/>
                  </denominator>
               </amount>
            </ingredient>
            <ingredient>
               <itemCodeableConcept>
                  <coding>
                     <system value="urn:oid:2.16.840.1.113883.2.4.4.7"/>
                     <code value="248584"/>
                     <display value="CELLULOSUM MICROCRYST PH102"/>
                  </coding>
               </itemCodeableConcept>
               <amount>
                  <numerator>
                     <extension url="http://hl7.org/fhir/StructureDefinition/iso21090-nullFlavor">
                        <valueCode value="QS"/>
                     </extension>
                  </numerator>
                  <denominator>
                     <value value="100"/>
                     <unit value="milliliter"/>
                     <system value="urn:oid:2.16.840.1.113883.2.4.4.1.900.2"/>
                     <code value="233"/>
                  </denominator>
               </amount>
            </ingredient>
            <ingredient>
               <itemCodeableConcept>
                  <coding>
                     <system value="urn:oid:2.16.840.1.113883.2.4.4.7"/>
                     <code value="883646"/>
                     <display value="CAPSULES CAPSICARDS NR  2 HELDER"/>
                  </coding>
               </itemCodeableConcept>
               <amount>
                  <numerator>
                     <value value="90"/>
                     <unit value="stuk"/>
                     <system value="urn:oid:2.16.840.1.113883.2.4.4.1.900.2"/>
                     <code value="245"/>
                  </numerator>
                  <denominator>
                     <value value="90"/>
                     <unit value="stuk"/>
                     <system value="urn:oid:2.16.840.1.113883.2.4.4.1.900.2"/>
                     <code value="245"/>
                  </denominator>
               </amount>
            </ingredient>
         </Medication>
      </resource>
      <search>
         <mode value="include"/>
      </search>
   </entry>
   <entry>
      <fullUrl value="urn:uuid:c6d91628-d186-11e9-1855-020000000000"/>
      <resource>
         <Medication>
            <meta>
               <profile value="http://nictiz.nl/fhir/StructureDefinition/zib-Product"/>
            </meta>
            <extension url="http://nictiz.nl/fhir/StructureDefinition/zib-Product-Description">
               <valueString value="Titel: Haparine 100 ie= 10 ml Regel: Minpl cla water c ing 10ml Regel: Heparini natricum Regel: natrri chloridum"/>
            </extension>
            <code>
               <extension url="http://hl7.org/fhir/StructureDefinition/iso21090-nullFlavor">
                  <valueCode value="OTH"/>
               </extension>
               <text value="Haparine 100 ie= 10 ml"/>
            </code>
            <ingredient>
               <itemCodeableConcept>
                  <coding>
                     <system value="urn:oid:2.16.840.1.113883.2.4.4.7"/>
                     <code value="898724"/>
                     <display value="HEPARINUM NATRICUM"/>
                  </coding>
               </itemCodeableConcept>
               <amount>
                  <numerator>
                     <value value="100"/>
                     <unit value="internationale eenheid"/>
                     <system value="urn:oid:2.16.840.1.113883.2.4.4.1.900.2"/>
                     <code value="217"/>
                  </numerator>
                  <denominator>
                     <value value="10"/>
                     <unit value="milliliter"/>
                     <system value="urn:oid:2.16.840.1.113883.2.4.4.1.900.2"/>
                     <code value="233"/>
                  </denominator>
               </amount>
            </ingredient>
            <ingredient>
               <itemCodeableConcept>
                  <coding>
                     <system value="urn:oid:2.16.840.1.113883.2.4.4.7"/>
                     <code value="2257610"/>
                     <display value="WATER VOOR INJECTIE CF FLACON 10ML"/>
                  </coding>
               </itemCodeableConcept>
               <amount>
                  <numerator>
                     <value value="1"/>
                     <unit value="stuk"/>
                     <system value="urn:oid:2.16.840.1.113883.2.4.4.1.900.2"/>
                     <code value="245"/>
                  </numerator>
                  <denominator>
                     <value value="10"/>
                     <unit value="milliliter"/>
                     <system value="urn:oid:2.16.840.1.113883.2.4.4.1.900.2"/>
                     <code value="233"/>
                  </denominator>
               </amount>
            </ingredient>
            <ingredient>
               <itemCodeableConcept>
                  <coding>
                     <system value="urn:oid:2.16.840.1.113883.2.4.4.7"/>
                     <code value="256390"/>
                     <display value="NATRII CHLORIDUM"/>
                  </coding>
               </itemCodeableConcept>
               <amount>
                  <numerator>
                     <value value="0.09"/>
                     <unit value="gram"/>
                     <system value="urn:oid:2.16.840.1.113883.2.4.4.1.900.2"/>
                     <code value="215"/>
                  </numerator>
                  <denominator>
                     <value value="10"/>
                     <unit value="milliliter"/>
                     <system value="urn:oid:2.16.840.1.113883.2.4.4.1.900.2"/>
                     <code value="233"/>
                  </denominator>
               </amount>
            </ingredient>
         </Medication>
      </resource>
      <search>
         <mode value="include"/>
      </search>
   </entry>
   <entry>
      <fullUrl value="urn:uuid:c6d91689-d186-11e9-1855-020000000000"/>
      <resource>
         <Medication>
            <meta>
               <profile value="http://nictiz.nl/fhir/StructureDefinition/zib-Product"/>
            </meta>
            <extension url="http://nictiz.nl/fhir/StructureDefinition/zib-Product-Description">
               <valueString value="Titel: Easyspump penicilline g 18me Regel: Water v inject ampul 5ml Regel: injpdr penincil.g na 1milj e Regel: Infnacl 0,9% fl 100ml Regel: Easypump lt 125-24 5ml/uur"/>
            </extension>
            <code>
               <extension url="http://hl7.org/fhir/StructureDefinition/iso21090-nullFlavor">
                  <valueCode value="OTH"/>
               </extension>
               <text value="Easyspump penicilline g 18me"/>
            </code>
            <ingredient>
               <itemCodeableConcept>
                  <coding>
                     <system value="urn:oid:2.16.840.1.113883.2.4.4.7"/>
                     <code value="2558092"/>
                     <display value="PENICILLIN G-NA SANDOZ INJPDR FLACON  1 MEGA IE"/>
                  </coding>
               </itemCodeableConcept>
               <amount>
                  <numerator>
                     <value value="18"/>
                     <unit value="stuk"/>
                     <system value="urn:oid:2.16.840.1.113883.2.4.4.1.900.2"/>
                     <code value="245"/>
                  </numerator>
                  <denominator>
                     <value value="1"/>
                     <unit value="stuk"/>
                     <system value="urn:oid:2.16.840.1.113883.2.4.4.1.900.2"/>
                     <code value="245"/>
                  </denominator>
               </amount>
            </ingredient>
            <ingredient>
               <itemCodeableConcept>
                  <coding>
                     <system value="urn:oid:2.16.840.1.113883.2.4.4.7"/>
                     <code value="2257602"/>
                     <display value="WATER VOOR INJECTIE CF FLACON  5ML"/>
                  </coding>
               </itemCodeableConcept>
               <amount>
                  <numerator>
                     <value value="5"/>
                     <unit value="stuk"/>
                     <system value="urn:oid:2.16.840.1.113883.2.4.4.1.900.2"/>
                     <code value="245"/>
                  </numerator>
                  <denominator>
                     <value value="1"/>
                     <unit value="stuk"/>
                     <system value="urn:oid:2.16.840.1.113883.2.4.4.1.900.2"/>
                     <code value="245"/>
                  </denominator>
               </amount>
            </ingredient>
            <ingredient>
               <itemCodeableConcept>
                  <coding>
                     <system value="urn:oid:2.16.840.1.113883.2.4.4.7"/>
                     <code value="598968"/>
                     <display value="INFVLST NACL 9MG/ML ZAK  100ML"/>
                  </coding>
               </itemCodeableConcept>
               <amount>
                  <numerator>
                     <value value="1"/>
                     <unit value="stuk"/>
                     <system value="urn:oid:2.16.840.1.113883.2.4.4.1.900.2"/>
                     <code value="245"/>
                  </numerator>
                  <denominator>
                     <value value="1"/>
                     <unit value="stuk"/>
                     <system value="urn:oid:2.16.840.1.113883.2.4.4.1.900.2"/>
                     <code value="245"/>
                  </denominator>
               </amount>
            </ingredient>
            <ingredient>
               <itemCodeableConcept>
                  <coding>
                     <system value="urn:oid:2.16.840.1.113883.2.4.4.8"/>
                     <code value="15760839"/>
                     <display value="EASYPUMP II LT 125- 25 S 5ML/UUR 125ML"/>
                  </coding>
               </itemCodeableConcept>
               <amount>
                  <numerator>
                     <value value="1"/>
                     <unit value="stuk"/>
                     <system value="urn:oid:2.16.840.1.113883.2.4.4.1.900.2"/>
                     <code value="245"/>
                  </numerator>
                  <denominator>
                     <value value="1"/>
                     <unit value="stuk"/>
                     <system value="urn:oid:2.16.840.1.113883.2.4.4.1.900.2"/>
                     <code value="245"/>
                  </denominator>
               </amount>
            </ingredient>
         </Medication>
      </resource>
      <search>
         <mode value="include"/>
      </search>
   </entry>
   <entry>
      <fullUrl value="urn:uuid:c6d916fc-d186-11e9-1855-020000000000"/>
      <resource>
         <Medication>
            <meta>
               <profile value="http://nictiz.nl/fhir/StructureDefinition/zib-Product"/>
            </meta>
            <extension url="http://nictiz.nl/fhir/StructureDefinition/zib-Product-Description">
               <valueString value="Titel: Furosemide 125mg/50ml pump Regel: infnacl 0,9% fl 50ml Regel: Easypump lt 60-24 2ml/uur Regel: Furosemidum"/>
            </extension>
            <code>
               <extension url="http://hl7.org/fhir/StructureDefinition/iso21090-nullFlavor">
                  <valueCode value="OTH"/>
               </extension>
               <text value="Furosemide 125mg/50ml pump"/>
            </code>
            <ingredient>
               <itemCodeableConcept>
                  <coding>
                     <system value="urn:oid:2.16.840.1.113883.2.4.4.7"/>
                     <code value="497142"/>
                     <display value="FUROSEMIDUM"/>
                  </coding>
               </itemCodeableConcept>
               <amount>
                  <numerator>
                     <value value="0.13"/>
                     <unit value="gram"/>
                     <system value="urn:oid:2.16.840.1.113883.2.4.4.1.900.2"/>
                     <code value="215"/>
                  </numerator>
                  <denominator>
                     <value value="1"/>
                     <unit value="stuk"/>
                     <system value="urn:oid:2.16.840.1.113883.2.4.4.1.900.2"/>
                     <code value="245"/>
                  </denominator>
               </amount>
            </ingredient>
            <ingredient>
               <itemCodeableConcept>
                  <coding>
                     <system value="urn:oid:2.16.840.1.113883.2.4.4.7"/>
                     <code value="598968"/>
                     <display value="INFVLST NACL 9MG/ML ZAK  100ML"/>
                  </coding>
               </itemCodeableConcept>
               <amount>
                  <numerator>
                     <value value="1"/>
                     <unit value="stuk"/>
                     <system value="urn:oid:2.16.840.1.113883.2.4.4.1.900.2"/>
                     <code value="245"/>
                  </numerator>
                  <denominator>
                     <value value="1"/>
                     <unit value="stuk"/>
                     <system value="urn:oid:2.16.840.1.113883.2.4.4.1.900.2"/>
                     <code value="245"/>
                  </denominator>
               </amount>
            </ingredient>
            <ingredient>
               <itemCodeableConcept>
                  <coding>
                     <system value="urn:oid:2.16.840.1.113883.2.4.4.8"/>
                     <code value="15760855"/>
                     <display value="EASYPUMP II LT  60- 30 S 2ML/UUR 60ML"/>
                  </coding>
               </itemCodeableConcept>
               <amount>
                  <numerator>
                     <value value="1"/>
                     <unit value="stuk"/>
                     <system value="urn:oid:2.16.840.1.113883.2.4.4.1.900.2"/>
                     <code value="245"/>
                  </numerator>
                  <denominator>
                     <value value="1"/>
                     <unit value="stuk"/>
                     <system value="urn:oid:2.16.840.1.113883.2.4.4.1.900.2"/>
                     <code value="245"/>
                  </denominator>
               </amount>
            </ingredient>
         </Medication>
      </resource>
      <search>
         <mode value="include"/>
      </search>
   </entry>
   <entry>
      <fullUrl value="urn:uuid:c6d9175d-d186-11e9-1855-020000000000"/>
      <resource>
         <Medication>
            <meta>
               <profile value="http://nictiz.nl/fhir/StructureDefinition/zib-Product"/>
            </meta>
            <extension url="http://nictiz.nl/fhir/StructureDefinition/zib-Product-Description">
               <valueString value="Titel: Penicilline 12milj/24 uur Regel: Water v injectie ampul 10ml Regel: Injpdrpenecil.g na 1milj e Regel: Infnacl 0,9% fl 100ml Regel: Easypump lt 125-24 5ml/uur"/>
            </extension>
            <code>
               <extension url="http://hl7.org/fhir/StructureDefinition/iso21090-nullFlavor">
                  <valueCode value="OTH"/>
               </extension>
               <text value="Penicilline 12milj/24 uur"/>
            </code>
            <ingredient>
               <itemCodeableConcept>
                  <coding>
                     <system value="urn:oid:2.16.840.1.113883.2.4.4.7"/>
                     <code value="2558092"/>
                     <display value="PENICILLIN G-NA SANDOZ INJPDR FLACON  1 MEGA IE"/>
                  </coding>
               </itemCodeableConcept>
               <amount>
                  <numerator>
                     <value value="12"/>
                     <unit value="stuk"/>
                     <system value="urn:oid:2.16.840.1.113883.2.4.4.1.900.2"/>
                     <code value="245"/>
                  </numerator>
                  <denominator>
                     <value value="1"/>
                     <unit value="stuk"/>
                     <system value="urn:oid:2.16.840.1.113883.2.4.4.1.900.2"/>
                     <code value="245"/>
                  </denominator>
               </amount>
            </ingredient>
            <ingredient>
               <itemCodeableConcept>
                  <coding>
                     <system value="urn:oid:2.16.840.1.113883.2.4.4.7"/>
                     <code value="2257610"/>
                     <display value="WATER VOOR INJECTIE CF FLACON 10ML"/>
                  </coding>
               </itemCodeableConcept>
               <amount>
                  <numerator>
                     <value value="2"/>
                     <unit value="stuk"/>
                     <system value="urn:oid:2.16.840.1.113883.2.4.4.1.900.2"/>
                     <code value="245"/>
                  </numerator>
                  <denominator>
                     <value value="1"/>
                     <unit value="stuk"/>
                     <system value="urn:oid:2.16.840.1.113883.2.4.4.1.900.2"/>
                     <code value="245"/>
                  </denominator>
               </amount>
            </ingredient>
            <ingredient>
               <itemCodeableConcept>
                  <coding>
                     <system value="urn:oid:2.16.840.1.113883.2.4.4.7"/>
                     <code value="598968"/>
                     <display value="INFVLST NACL 9MG/ML ZAK  100ML"/>
                  </coding>
               </itemCodeableConcept>
               <amount>
                  <numerator>
                     <value value="1"/>
                     <unit value="stuk"/>
                     <system value="urn:oid:2.16.840.1.113883.2.4.4.1.900.2"/>
                     <code value="245"/>
                  </numerator>
                  <denominator>
                     <value value="1"/>
                     <unit value="stuk"/>
                     <system value="urn:oid:2.16.840.1.113883.2.4.4.1.900.2"/>
                     <code value="245"/>
                  </denominator>
               </amount>
            </ingredient>
            <ingredient>
               <itemCodeableConcept>
                  <coding>
                     <system value="urn:oid:2.16.840.1.113883.2.4.4.8"/>
                     <code value="15760839"/>
                     <display value="EASYPUMP II LT 125- 25 S 5ML/UUR 125ML"/>
                  </coding>
               </itemCodeableConcept>
               <amount>
                  <numerator>
                     <value value="1"/>
                     <unit value="stuk"/>
                     <system value="urn:oid:2.16.840.1.113883.2.4.4.1.900.2"/>
                     <code value="245"/>
                  </numerator>
                  <denominator>
                     <value value="1"/>
                     <unit value="stuk"/>
                     <system value="urn:oid:2.16.840.1.113883.2.4.4.1.900.2"/>
                     <code value="245"/>
                  </denominator>
               </amount>
            </ingredient>
         </Medication>
      </resource>
      <search>
         <mode value="include"/>
      </search>
   </entry>
   <entry>
      <fullUrl value="urn:uuid:c6d917d0-d186-11e9-1855-020000000000"/>
      <resource>
         <Medication>
            <meta>
               <profile value="http://nictiz.nl/fhir/StructureDefinition/zib-Product"/>
            </meta>
            <extension url="http://nictiz.nl/fhir/StructureDefinition/zib-Product-Description">
               <valueString value="Titel: Dalterparine ing. 0,5ml=500e Regel: minpl clas nacl 90mg/10ml Regel: Fragmin 5000/0,2ml wwsp"/>
            </extension>
            <code>
               <extension url="http://hl7.org/fhir/StructureDefinition/iso21090-nullFlavor">
                  <valueCode value="OTH"/>
               </extension>
               <text value="Dalterparine ing. 0,5ml=500e"/>
            </code>
            <ingredient>
               <itemCodeableConcept>
                  <coding>
                     <system value="urn:oid:2.16.840.1.113883.2.4.4.7"/>
                     <code value="634123"/>
                     <display value="FRAGMIN   5000 INJVLST 25.000IE/ML WWSP 0,2ML"/>
                  </coding>
               </itemCodeableConcept>
               <amount>
                  <numerator>
                     <value value="0.1"/>
                     <unit value="stuk"/>
                     <system value="urn:oid:2.16.840.1.113883.2.4.4.1.900.2"/>
                     <code value="245"/>
                  </numerator>
                  <denominator>
                     <value value="1"/>
                     <unit value="stuk"/>
                     <system value="urn:oid:2.16.840.1.113883.2.4.4.1.900.2"/>
                     <code value="245"/>
                  </denominator>
               </amount>
            </ingredient>
            <ingredient>
               <itemCodeableConcept>
                  <coding>
                     <system value="urn:oid:2.16.840.1.113883.2.4.4.8"/>
                     <code value="15739074"/>
                     <display value="OMNIFLUSH NACL 0,9% WWSP 10ML IN 10ML"/>
                  </coding>
               </itemCodeableConcept>
               <amount>
                  <numerator>
                     <value value="0.05"/>
                     <unit value="stuk"/>
                     <system value="urn:oid:2.16.840.1.113883.2.4.4.1.900.2"/>
                     <code value="245"/>
                  </numerator>
                  <denominator>
                     <value value="1"/>
                     <unit value="stuk"/>
                     <system value="urn:oid:2.16.840.1.113883.2.4.4.1.900.2"/>
                     <code value="245"/>
                  </denominator>
               </amount>
            </ingredient>
         </Medication>
      </resource>
      <search>
         <mode value="include"/>
      </search>
   </entry>
</Bundle>
