<?xml version="1.0" encoding="UTF-8"?>
<?xml-model href="http://hl7.org/fhir/STU3/bundle.sch" type="application/xml" schematypens="http://purl.oclc.org/dsdl/schematron"?>
<Bundle xmlns="http://hl7.org/fhir"
        xmlns:xsi="http://www.w3.org/2001/XMLSchema-instance"
        xsi:schemaLocation="http://hl7.org/fhir http://hl7.org/fhir/STU3/bundle.xsd"><!-- TODO Check Bundle elements -->
   <id value="d3e2"/>
   <type value="searchset"/>
   <total value="2"/>
   <entry>
      <fullUrl value="TAConverted_mag01--2.16.528.1.1007.3.3.1234567.3"/>
      <resource>
         <MedicationDispense xmlns:f="http://hl7.org/fhir"
                             xmlns:local="urn:fhir:stu3:functions"
                             xmlns:xd="http://www.oxygenxml.com/ns/doc/xsl"
                             xmlns:nf="http://www.nictiz.nl/functions"
                             xmlns:xs="http://www.w3.org/2001/XMLSchema">
            <meta>
               <profile value="http://nictiz.nl/fhir/StructureDefinition/zib-AdministrationAgreement"/>
            </meta>
            <contained>
               <Medication>
                  <id value="d3e70"/>
                  <meta>
                     <profile value="http://nictiz.nl/fhir/StructureDefinition/zib-Product"/>
                  </meta>
                  <extension url="http://nictiz.nl/fhir/StructureDefinition/zib-Product-Description">
                     <valueString value="Titel: Hydrocortison zetpil 100 mg Regel: Hydrocort micronisatum 100 mg Regel: Witepsol H15 past 1,99 gr"/>
                  </extension>
                  <code>
                     <text value="Hydrocortison zetpil 100 mg"/>
                  </code>
                  <form>
                     <coding>
                        <system value="urn:oid:1.2.3.999"/>
                        <code value="formcode"/>
                        <display value="formcode displayName"/>
                     </coding>
                  </form>
                  <ingredient>
                     <itemCodeableConcept>
                        <coding>
                           <system value="urn:oid:2.16.840.1.113883.2.4.4.7"/>
                           <code value="252247"/>
                           <display value="HYDROCORTISONUM MICRONISAT"/>
                        </coding>
                     </itemCodeableConcept>
                     <isActive value="true"/>
                     <amount>
                        <numerator>
                           <value value="10"/>
                           <unit value="milligram"/>
                           <system value="2.16.840.1.113883.2.4.4.1.900.2"/>
                           <code value="229"/>
                        </numerator>
                        <denominator>
                           <value value="1"/>
                           <unit value="stuk"/>
                           <system value="2.16.840.1.113883.2.4.4.1.900.2"/>
                           <code value="245"/>
                        </denominator>
                     </amount>
                  </ingredient>
                  <ingredient>
                     <itemCodeableConcept>
                        <coding>
                           <system value="urn:oid:2.16.840.1.113883.2.4.4.7"/>
                           <code value="265144"/>
                           <display value="WITEPSOL H15 PAST"/>
                        </coding>
                     </itemCodeableConcept>
                     <isActive value="true"/>
                     <amount>
                        <numerator>
                           <value value="1.99"/>
                           <unit value="gram"/>
                           <system value="2.16.840.1.113883.2.4.4.1.900.2"/>
                           <code value="215"/>
                        </numerator>
                        <denominator>
                           <value value="1"/>
                           <unit value="stuk"/>
                           <system value="2.16.840.1.113883.2.4.4.1.900.2"/>
                           <code value="245"/>
                        </denominator>
                     </amount>
                  </ingredient>
               </Medication>
            </contained>
            <extension url="http://nictiz.nl/fhir/StructureDefinition/zib-AdministrationAgreement-AuthoredOn">
               <valueDateTime value="2016-03-04"/>
            </extension>
            <extension url="http://nictiz.nl/fhir/StructureDefinition/zib-Medication-MedicationTreatment">
               <valueIdentifier>
                  <system value="urn:oid:2.16.528.1.1007.3.3.1234567.3"/>
                  <value value="MedBehConverted_mag01"/>
               </valueIdentifier>
            </extension>
            <identifier>
               <system value="urn:oid:2.16.528.1.1007.3.3.1234567.3"/>
               <value value="TAConverted_mag01"/>
            </identifier>
            <category>
               <coding>
                  <system value="http://snomed.info/sct"/>
                  <code value="422037009"/>
                  <display value="Provider medication administration instructions (procedure)"/>
               </coding>
            </category>
            <medicationReference>
               <reference value="#d3e70"/>
               <display value="Hydrocortison zetpil 100 mg"/>
            </medicationReference>
            <!-- Patient -->
            <!-- Possibly not to be included for MedMij related interactions, because patient should be known in infra-context -->
            <subject>
               <identifier>
                  <system value="http://fhir.nl/fhir/NamingSystem/bsn"/>
                  <value value="012345672"/>
               </identifier>
               <display value="J.J. le Noble van 't Son"/>
            </subject>
            <supportingInformation>
               <identifier>
                  <system value="urn:oid:'2.16.840.1.113883.5.1008'"/>
                  <value value="NI"/>
               </identifier>
            </supportingInformation>
            <!-- Responsible dispensing pharmacy -->
            <performer>
               <actor>
                  <identifier>
                     <system value="http://fhir.nl/fhir/NamingSystem/ura"/>
                     <value value="01234567"/>
                  </identifier>
               </actor>
            </performer>
            <!--Toelichting-->
            <dosageInstruction>
               <sequence value="1"/>
               <!--TODO: gebruiksinstructie/omschrijving should be defined one level higher, not per dosageInstruction-->
               <text value="pilschema"/>
               <!--TODO: gebruiksinstructie/aanvullende_instructie should be defined one level higher, not per dosageInstruction-->
               <additionalInstruction>
                  <coding>
                     <system value="https://referentiemodel.nhg.org/tabellen/nhg-tabel-25-gebruiksvoorschrift#aanvullend-numeriek"/>
                     <code value="1131"/>
                     <display value="gebruik volgens schema"/>
                  </coding>
               </additionalInstruction>
               <timing>
                  <repeat><!--doseerduur--><!--toedieningsduur--><!--toedientijd-->
                     <timeOfDay value="09:00:00"/>
                     <!--toedientijd-->
                     <timeOfDay value="12:00:00"/>
                  </repeat>
               </timing>
               <asNeededCodeableConcept>
                  <extension url="http://hl7.org/fhir/StructureDefinition/iso21090-nullFlavor">
                     <valueCode value="OTH"/>
                  </extension>
                  <text value="adf a dfasdf asdf d"/>
               </asNeededCodeableConcept>
               <route>
                  <extension url="http://hl7.org/fhir/StructureDefinition/iso21090-nullFlavor">
                     <valueCode value="NI"/>
                  </extension>
               </route>
            </dosageInstruction>
         </MedicationDispense>
      </resource>
   </entry>
   <entry>
      <fullUrl value="mag01--2.16.528.1.1007.3.3.1234567.3"/>
      <resource>
         <MedicationDispense xmlns:f="http://hl7.org/fhir"
                             xmlns:local="urn:fhir:stu3:functions"
                             xmlns:xd="http://www.oxygenxml.com/ns/doc/xsl"
                             xmlns:nf="http://www.nictiz.nl/functions"
                             xmlns:xs="http://www.w3.org/2001/XMLSchema">
            <meta>
               <profile value="http://nictiz.nl/fhir/StructureDefinition/zib-Dispense"/>
            </meta>
            <contained>
               <Medication>
                  <id value="d3e205"/>
                  <meta>
                     <profile value="http://nictiz.nl/fhir/StructureDefinition/zib-Product"/>
                  </meta>
                  <extension url="http://nictiz.nl/fhir/StructureDefinition/zib-Product-Description">
                     <valueString value="Titel: Hydrocortison zetpil 100 mg Regel: Hydrocort micronisatum 100 mg Regel: Witepsol H15 past 1,99 gr"/>
                  </extension>
                  <code>
                     <text value="Hydrocortison zetpil 100 mg"/>
                  </code>
                  <form>
                     <coding>
                        <system value="urn:oid:1.2.3.999"/>
                        <code value="formcode"/>
                        <display value="formcode displayName"/>
                     </coding>
                  </form>
                  <ingredient>
                     <itemCodeableConcept>
                        <coding>
                           <system value="urn:oid:2.16.840.1.113883.2.4.4.7"/>
                           <code value="252247"/>
                           <display value="HYDROCORTISONUM MICRONISAT"/>
                        </coding>
                     </itemCodeableConcept>
                     <isActive value="true"/>
                     <amount>
                        <numerator>
                           <value value="10"/>
                           <unit value="milligram"/>
                           <system value="2.16.840.1.113883.2.4.4.1.900.2"/>
                           <code value="229"/>
                        </numerator>
                        <denominator>
                           <value value="1"/>
                           <unit value="stuk"/>
                           <system value="2.16.840.1.113883.2.4.4.1.900.2"/>
                           <code value="245"/>
                        </denominator>
                     </amount>
                  </ingredient>
                  <ingredient>
                     <itemCodeableConcept>
                        <coding>
                           <system value="urn:oid:2.16.840.1.113883.2.4.4.7"/>
                           <code value="265144"/>
                           <display value="WITEPSOL H15 PAST"/>
                        </coding>
                     </itemCodeableConcept>
                     <isActive value="true"/>
                     <amount>
                        <numerator>
                           <value value="1.99"/>
                           <unit value="gram"/>
                           <system value="2.16.840.1.113883.2.4.4.1.900.2"/>
                           <code value="215"/>
                        </numerator>
                        <denominator>
                           <value value="1"/>
                           <unit value="stuk"/>
                           <system value="2.16.840.1.113883.2.4.4.1.900.2"/>
                           <code value="245"/>
                        </denominator>
                     </amount>
                  </ingredient>
               </Medication>
            </contained>
            <extension url="http://nictiz.nl/fhir/StructureDefinition/zib-Dispense-RequestDate">
               <valueDateTime value="2016-03-04T12:00:00"/>
            </extension>
            <extension url="http://nictiz.nl/fhir/StructureDefinition/zib-Medication-MedicationTreatment">
               <valueIdentifier>
                  <system value="urn:oid:2.16.528.1.1007.3.3.1234567.3"/>
                  <value value="MedBehConverted_mag01"/>
               </valueIdentifier>
            </extension>
            <identifier>
               <system value="urn:oid:2.16.528.1.1007.3.3.1234567.3"/>
               <value value="mag01"/>
            </identifier>
            <category>
               <coding>
                  <system value="http://snomed.info/sct"/>
                  <code value="373784005"/>
                  <display value="Dispensing medication (procedure)"/>
               </coding>
            </category>
            <medicationReference>
               <reference value="#d3e205"/>
               <display value="Hydrocortison zetpil 100 mg"/>
            </medicationReference>
            <!-- Patient -->
            <!-- Possibly not to be included for MedMij related interactions, because patient should be known in infra-context -->
            <subject>
               <identifier>
                  <system value="http://fhir.nl/fhir/NamingSystem/bsn"/>
                  <value value="012345672"/>
               </identifier>
               <display value="J.J. le Noble van 't Son"/>
            </subject>
            <!-- Responsible dispensing pharmacy -->
            <performer>
               <actor>
                  <identifier>
                     <system value="http://fhir.nl/fhir/NamingSystem/ura"/>
                     <value value="01234567"/>
                  </identifier>
               </actor>
            </performer>
            <quantity>
               <value value="1"/>
               <unit value="Stuk"/>
               <system value="2.16.840.1.113883.2.4.4.1.900.2"/>
               <code value="245"/>
            </quantity>
            <daysSupply>
               <value value="23"/>
               <system value="http://unitsofmeasure.org"/>
               <code value="d"/>
            </daysSupply>
         </MedicationDispense>
      </resource>
   </entry>
</Bundle>
