<?xml version="1.0" encoding="UTF-8"?>
<?xml-model href="http://hl7.org/fhir/STU3/bundle.sch" type="application/xml" schematypens="http://purl.oclc.org/dsdl/schematron"?>
<Bundle xmlns="http://hl7.org/fhir" xmlns:xsi="http://www.w3.org/2001/XMLSchema-instance" xsi:schemaLocation="http://hl7.org/fhir http://hl7.org/fhir/STU3/bundle.xsd">
   <!-- TODO Check Bundle elements -->
   <id value="d3e1"/>
   <type value="searchset"/>
   <total value="5"/>
   <entry>
      <fullUrl value="medbeh_VMA_001_MA02"/>
      <resource>
         <MedicationRequest>
            <meta>
               <profile value="http://nictiz.nl/fhir/StructureDefinition/zib-MedicationAgreement"/>
            </meta>
            <!--voorschrijver-->
            <contained>
               <Practitioner>
                  <id value="d3e67"/>
                  <!--zorgverlener_identificatie_nummer-->
                  <identifier>
                     <system value="http://fhir.nl/fhir/NamingSystem/uzi-nr-pers"/>
                     <value value="006797896"/>
                  </identifier>
                  <!--naamgegevens-->
                  <name>
                     <extension url="http://hl7.org/fhir/StructureDefinition/humanname-own-prefix">
                        <valueString value="van"/>
                     </extension>
                     <extension url="http://hl7.org/fhir/StructureDefinition/humanname-own-name">
                        <valueString value="Beek"/>
                     </extension>
                     <given value="Johan">
                        <extension url="http://hl7.org/fhir/StructureDefinition/iso21090-EN-qualifier">
                           <valueCode value="BR"/>
                        </extension>
                     </given>
                     <given value="J.">
                        <extension url="http://hl7.org/fhir/StructureDefinition/iso21090-EN-qualifier">
                           <valueCode value="IN"/>
                        </extension>
                     </given>
                  </name>
               </Practitioner>
            </contained>
            <!--voorschrijver / zorgaanbieder-->
            <contained>
               <Organization>
                  <id value="d3e92"/>
                  <identifier>
                     <system value="http://fhir.nl/fhir/NamingSystem/ura"/>
                     <value value="00765332"/>
                  </identifier>
                  <identifier>
                     <system value="http://fhir.nl/fhir/NamingSystem/agb-z"/>
                     <value value="01028432"/>
                  </identifier>
                  <name value="Huisartspraktijk Van Beek"/>
               </Organization>
            </contained>
            <extension url="http://nictiz.nl/fhir/StructureDefinition/zib-MedicationUse-Duration">
               <valueDuration>
                  <value value="10"/>
                  <unit value="dag"/>
                  <system value="http://unitsofmeasure.org"/>
                  <code value="d"/>
               </valueDuration>
            </extension>
            <extension url="http://nictiz.nl/fhir/StructureDefinition/zib-Medication-MedicationTreatment">
               <valueIdentifier>
                  <value value="medbeh_VMA_001"/>
               </valueIdentifier>
            </extension>
            <identifier>
               <value value="medbeh_VMA_001_MA02"/>
            </identifier>
            <intent value="order"/>
            <category>
               <!--medicatieafspraak-->
               <coding>
                  <system value="http://snomed.info/sct"/>
                  <code value="16076005"/>
                  <display value="Prescription (procedure)"/>
               </coding>
            </category>
            <!--geneesmiddel-->
            <medicationCodeableConcept>
               <coding>
                  <system value="urn:oid:12.3.999"/>
                  <code value="19844"/>
                  <display value="19844 DOXYCYCLINE TABLET 100MG"/>
               </coding>
            </medicationCodeableConcept>
            <subject>
               <identifier>
                  <system value="http://fhir.nl/fhir/NamingSystem/bsn"/>
                  <value value="32456487"/>
               </identifier>
               <display value="Antje de Vries"/>
            </subject>
            <supportingInformation>
               <identifier>
                  <system value="urn:oid:1.2.3.999"/>
                  <value value="MA#1"/>
               </identifier>
               <display value="relatie naar medicatieafspraak"/>
            </supportingInformation>
            <supportingInformation>
               <identifier>
                  <system value="urn:oid:1.2.3.999"/>
                  <value value="TA#1"/>
               </identifier>
               <display value="relatie naar toedieningsafspraak"/>
            </supportingInformation>
            <supportingInformation>
               <identifier>
                  <system value="urn:oid:1.2.3.999"/>
                  <value value="GB#1"/>
               </identifier>
               <display value="relatie naar medicatiegebruik"/>
            </supportingInformation>
            <!--afspraakdatum-->
            <authoredOn value="2016-09-02T14:30:23"/>
            <requester>
               <agent>
                  <reference value="#d3e67"/>
                  <display value="Johan J. van Beek"/>
               </agent>
               <onBehalfOf>
                  <reference value="#d3e92"/>
                  <display value="Huisartspraktijk Van Beek"/>
               </onBehalfOf>
            </requester>
            <!--reden afspraak-->
            <reasonCode>
               <coding>
                  <system value="http://snomed.info/sct"/>
                  <code value="438833006"/>
                  <display value="Contra-indicatie"/>
               </coding>
            </reasonCode>
            <!--toelichting-->
            <note>
               <text value="Patiënt gebruikt Verapamil, contra-indicatie voor het origineel voorgeschreven Klacid."/>
            </note>
            <dosageInstruction>
               <sequence value="1"/>
               <text value="Gedurende 10 dagen, eerste dag 2 tabletten en vervolgens 1x daags 1 tablet"/>
               <timing>
                  <repeat>
                     <!--doseerduur-->
                     <boundsDuration>
                        <value value="1"/>
                        <unit value="dag"/>
                        <system value="http://unitsofmeasure.org"/>
                        <code value="d"/>
                     </boundsDuration>
                     <!--toedieningsduur-->
                     <frequency value="1"/>
                     <!--frequentie/tijdseenheid-->
                     <period value="1"/>
                     <periodUnit value="d"/>
                  </repeat>
               </timing>
               <route>
                  <coding>
                     <system value="urn:oid:2.16.840.1.113883.2.4.4.9"/>
                     <code value="9"/>
                  </coding>
               </route>
               <doseQuantity>
                  <value value="2"/>
               </doseQuantity>
            </dosageInstruction>
            <dosageInstruction>
               <sequence value="2"/>
               <text value="Gedurende 10 dagen, eerste dag 2 tabletten en vervolgens 1x daags 1 tablet"/>
               <timing>
                  <repeat>
                     <!--doseerduur-->
                     <boundsDuration>
                        <value value="9"/>
                        <unit value="dag"/>
                        <system value="http://unitsofmeasure.org"/>
                        <code value="d"/>
                     </boundsDuration>
                     <!--toedieningsduur-->
                     <frequency value="1"/>
                     <!--frequentie/tijdseenheid-->
                     <period value="1"/>
                     <periodUnit value="d"/>
                  </repeat>
               </timing>
               <route>
                  <coding>
                     <system value="urn:oid:2.16.840.1.113883.2.4.4.9"/>
                     <code value="9"/>
                  </coding>
               </route>
               <doseQuantity>
                  <value value="1"/>
               </doseQuantity>
            </dosageInstruction>
            <!-- Responsible dispensing pharmacy -->
         </MedicationRequest>
      </resource>
   </entry>
   <entry>
      <fullUrl value="medbeh_VMA_001_MA01_VV01"/>
      <resource>
         <MedicationRequest>
            <meta>
               <profile value="http://nictiz.nl/fhir/StructureDefinition/zib-DispenseRequest"/>
            </meta>
            <contained>
               <Practitioner>
                  <id value="d3e199"/>
                  <!--zorgverlener_identificatie_nummer-->
                  <identifier>
                     <system value="http://fhir.nl/fhir/NamingSystem/uzi-nr-pers"/>
                     <value value="006797896"/>
                  </identifier>
                  <!--naamgegevens-->
                  <name>
                     <extension url="http://hl7.org/fhir/StructureDefinition/humanname-own-prefix">
                        <valueString value="van"/>
                     </extension>
                     <extension url="http://hl7.org/fhir/StructureDefinition/humanname-own-name">
                        <valueString value="Beek"/>
                     </extension>
                     <given value="J.">
                        <extension url="http://hl7.org/fhir/StructureDefinition/iso21090-EN-qualifier">
                           <valueCode value="IN"/>
                        </extension>
                     </given>
                  </name>
               </Practitioner>
            </contained>
            <contained>
               <Organization>
                  <id value="d3e222"/>
                  <identifier>
                     <system value="http://fhir.nl/fhir/NamingSystem/ura"/>
                     <value value="00765332"/>
                  </identifier>
                  <name value="Huisartspraktijk Van Beek"/>
               </Organization>
            </contained>
            <contained>
               <Organization>
                  <id value="d3e261"/>
                  <identifier>
                     <system value="http://fhir.nl/fhir/NamingSystem/ura"/>
                     <value value="22343221"/>
                  </identifier>
                  <name value="Apotheek Boomsma"/>
               </Organization>
            </contained>
            <extension url="http://nictiz.nl/fhir/StructureDefinition/zib-Medication-AdditionalInformation">
               <valueCodeableConcept>
                  <coding>
                     <system value="urn:oid:1.2.3.999"/>
                     <code value="4"/>
                     <display value="aanvullende wensen todo"/>
                  </coding>
               </valueCodeableConcept>
            </extension>
            <extension url="http://nictiz.nl/fhir/StructureDefinition/zib-DispenseRequest-RelatedMedicationAgreement">
               <valueReference>
                  <identifier>
                     <system value="urn:oid:1.2.3.999"/>
                     <value value="MA#2452"/>
                  </identifier>
                  <display value="Relatie naar medicatieafspraak, id = MA#2452--1.2.3.999"/>
               </valueReference>
            </extension>
            <extension url="http://nictiz.nl/fhir/StructureDefinition/zib-Medication-MedicationTreatment">
               <valueIdentifier>
                  <value value="medbeh_VMA_001"/>
               </valueIdentifier>
            </extension>
            <identifier>
               <value value="medbeh_VMA_001_MA01_VV01"/>
            </identifier>
            <intent value="order"/>
            <category>
               <coding>
                  <system value="http://snomed.info/sct"/>
                  <code value="52711000146108"/>
                  <display value="Request to dispense medication to patient (situation)"/>
               </coding>
            </category>
            <medicationCodeableConcept>
               <coding>
                  <system value="urn:oid:2.16.840.1.113883.2.4.4.10"/>
                  <code value="123323"/>
                  <display value="AMLODIPINE TABLET 10MG"/>
               </coding>
            </medicationCodeableConcept>
            <subject>
               <identifier>
                  <system value="http://fhir.nl/fhir/NamingSystem/bsn"/>
                  <value value="32456487"/>
               </identifier>
               <display value="Antje de Vries"/>
            </subject>
            <authoredOn value="2016-09-02T09:11:00"/>
            <requester>
               <agent>
                  <reference value="#d3e199"/>
                  <display value="J. van Beek"/>
               </agent>
               <onBehalfOf>
                  <reference value="#d3e222"/>
                  <display value="Huisartspraktijk Van Beek"/>
               </onBehalfOf>
            </requester>
            <note>
               <text value="toelichtin bij het vv"/>
            </note>
            <dispenseRequest>
               <extension url="http://nictiz.nl/fhir/StructureDefinition/zib-Dispense-Location">
                  <valueString value="in de bloempot stoppen"/>
               </extension>
               <validityPeriod>
                  <start value="2017-03-06T08:00:00"/>
                  <end value="2018-03-06T08:00:00"/>
               </validityPeriod>
               <numberOfRepeatsAllowed value="1"/>
               <quantity>
                  <value value="90"/>
                  <unit value="Stuk"/>
                  <system value="urn:oid:2.16.840.1.113883.2.4.4.1.900.2"/>
                  <code value="245"/>
               </quantity>
               <expectedSupplyDuration>
                  <value value="3"/>
                  <unit value="dag"/>
                  <system value="http://unitsofmeasure.org"/>
                  <code value="d"/>
               </expectedSupplyDuration>
               <performer>
                  <reference value="#d3e261"/>
                  <display value="Apotheek Boomsma"/>
               </performer>
            </dispenseRequest>
         </MedicationRequest>
      </resource>
   </entry>
   <entry>
      <fullUrl value="medbeh_VMA_001_MA02_TA01"/>
      <resource>
         <MedicationDispense>
            <meta>
               <profile value="http://nictiz.nl/fhir/StructureDefinition/zib-AdministrationAgreement"/>
            </meta>
            <extension url="http://nictiz.nl/fhir/StructureDefinition/zib-AdministrationAgreement-AuthoredOn">
               <valueDateTime value="2016-09-02T15:12:34"/>
            </extension>
            <extension url="http://nictiz.nl/fhir/StructureDefinition/zib-MedicationUse-Duration">
               <valueDuration>
                  <value value="10"/>
                  <unit value="dag"/>
                  <system value="http://unitsofmeasure.org"/>
                  <code value="d"/>
               </valueDuration>
            </extension>
            <extension url="http://nictiz.nl/fhir/StructureDefinition/zib-Medication-MedicationTreatment">
               <valueIdentifier>
                  <value value="medbeh_VMA_001"/>
               </valueIdentifier>
            </extension>
            <identifier>
               <value value="medbeh_VMA_001_MA02_TA01"/>
            </identifier>
            <category>
               <coding>
                  <system value="http://snomed.info/sct"/>
                  <code value="422037009"/>
                  <display value="Provider medication administration instructions (procedure)"/>
               </coding>
            </category>
            <medicationCodeableConcept>
               <coding>
                  <system value="urn:oid:"/>
                  <code value=""/>
               </coding>
            </medicationCodeableConcept>
            <subject>
               <identifier>
                  <system value="http://fhir.nl/fhir/NamingSystem/bsn"/>
                  <value value="32456487"/>
               </identifier>
               <display value="Antje de Vries"/>
            </subject>
            <supportingInformation>
               <identifier>
                  <value value="medbeh_VMA_001_MA02"/>
               </identifier>
            </supportingInformation>
            <!-- Responsible dispensing pharmacy -->
            <performer>
               <actor>
                  <identifier>
                     <value value="13265456"/>
                  </identifier>
                  <display value="Apotheek Lutjebroek"/>
               </actor>
            </performer>
            <!--Toelichting-->
            <dosageInstruction>
               <sequence value="1"/>
               <text value="Gedurende 10 dagen, eerste dag 2 tabletten en vervolgens 1x daags 1 tablet"/>
               <timing>
                  <repeat>
                     <!--doseerduur-->
                     <boundsDuration>
                        <value value="1"/>
                        <unit value="dag"/>
                        <system value="http://unitsofmeasure.org"/>
                        <code value="d"/>
                     </boundsDuration>
                     <!--toedieningsduur-->
                     <frequency value="1"/>
                     <!--frequentie/tijdseenheid-->
                     <period value="1"/>
                     <periodUnit value="d"/>
                  </repeat>
               </timing>
               <route>
                  <coding>
                     <system value="urn:oid:2.16.840.1.113883.2.4.4.9"/>
                     <code value="9"/>
                     <display value="ORAAL"/>
                  </coding>
               </route>
               <doseQuantity>
                  <value value="2"/>
               </doseQuantity>
            </dosageInstruction>
            <dosageInstruction>
               <sequence value="2"/>
               <text value="Gedurende 10 dagen, eerste dag 2 tabletten en vervolgens 1x daags 1 tablet"/>
               <timing>
                  <repeat>
                     <!--doseerduur-->
                     <boundsDuration>
                        <value value="9"/>
                        <unit value="dag"/>
                        <system value="http://unitsofmeasure.org"/>
                        <code value="d"/>
                     </boundsDuration>
                     <!--toedieningsduur-->
                     <frequency value="1"/>
                     <!--frequentie/tijdseenheid-->
                     <period value="1"/>
                     <periodUnit value="h"/>
                  </repeat>
               </timing>
               <route>
                  <coding>
                     <system value="urn:oid:2.16.840.1.113883.2.4.4.9"/>
                     <code value="9"/>
                     <display value="ORAAL"/>
                  </coding>
               </route>
               <doseQuantity>
                  <value value="1"/>
               </doseQuantity>
            </dosageInstruction>
         </MedicationDispense>
      </resource>
   </entry>
   <entry>
      <fullUrl value="0123456702--2.16.528.1.1007.3.3.1234567.3"/>
      <resource>
         <MedicationDispense>
            <meta>
               <profile value="http://nictiz.nl/fhir/StructureDefinition/zib-Dispense"/>
            </meta>
            <contained>
               <Location>
                  <id value="d3e462"/>
                  <description value="bij de planten zetten graag"/>
               </Location>
            </contained>
            <extension url="http://nictiz.nl/fhir/StructureDefinition/zib-Dispense-DistributionForm">
               <valueCodeableConcept>
                  <extension url="http://hl7.org/fhir/StructureDefinition/iso21090-nullFlavor">
                     <valueCode value="NI"/>
                  </extension>
               </valueCodeableConcept>
            </extension>
            <extension url="http://nictiz.nl/fhir/StructureDefinition/zib-Dispense-RequestDate">
               <valueDateTime value="2005-01-28"/>
            </extension>
            <extension url="http://nictiz.nl/fhir/StructureDefinition/zib-Medication-AdditionalInformation">
               <valueCodeableConcept>
                  <coding>
                     <system value="urn:oid:2.16.840.1.113883.2.4.3.11.60.20.77.5.2.14.2052"/>
                     <code value="2"/>
                     <display value="Recall"/>
                  </coding>
               </valueCodeableConcept>
            </extension>
            <extension url="http://nictiz.nl/fhir/StructureDefinition/zib-Medication-MedicationTreatment">
               <valueIdentifier>
                  <value value="medbeh_VMA_001"/>
               </valueIdentifier>
            </extension>
            <identifier>
               <system value="urn:oid:2.16.528.1.1007.3.3.1234567.3"/>
               <value value="0123456702"/>
            </identifier>
            <category>
               <coding>
                  <system value="http://snomed.info/sct"/>
                  <code value="373784005"/>
                  <display value="Dispensing medication (procedure)"/>
               </coding>
            </category>
            <medicationCodeableConcept>
               <coding>
                  <system value="urn:oid:2.16.840.1.113883.2.4.4.8"/>
                  <code value="14565277"/>
                  <display value="ORS POEDER SACHET 5,4G SAN"/>
               </coding>
            </medicationCodeableConcept>
            <subject>
               <identifier>
                  <system value="http://fhir.nl/fhir/NamingSystem/bsn"/>
                  <value value="32456487"/>
               </identifier>
               <display value="Antje de Vries"/>
            </subject>
            <!-- Responsible dispensing pharmacy -->
            <performer>
               <actor>
                  <identifier>
                     <system value="http://fhir.nl/fhir/NamingSystem/ura"/>
                     <value value="01234567"/>
                  </identifier>
                  <display value="test naam MVE"/>
               </actor>
            </performer>
            <authorizingPrescription>
               <identifier>
                  <system value="urn:oid:1.2.3.999"/>
                  <value value="akld9828749"/>
               </identifier>
            </authorizingPrescription>
            <quantity>
               <value value="60"/>
               <unit value="Stuk"/>
               <system value="urn:oid:2.16.840.1.113883.2.4.4.1.900.2"/>
               <code value="245"/>
            </quantity>
            <daysSupply>
               <value value="20"/>
               <unit value="dag"/>
               <system value="http://unitsofmeasure.org"/>
               <code value="d"/>
            </daysSupply>
            <whenHandedOver value="2005-01-31"/>
            <destination>
               <reference value="#d3e462"/>
               <display value="bij de planten zetten graag"/>
            </destination>
            <note>
               <text value="toelichting bij verstrekking"/>
            </note>
         </MedicationDispense>
      </resource>
   </entry>
   <entry>
      <fullUrl value="POC_UC01_1_MBH01_GB01--1.2.3.4.5"/>
      <resource>
         <MedicationStatement>
            <meta>
               <profile value="http://nictiz.nl/fhir/StructureDefinition/zib-MedicationUse"/>
            </meta>
            <!--voorschrijver-->
            <contained>
               <Practitioner>
                  <id value="d3e562"/>
                  <!--zorgverlener_identificatie_nummer-->
                  <identifier>
                     <system value="http://fhir.nl/fhir/NamingSystem/uzi-nr-pers"/>
                     <value value="006797896"/>
                  </identifier>
                  <!--naamgegevens-->
                  <name>
                     <extension url="http://hl7.org/fhir/StructureDefinition/humanname-own-prefix">
                        <valueString value="van"/>
                     </extension>
                     <extension url="http://hl7.org/fhir/StructureDefinition/humanname-own-name">
                        <valueString value="Beek"/>
                     </extension>
                     <given value="J.">
                        <extension url="http://hl7.org/fhir/StructureDefinition/iso21090-EN-qualifier">
                           <valueCode value="IN"/>
                        </extension>
                     </given>
                  </name>
               </Practitioner>
            </contained>
            <!--voorschrijver / zorgaanbieder-->
            <contained>
               <Organization>
                  <id value="d3e585"/>
                  <identifier>
                     <system value="http://fhir.nl/fhir/NamingSystem/ura"/>
                     <value value="00765332"/>
                  </identifier>
                  <identifier>
                     <system value="http://fhir.nl/fhir/NamingSystem/agb-z"/>
                     <value value="01028432"/>
                  </identifier>
                  <name value="Huisartspraktijk Van Beek"/>
               </Organization>
            </contained>
            <contained>
               <Practitioner>
                  <id value="d3e605"/>
                  <!--zorgverlener_identificatie_nummer-->
                  <identifier>
                     <system value="http://fhir.nl/fhir/NamingSystem/uzi-nr-pers"/>
                     <value value="006797896"/>
                  </identifier>
                  <!--naamgegevens-->
                  <name>
                     <extension url="http://hl7.org/fhir/StructureDefinition/humanname-own-prefix">
                        <valueString value="van"/>
                     </extension>
                     <extension url="http://hl7.org/fhir/StructureDefinition/humanname-own-name">
                        <valueString value="Beek"/>
                     </extension>
                     <given value="J.">
                        <extension url="http://hl7.org/fhir/StructureDefinition/iso21090-EN-qualifier">
                           <valueCode value="IN"/>
                        </extension>
                     </given>
                  </name>
               </Practitioner>
            </contained>
            <extension url="http://nictiz.nl/fhir/StructureDefinition/zib-MedicationUse-AsAgreedIndicator">
               <valueBoolean value="true"/>
            </extension>
            <extension url="http://hl7.org/fhir/StructureDefinition/medicationstatement-Prescriber">
               <valueReference id="#d3e562">
                  <display value="J. van Beek"/>
               </valueReference>
            </extension>
            <extension url="http://hl7.org/fhir/StructureDefinition/medicationstatement-Onbehalfof">
               <valueReference id="#d3e585">
                  <display value="Huisartspraktijk Van Beek"/>
               </valueReference>
            </extension>
            <extension url="http://nictiz.nl/fhir/StructureDefinition/zib-MedicationUse-Author">
               <valueReference>
                  <identifier>
                     <system value="http://fhir.nl/fhir/NamingSystem/bsn"/>
                     <value value="32456487"/>
                  </identifier>
                  <display value="Antje de Vries"/>
               </valueReference>
            </extension>
            <extension url="http://nictiz.nl/fhir/StructureDefinition/zib-Medication-MedicationTreatment">
               <valueIdentifier>
                  <value value="medbeh_VMA_001"/>
               </valueIdentifier>
            </extension>
            <identifier>
               <system value="urn:oid:1.2.3.4.5"/>
               <value value="POC_UC01_1_MBH01_GB01"/>
            </identifier>
            <status value="active"/>
            <category>
               <coding>
                  <system value="urn:oid:2.16.840.1.113883.2.4.3.11.60.20.77.5.3"/>
                  <code value="6"/>
                  <display value="Medicatiegebruik"/>
               </coding>
            </category>
            <medicationCodeableConcept>
               <coding>
                  <system value="urn:oid:2.16.840.1.113883.2.4.4.8"/>
                  <code value="15724506"/>
                  <display value="AMLODIPINE ACCORD TABLET 10MG"/>
               </coding>
            </medicationCodeableConcept>
            <effectivePeriod>
               <extension url="http://nictiz.nl/fhir/StructureDefinition/zib-MedicationUse-Duration">
                  <valueDuration>
                     <value value="3"/>
                     <unit value="dag"/>
                     <system value="http://unitsofmeasure.org"/>
                     <code value="d"/>
                  </valueDuration>
               </extension>
               <start value="2017-03-06T08:00:00"/>
               <end value="2018-03-06T08:00:00"/>
            </effectivePeriod>
            <dateAsserted>
               <extension url="http://hl7.org/fhir/StructureDefinition/iso21090-nullFlavor">
                  <valueCode value="ASKU"/>
               </extension>
            </dateAsserted>
            <informationSource id="#d3e605">
               <display value="J. van Beek"/>
            </informationSource>
            <subject>
               <identifier>
                  <system value="http://fhir.nl/fhir/NamingSystem/bsn"/>
                  <value value="32456487"/>
               </identifier>
               <display value="Antje de Vries"/>
            </subject>
            <derivedFrom>
               <identifier>
                  <system value="urn:oid:1.2.3.4.5"/>
                  <value value="POC_UC01_1_MBH01_MA01"/>
               </identifier>
               <display value="relatie naar medicatieafspraak"/>
            </derivedFrom>
            <derivedFrom>
               <identifier>
                  <system value="urn:oid:1.2.3.999"/>
                  <value value="dad31469857"/>
               </identifier>
               <display value="relatie naar toedieningsafspraak"/>
            </derivedFrom>
            <derivedFrom>
               <identifier>
                  <system value="urn:oid:2.3.4.5.6"/>
                  <value value="POC_UC01_1_MBH01_VS01"/>
               </identifier>
               <display value="relatie naar verstrekking"/>
            </derivedFrom>
            <taken value="y"/>
            <reasonNotTaken>
               <coding>
                  <system value="http://snomed.info/sct"/>
                  <code value="438833006"/>
                  <display value="Contra-indicatie"/>
               </coding>
            </reasonNotTaken>
            <reasonCode>
               <text value="asddf"/>
            </reasonCode>
            <note>
               <text value="teolichting geypt"/>
            </note>
            <dosage>
               <text value="1x daags 1 tablet"/>
               <timing>
                  <repeat>
                     <!--doseerduur-->
                     <!--toedieningsduur-->
                     <frequency value="1"/>
                     <!--frequentie/tijdseenheid-->
                     <period value="1"/>
                     <periodUnit value="d"/>
                     <!--toedientijd-->
                     <timeOfDay value="08:00:00"/>
                  </repeat>
               </timing>
               <route>
                  <coding>
                     <system value="urn:oid:2.16.840.1.113883.2.4.4.9"/>
                     <code value="9"/>
                     <display value="Oraal"/>
                  </coding>
               </route>
               <doseQuantity>
                  <value value="1"/>
                  <unit value="Stuk"/>
                  <system value="urn:oid:2.16.840.1.113883.2.4.4.1.900.2"/>
                  <code value="245"/>
               </doseQuantity>
            </dosage>
         </MedicationStatement>
      </resource>
   </entry>
</Bundle>
