<?xml version="1.0" encoding="UTF-8"?>
<?xml-model href="http://hl7.org/fhir/STU3/bundle.sch" type="application/xml" schematypens="http://purl.oclc.org/dsdl/schematron"?>
<Bundle xmlns="http://hl7.org/fhir" xmlns:xsi="http://www.w3.org/2001/XMLSchema-instance" xsi:schemaLocation="http://hl7.org/fhir http://hl7.org/fhir/STU3/bundle.xsd">
	<id value="d4e1"/>
	<type value="searchset"/>
	<total value="8"/>
	<entry>
		<fullUrl value="urn:uuid:F0B4D976-A490-11E8-1821-09173F13E4C5"/>
		<resource>
			<Patient>
				<meta>
					<profile value="http://fhir.nl/fhir/StructureDefinition/nl-core-patient"/>
				</meta>
				<identifier>
					<system value="http://fhir.nl/fhir/NamingSystem/bsn"/>
					<value value="32456487"/>
				</identifier>
				<name>
					<extension url="http://hl7.org/fhir/StructureDefinition/humanname-assembly-order">
						<valueCode value="NL1"/>
					</extension>
					<family value="de Vries">
						<extension url="http://hl7.org/fhir/StructureDefinition/humanname-own-prefix">
							<valueString value="de"/>
						</extension>
						<extension url="http://hl7.org/fhir/StructureDefinition/humanname-own-name">
							<valueString value="Vries"/>
						</extension>
					</family>
					<given value="Antje">
						<extension url="http://hl7.org/fhir/StructureDefinition/iso21090-EN-qualifier">
							<valueCode value="BR"/>
						</extension>
					</given>
				</name>
				<gender value="female"/>
				<birthDate value="1974-05-03"/>
			</Patient>
		</resource>
	</entry>
	<entry>
		<fullUrl value="urn:uuid:F0B4D993-A490-11E8-1821-09173F13E4C5"/>
		<resource>
			<Medication>
				<meta>
					<profile value="http://nictiz.nl/fhir/StructureDefinition/zib-Product"/>
				</meta>
				<extension url="http://nictiz.nl/fhir/StructureDefinition/zib-Product-Description">
					<valueString value="Titel: Dalterparine ing. 0,5ml=500e Regel: minpl clas nacl 90mg/10ml Regel: Fragmin 5000/0,2ml wwsp"/>
				</extension>
				<code>
					<text value="Dalterparine ing. 0,5ml=500e"/>
				</code>
				<ingredient>
					<itemCodeableConcept>
						<coding>
							<system value="urn:oid:2.16.840.1.113883.2.4.4.7"/>
							<code value="634123"/>
							<display value="FRAGMIN   5000 INJVLST 25.000IE/ML WWSP 0,2ML"/>
						</coding>
					</itemCodeableConcept>
					<isActive value="true"/>
					<amount>
						<numerator>
							<value value="0.1"/>
							<unit value="stuk"/>
							<system value="urn:oid:2.16.840.1.113883.2.4.4.1.900.2"/>
							<code value="245"/>
						</numerator>
						<denominator>
							<value value="1"/>
							<unit value="stuk"/>
							<system value="urn:oid:2.16.840.1.113883.2.4.4.1.900.2"/>
							<code value="245"/>
						</denominator>
					</amount>
				</ingredient>
				<ingredient>
					<itemCodeableConcept>
						<coding>
							<system value="urn:oid:2.16.840.1.113883.2.4.4.8"/>
							<code value="15739074"/>
							<display value="OMNIFLUSH NACL 0,9% WWSP 10ML IN 10ML"/>
						</coding>
					</itemCodeableConcept>
					<isActive value="true"/>
					<amount>
						<numerator>
							<value value="0.05"/>
							<unit value="stuk"/>
							<system value="urn:oid:2.16.840.1.113883.2.4.4.1.900.2"/>
							<code value="245"/>
						</numerator>
						<denominator>
							<value value="1"/>
							<unit value="stuk"/>
							<system value="urn:oid:2.16.840.1.113883.2.4.4.1.900.2"/>
							<code value="245"/>
						</denominator>
					</amount>
				</ingredient>
			</Medication>
		</resource>
	</entry>
	<entry>
		<fullUrl value="urn:uuid:F0B4D995-A490-11E8-1821-09173F13E4C5"/>
		<resource>
			<Observation>
				<meta>
					<profile value="http://nictiz.nl/fhir/StructureDefinition/zib-BodyHeight"/>
				</meta>
				<status value="final"/>
				<category>
					<coding>
						<system value="http://hl7.org/fhir/observation-category"/>
						<code value="vital-signs"/>
					</coding>
				</category>
				<code>
					<coding>
						<system value="http://loinc.org"/>
						<code value="8302-2"/>
						<display value="lichaamslengte"/>
					</coding>
				</code>
				<subject>
					<reference value="urn:uuid:F0B4D976-A490-11E8-1821-09173F13E4C5"/>
					<display value="Antje de Vries"/>
				</subject>
				<valueQuantity>
					<value value="99"/>
					<unit value="cm"/>
					<code value="cm"/>
				</valueQuantity>
			</Observation>
		</resource>
	</entry>
	<entry>
		<fullUrl value="urn:uuid:F0B4D997-A490-11E8-1821-09173F13E4C5"/>
		<resource>
			<Observation>
				<meta>
					<profile value="http://nictiz.nl/fhir/StructureDefinition/zib-BodyWeight"/>
				</meta>
				<status value="final"/>
				<category>
					<coding>
						<system value="http://hl7.org/fhir/observation-category"/>
						<code value="vital-signs"/>
					</coding>
				</category>
				<code>
					<coding>
						<system value="http://loinc.org"/>
						<code value="29463-7"/>
						<display value="lichaamsgewicht"/>
					</coding>
				</code>
				<subject>
					<reference value="urn:uuid:F0B4D976-A490-11E8-1821-09173F13E4C5"/>
					<display value="Antje de Vries"/>
				</subject>
				<valueQuantity>
					<value value="23"/>
					<unit value="kg"/>
					<code value="kg"/>
				</valueQuantity>
			</Observation>
		</resource>
	</entry>
	<entry>
		<fullUrl value="urn:uuid:F0B4D999-A490-11E8-1821-09173F13E4C5"/>
		<resource>
			<Practitioner>
				<!--zorgverlener_identificatie_nummer-->
				<identifier>
					<system value="http://fhir.nl/fhir/NamingSystem/uzi-nr-pers"/>
					<value value="006797896"/>
				</identifier>
				<name>
					<family value="van Beek">
						<extension url="http://hl7.org/fhir/StructureDefinition/humanname-own-prefix">
							<valueString value="van"/>
						</extension>
						<extension url="http://hl7.org/fhir/StructureDefinition/humanname-own-name">
							<valueString value="Beek"/>
						</extension>
					</family>
					<given value="Johan">
						<extension url="http://hl7.org/fhir/StructureDefinition/iso21090-EN-qualifier">
							<valueCode value="BR"/>
						</extension>
					</given>
					<given value="J.">
						<extension url="http://hl7.org/fhir/StructureDefinition/iso21090-EN-qualifier">
							<valueCode value="IN"/>
						</extension>
					</given>
				</name>
			</Practitioner>
		</resource>
	</entry>
	<entry>
		<fullUrl value="urn:uuid:F0B4D99B-A490-11E8-1821-09173F13E4C5"/>
		<resource>
			<Organization>
				<identifier>
					<system value="http://fhir.nl/fhir/NamingSystem/ura"/>
					<value value="00765332"/>
				</identifier>
				<identifier>
					<system value="http://fhir.nl/fhir/NamingSystem/agb-z"/>
					<value value="01028432"/>
				</identifier>
				<name value="Huisartspraktijk Van Beek"/>
			</Organization>
		</resource>
	</entry>
	<entry>
		<fullUrl value="urn:uuid:F0B4D99D-A490-11E8-1821-09173F13E4C5"/>
		<resource>
			<PractitionerRole>
				<practitioner>
					<reference value="urn:uuid:F0B4D999-A490-11E8-1821-09173F13E4C5"/>
					<display value="Johan J. van Beek"/>
				</practitioner>
				<organization>
					<reference value="urn:uuid:F0B4D99B-A490-11E8-1821-09173F13E4C5"/>
					<display value="Huisartspraktijk Van Beek"/>
				</organization>
				<specialty>
					<coding>
						<system value="http://fhir.nl/fhir/NamingSystem/uzi-rolcode"/>
						<code value="01.015"/>
						<display value="Huisarts"/>
					</coding>
				</specialty>
			</PractitionerRole>
		</resource>
	</entry>
	<entry>
		<fullUrl value="urn:uuid:F0B4D9A0-A490-11E8-1821-09173F13E4C5"/>
		<resource>
			<MedicationRequest>
				<meta>
					<profile value="http://nictiz.nl/fhir/StructureDefinition/zib-MedicationAgreement"/>
				</meta>
				<extension url="http://nictiz.nl/fhir/StructureDefinition/zib-MedicationUse-Duration">
					<valueDuration>
						<value value="10"/>
						<unit value="dag"/>
						<system value="http://unitsofmeasure.org"/>
						<code value="d"/>
					</valueDuration>
				</extension>
				<extension url="http://nictiz.nl/fhir/StructureDefinition/zib-Medication-AdditionalInformation">
					<valueCodeableConcept>
						<coding>
							<system value="urn:oid:2.16.840.1.113883.2.4.3.11.999.77.999.1"/>
							<code value="34"/>
							<display value="aanvullende informatie in teskt"/>
						</coding>
					</valueCodeableConcept>
				</extension>
				<extension url="http://nictiz.nl/fhir/StructureDefinition/zib-Medication-MedicationTreatment">
					<valueIdentifier>
						<system value="urn:oid:2.16.840.1.113883.2.4.3.11.999.77.1.1"/>
						<value value="medbeh_VMA_001"/>
					</valueIdentifier>
				</extension>
				<extension url="http://nictiz.nl/fhir/StructureDefinition/zib-MedicationAgreement-BasedOnAgreementOrUse">
					<valueReference>
						<identifier>
							<system value="urn:oid:2.16.840.1.113883.2.4.3.11.999.77.16076005.1"/>
							<value value="MA#1"/>
						</identifier>
						<display value="relatie naar medicatieafspraak: MA#1 -- 2.16.840.1.113883.2.4.3.11.999.77.16076005.1"/>
					</valueReference>
				</extension>
				<extension url="http://nictiz.nl/fhir/StructureDefinition/zib-MedicationAgreement-BasedOnAgreementOrUse">
					<valueReference>
						<identifier>
							<system value="urn:oid:1.2.3.999"/>
							<value value="GB#1"/>
						</identifier>
						<display value="relatie naar medicatiegebruik: GB#1 -- 1.2.3.999"/>
					</valueReference>
				</extension>
				<identifier>
					<system value="urn:oid:2.16.840.1.113883.2.4.3.11.999.77.16076005.1"/>
					<value value="medbeh_VMA_001_MA02"/>
				</identifier>
				<intent value="order"/>
				<category>
					<coding>
						<system value="http://snomed.info/sct"/>
						<code value="16076005"/>
						<display value="Prescription (procedure)"/>
					</coding>
				</category>
				<!--geneesmiddel-->
				<medicationReference>
					<reference value="urn:uuid:F0B4D993-A490-11E8-1821-09173F13E4C5"/>
					<display value="Dalterparine ing. 0,5ml=500e"/>
				</medicationReference>
				<subject>
					<reference value="urn:uuid:F0B4D976-A490-11E8-1821-09173F13E4C5"/>
					<display value="Antje de Vries"/>
				</subject>
				<!--lichaamslengte-->
				<supportingInformation>
					<reference value="urn:uuid:F0B4D995-A490-11E8-1821-09173F13E4C5"/>
					<display value="Lengte. 99 cm. Datum/tijd gemeten: "/>
				</supportingInformation>
				<!--lichaamsgewicht-->
				<supportingInformation>
					<reference value="urn:uuid:F0B4D997-A490-11E8-1821-09173F13E4C5"/>
					<display value="Gewicht. 23 kg. Datum/tijd gemeten: "/>
				</supportingInformation>
				<!--afspraakdatum-->
				<authoredOn value="2016-09-02T14:30:23"/>
				<requester>
					<extension url="http://nictiz.nl/fhir/StructureDefinition/zib-MedicationAgreement-RequesterRole">
						<valueReference>
							<reference value="urn:uuid:F0B4D99D-A490-11E8-1821-09173F13E4C5"/>
							<display value="Johan J. van Beek Huisarts Huisartspraktijk Van Beek"/>
						</valueReference>
					</extension>
					<agent>
						<reference value="urn:uuid:F0B4D999-A490-11E8-1821-09173F13E4C5"/>
						<display value="Johan J. van Beek"/>
					</agent>
				</requester>
				<!--reden afspraak-->
				<reasonCode>
					<coding>
						<system value="http://snomed.info/sct"/>
						<code value="438833006"/>
						<display value="Contra-indicatie"/>
					</coding>
				</reasonCode>
				<!--toelichting-->
				<note>
					<text value="Patiënt gebruikt Verapamil, contra-indicatie voor het origineel voorgeschreven Klacid."/>
				</note>
				<dosageInstruction>
					<sequence value="1"/>
					<text value="Gedurende 10 dagen, eerste dag 2 tabletten en vervolgens 1x daags 1 tablet"/>
					<timing>
						<repeat>
							<!--doseerduur-->
							<boundsDuration>
								<value value="1"/>
								<unit value="dag"/>
								<system value="http://unitsofmeasure.org"/>
								<code value="d"/>
							</boundsDuration>
							<!--toedieningsduur-->
							<frequency value="1"/>
							<!--frequentie/tijdseenheid-->
							<period value="1"/>
							<periodUnit value="d"/>
						</repeat>
					</timing>
					<route>
						<coding>
							<system value="urn:oid:2.16.840.1.113883.2.4.4.9"/>
							<code value="9"/>
							<display value="oraal"/>
						</coding>
					</route>
					<doseQuantity>
						<value value="2"/>
						<unit value="stuk"/>
						<system value="urn:oid:2.16.840.1.113883.2.4.4.1.900.2"/>
						<code value="245"/>
					</doseQuantity>
				</dosageInstruction>
				<dosageInstruction>
					<sequence value="2"/>
					<text value="Gedurende 10 dagen, eerste dag 2 tabletten en vervolgens 1x daags 1 tablet"/>
					<timing>
						<repeat>
							<!--doseerduur-->
							<boundsDuration>
								<value value="9"/>
								<unit value="dag"/>
								<system value="http://unitsofmeasure.org"/>
								<code value="d"/>
							</boundsDuration>
							<!--toedieningsduur-->
							<frequency value="1"/>
							<!--frequentie/tijdseenheid-->
							<period value="1"/>
							<periodUnit value="d"/>
						</repeat>
					</timing>
					<route>
						<coding>
							<system value="urn:oid:2.16.840.1.113883.2.4.4.9"/>
							<code value="9"/>
							<display value="oraal"/>
						</coding>
					</route>
					<doseQuantity>
						<value value="1"/>
						<unit value="stuk"/>
						<system value="urn:oid:2.16.840.1.113883.2.4.4.1.900.2"/>
						<code value="245"/>
					</doseQuantity>
				</dosageInstruction>
			</MedicationRequest>
		</resource>
	</entry>
</Bundle>
