<?xml version="1.0" encoding="UTF-8"?>
<?xml-model href="http://hl7.org/fhir/STU3/bundle.sch" type="application/xml" schematypens="http://purl.oclc.org/dsdl/schematron"?>
<Bundle xmlns="http://hl7.org/fhir"
        xmlns:xsi="http://www.w3.org/2001/XMLSchema-instance"
        xsi:schemaLocation="http://hl7.org/fhir http://hl7.org/fhir/STU3/bundle.xsd"><!-- TODO Check Bundle elements -->
   <id value="d3e2"/>
   <type value="searchset"/>
   <total value="18"/>
   <entry>
      <fullUrl value="TAConverted_mag01--2.16.528.1.1007.3.3.1234567.3"/>
      <resource>
         <MedicationDispense xmlns:f="http://hl7.org/fhir"
                             xmlns:local="urn:fhir:stu3:functions"
                             xmlns:xd="http://www.oxygenxml.com/ns/doc/xsl"
                             xmlns:nf="http://www.nictiz.nl/functions"
                             xmlns:xs="http://www.w3.org/2001/XMLSchema">
            <meta>
               <profile value="http://nictiz.nl/fhir/StructureDefinition/zib-AdministrationAgreement"/>
            </meta>
            <contained>
               <Medication>
                  <id value="d3e68"/>
                  <meta>
                     <profile value="http://nictiz.nl/fhir/StructureDefinition/zib-Product"/>
                  </meta>
                  <extension url="http://nictiz.nl/fhir/StructureDefinition/zib-Product-Description">
                     <valueString value="Titel: Hydrocortison zetpil 100 mg Regel: Hydrocort micronisatum 100 mg Regel: Witepsol H15 past 1,99 gr"/>
                  </extension>
                  <code>
                     <text value="Hydrocortison zetpil 100 mg"/>
                  </code>
                  <ingredient>
                     <itemCodeableConcept>
                        <coding>
                           <system value="urn:oid:2.16.840.1.113883.2.4.4.7"/>
                           <code value="252247"/>
                           <display value="HYDROCORTISONUM MICRONISAT"/>
                        </coding>
                     </itemCodeableConcept>
                     <isActive value="true"/>
                     <amount>
                        <numerator>
                           <value value="10"/>
                           <unit value="milligram"/>
                           <system value="2.16.840.1.113883.2.4.4.1.900.2"/>
                           <code value="229"/>
                        </numerator>
                        <denominator>
                           <value value="1"/>
                           <unit value="stuk"/>
                           <system value="2.16.840.1.113883.2.4.4.1.900.2"/>
                           <code value="245"/>
                        </denominator>
                     </amount>
                  </ingredient>
                  <ingredient>
                     <itemCodeableConcept>
                        <coding>
                           <system value="urn:oid:2.16.840.1.113883.2.4.4.7"/>
                           <code value="265144"/>
                           <display value="WITEPSOL H15 PAST"/>
                        </coding>
                     </itemCodeableConcept>
                     <isActive value="true"/>
                     <amount>
                        <numerator>
                           <value value="1.99"/>
                           <unit value="gram"/>
                           <system value="2.16.840.1.113883.2.4.4.1.900.2"/>
                           <code value="215"/>
                        </numerator>
                        <denominator>
                           <value value="1"/>
                           <unit value="stuk"/>
                           <system value="2.16.840.1.113883.2.4.4.1.900.2"/>
                           <code value="245"/>
                        </denominator>
                     </amount>
                  </ingredient>
               </Medication>
            </contained>
            <extension url="http://nictiz.nl/fhir/StructureDefinition/zib-AdministrationAgreement-AuthoredOn">
               <valueDateTime value="2016-03-03"/>
            </extension>
            <extension url="http://nictiz.nl/fhir/StructureDefinition/zib-Medication-MedicationTreatment">
               <valueIdentifier>
                  <system value="urn:oid:2.16.528.1.1007.3.3.1234567.3"/>
                  <value value="MedBehConverted_mag01"/>
               </valueIdentifier>
            </extension>
            <identifier>
               <system value="urn:oid:2.16.528.1.1007.3.3.1234567.3"/>
               <value value="TAConverted_mag01"/>
            </identifier>
            <category>
               <coding>
                  <system value="http://snomed.info/sct"/>
                  <code value="422037009"/>
                  <display value="Provider medication administration instructions (procedure)"/>
               </coding>
            </category>
            <medicationReference>
               <reference value="#d3e68"/>
               <display value="Hydrocortison zetpil 100 mg"/>
            </medicationReference>
            <!-- Patient -->
            <!-- Possibly not to be included for MedMij related interactions, because patient should be known in infra-context -->
            <subject>
               <identifier>
                  <system value="http://fhir.nl/fhir/NamingSystem/bsn"/>
                  <value value="012345672"/>
               </identifier>
               <display value="J.J. le Noble van Son"/>
            </subject>
            <supportingInformation>
               <identifier>
                  <system value="urn:oid:'2.16.840.1.113883.5.1008'"/>
                  <value value="NI"/>
               </identifier>
            </supportingInformation>
            <!-- Responsible dispensing pharmacy -->
            <performer>
               <actor>
                  <identifier>
                     <system value="http://fhir.nl/fhir/NamingSystem/ura"/>
                     <value value="01234567"/>
                  </identifier>
               </actor>
            </performer>
            <!--Toelichting-->
         </MedicationDispense>
      </resource>
   </entry>
   <entry>
      <fullUrl value="TAConverted_mag02--2.16.528.1.1007.3.3.1234567.3"/>
      <resource>
         <MedicationDispense xmlns:f="http://hl7.org/fhir"
                             xmlns:local="urn:fhir:stu3:functions"
                             xmlns:xd="http://www.oxygenxml.com/ns/doc/xsl"
                             xmlns:nf="http://www.nictiz.nl/functions"
                             xmlns:xs="http://www.w3.org/2001/XMLSchema">
            <meta>
               <profile value="http://nictiz.nl/fhir/StructureDefinition/zib-AdministrationAgreement"/>
            </meta>
            <contained>
               <Medication>
                  <id value="d3e260"/>
                  <meta>
                     <profile value="http://nictiz.nl/fhir/StructureDefinition/zib-Product"/>
                  </meta>
                  <extension url="http://nictiz.nl/fhir/StructureDefinition/zib-Product-Description">
                     <valueString value="Titel: Ketoconazol crème met 20% vaseline en 0,1% triam acet Regel: Vaselinum album 120 gr Regel: Triamcinolon acet c am or trit 1=10 6 gr Regel: Ketoconazol crème 20mg/g 474 gr"/>
                  </extension>
                  <code>
                     <text value="Ketoconazol crème met 20% vaseline en 0,1% triam acet"/>
                  </code>
                  <ingredient>
                     <itemCodeableConcept>
                        <coding>
                           <system value="urn:oid:2.16.840.1.113883.2.4.4.7"/>
                           <code value="264105"/>
                           <display value="TRIAMCINOLONI ACETONIDUM C AM OR TRIT 1=10 MICRON"/>
                        </coding>
                     </itemCodeableConcept>
                     <isActive value="true"/>
                     <amount>
                        <numerator>
                           <value value="6"/>
                           <unit value="gram"/>
                           <system value="2.16.840.1.113883.2.4.4.1.900.2"/>
                           <code value="215"/>
                        </numerator>
                        <denominator>
                           <value value="600"/>
                           <unit value="gram"/>
                           <system value="2.16.840.1.113883.2.4.4.1.900.2"/>
                           <code value="215"/>
                        </denominator>
                     </amount>
                  </ingredient>
                  <ingredient>
                     <itemCodeableConcept>
                        <coding>
                           <system value="urn:oid:2.16.840.1.113883.2.4.4.7"/>
                           <code value="1131508"/>
                           <display value="KETOCONAZOL JC CREME 20MG/G"/>
                        </coding>
                     </itemCodeableConcept>
                     <isActive value="true"/>
                     <amount>
                        <numerator>
                           <value value="474"/>
                           <unit value="gram"/>
                           <system value="2.16.840.1.113883.2.4.4.1.900.2"/>
                           <code value="215"/>
                        </numerator>
                        <denominator>
                           <value value="600"/>
                           <unit value="gram"/>
                           <system value="2.16.840.1.113883.2.4.4.1.900.2"/>
                           <code value="215"/>
                        </denominator>
                     </amount>
                  </ingredient>
                  <ingredient>
                     <itemCodeableConcept>
                        <coding>
                           <system value="urn:oid:2.16.840.1.113883.2.4.4.7"/>
                           <code value="265012"/>
                           <display value="VASELINUM ALBUM"/>
                        </coding>
                     </itemCodeableConcept>
                     <isActive value="true"/>
                     <amount>
                        <numerator>
                           <value value="120"/>
                           <unit value="gram"/>
                           <system value="2.16.840.1.113883.2.4.4.1.900.2"/>
                           <code value="215"/>
                        </numerator>
                        <denominator>
                           <value value="600"/>
                           <unit value="gram"/>
                           <system value="2.16.840.1.113883.2.4.4.1.900.2"/>
                           <code value="215"/>
                        </denominator>
                     </amount>
                  </ingredient>
               </Medication>
            </contained>
            <extension url="http://nictiz.nl/fhir/StructureDefinition/zib-AdministrationAgreement-AuthoredOn">
               <valueDateTime value="2016-03-03"/>
            </extension>
            <extension url="http://nictiz.nl/fhir/StructureDefinition/zib-Medication-MedicationTreatment">
               <valueIdentifier>
                  <system value="urn:oid:2.16.528.1.1007.3.3.1234567.3"/>
                  <value value="MedBehConverted_mag02"/>
               </valueIdentifier>
            </extension>
            <identifier>
               <system value="urn:oid:2.16.528.1.1007.3.3.1234567.3"/>
               <value value="TAConverted_mag02"/>
            </identifier>
            <category>
               <coding>
                  <system value="http://snomed.info/sct"/>
                  <code value="422037009"/>
                  <display value="Provider medication administration instructions (procedure)"/>
               </coding>
            </category>
            <medicationReference>
               <reference value="#d3e260"/>
               <display value="Ketoconazol crème met 20% vaseline en 0,1% triam acet"/>
            </medicationReference>
            <!-- Patient -->
            <!-- Possibly not to be included for MedMij related interactions, because patient should be known in infra-context -->
            <subject>
               <identifier>
                  <system value="http://fhir.nl/fhir/NamingSystem/bsn"/>
                  <value value="012345672"/>
               </identifier>
               <display value="J.J. le Noble van Son"/>
            </subject>
            <supportingInformation>
               <identifier>
                  <system value="urn:oid:'2.16.840.1.113883.5.1008'"/>
                  <value value="NI"/>
               </identifier>
            </supportingInformation>
            <!-- Responsible dispensing pharmacy -->
            <performer>
               <actor>
                  <identifier>
                     <system value="http://fhir.nl/fhir/NamingSystem/ura"/>
                     <value value="01234567"/>
                  </identifier>
               </actor>
            </performer>
            <!--Toelichting-->
         </MedicationDispense>
      </resource>
   </entry>
   <entry>
      <fullUrl value="TAConverted_mag03--2.16.528.1.1007.3.3.1234567.3"/>
      <resource>
         <MedicationDispense xmlns:f="http://hl7.org/fhir"
                             xmlns:local="urn:fhir:stu3:functions"
                             xmlns:xd="http://www.oxygenxml.com/ns/doc/xsl"
                             xmlns:nf="http://www.nictiz.nl/functions"
                             xmlns:xs="http://www.w3.org/2001/XMLSchema">
            <meta>
               <profile value="http://nictiz.nl/fhir/StructureDefinition/zib-AdministrationAgreement"/>
            </meta>
            <contained>
               <Medication>
                  <id value="d3e496"/>
                  <meta>
                     <profile value="http://nictiz.nl/fhir/StructureDefinition/zib-Product"/>
                  </meta>
                  <extension url="http://nictiz.nl/fhir/StructureDefinition/zib-Product-Description">
                     <valueString value="Titel: Nafazoline oogdruppels 0,025% ex FNA Regel: Naphazolini nitras 25 mg Regel: Boorzuur-benzalk opl FNA ad 100 ml"/>
                  </extension>
                  <code>
                     <text value="Nafazoline oogdruppels 0,025% ex FNA"/>
                  </code>
                  <ingredient>
                     <itemCodeableConcept>
                        <coding>
                           <system value="urn:oid:2.16.840.1.113883.2.4.4.7"/>
                           <code value="256234"/>
                           <display value="NAPHAZOLINI HYDROCHLORIDUM"/>
                        </coding>
                     </itemCodeableConcept>
                     <isActive value="true"/>
                     <amount>
                        <numerator>
                           <value value="25"/>
                           <unit value="milligram"/>
                           <system value="2.16.840.1.113883.2.4.4.1.900.2"/>
                           <code value="229"/>
                        </numerator>
                        <denominator>
                           <value value="100"/>
                           <unit value="milliliter"/>
                           <system value="2.16.840.1.113883.2.4.4.1.900.2"/>
                           <code value="233"/>
                        </denominator>
                     </amount>
                  </ingredient>
                  <ingredient>
                     <itemCodeableConcept>
                        <coding>
                           <system value="urn:oid:2.16.840.1.113883.2.4.4.7"/>
                           <code value="261173"/>
                           <display value="BOORZUUR-BENZALKONIUMOPLOSSING FNA MR"/>
                        </coding>
                     </itemCodeableConcept>
                     <isActive value="true"/>
                     <amount>
                        <numerator>
                           <extension url="http://hl7.org/fhir/StructureDefinition/iso21090-nullFlavor">
                              <valueCode value="QS"/>
                           </extension>
                        </numerator>
                        <denominator>
                           <value value="100"/>
                           <unit value="milliliter"/>
                           <system value="2.16.840.1.113883.2.4.4.1.900.2"/>
                           <code value="233"/>
                        </denominator>
                     </amount>
                  </ingredient>
               </Medication>
            </contained>
            <extension url="http://nictiz.nl/fhir/StructureDefinition/zib-AdministrationAgreement-AuthoredOn">
               <valueDateTime value="2016-03-03"/>
            </extension>
            <extension url="http://nictiz.nl/fhir/StructureDefinition/zib-Medication-MedicationTreatment">
               <valueIdentifier>
                  <system value="urn:oid:2.16.528.1.1007.3.3.1234567.3"/>
                  <value value="MedBehConverted_mag03"/>
               </valueIdentifier>
            </extension>
            <identifier>
               <system value="urn:oid:2.16.528.1.1007.3.3.1234567.3"/>
               <value value="TAConverted_mag03"/>
            </identifier>
            <category>
               <coding>
                  <system value="http://snomed.info/sct"/>
                  <code value="422037009"/>
                  <display value="Provider medication administration instructions (procedure)"/>
               </coding>
            </category>
            <medicationReference>
               <reference value="#d3e496"/>
               <display value="Nafazoline oogdruppels 0,025% ex FNA"/>
            </medicationReference>
            <!-- Patient -->
            <!-- Possibly not to be included for MedMij related interactions, because patient should be known in infra-context -->
            <subject>
               <identifier>
                  <system value="http://fhir.nl/fhir/NamingSystem/bsn"/>
                  <value value="012345672"/>
               </identifier>
               <display value="J.J. le Noble van Son"/>
            </subject>
            <supportingInformation>
               <identifier>
                  <system value="urn:oid:'2.16.840.1.113883.5.1008'"/>
                  <value value="NI"/>
               </identifier>
            </supportingInformation>
            <!-- Responsible dispensing pharmacy -->
            <performer>
               <actor>
                  <identifier>
                     <system value="http://fhir.nl/fhir/NamingSystem/ura"/>
                     <value value="01234567"/>
                  </identifier>
               </actor>
            </performer>
            <!--Toelichting-->
         </MedicationDispense>
      </resource>
   </entry>
   <entry>
      <fullUrl value="TAConverted_mag04--2.16.528.1.1007.3.3.1234567.3"/>
      <resource>
         <MedicationDispense xmlns:f="http://hl7.org/fhir"
                             xmlns:local="urn:fhir:stu3:functions"
                             xmlns:xd="http://www.oxygenxml.com/ns/doc/xsl"
                             xmlns:nf="http://www.nictiz.nl/functions"
                             xmlns:xs="http://www.w3.org/2001/XMLSchema">
            <meta>
               <profile value="http://nictiz.nl/fhir/StructureDefinition/zib-AdministrationAgreement"/>
            </meta>
            <contained>
               <Medication>
                  <id value="d3e688"/>
                  <meta>
                     <profile value="http://nictiz.nl/fhir/StructureDefinition/zib-Product"/>
                  </meta>
                  <extension url="http://nictiz.nl/fhir/StructureDefinition/zib-Product-Description">
                     <valueString value="Titel: Abilify caps 2,5 mg Regel: Abilify 10 mg tabl 22,5 st Regel: Cell Micr PH102 ad 33 ml Regel: Caps capsicards nr 2 helder 90 st"/>
                  </extension>
                  <code>
                     <text value="Abilify caps 2,5 mg"/>
                  </code>
                  <ingredient>
                     <itemCodeableConcept>
                        <coding>
                           <system value="urn:oid:2.16.840.1.113883.2.4.4.7"/>
                           <code value="1647091"/>
                           <display value="ABILIFY TABLET 10MG"/>
                        </coding>
                     </itemCodeableConcept>
                     <isActive value="true"/>
                     <amount>
                        <numerator>
                           <value value="22.5"/>
                           <unit value="stuk"/>
                           <system value="2.16.840.1.113883.2.4.4.1.900.2"/>
                           <code value="245"/>
                        </numerator>
                        <denominator>
                           <value value="90"/>
                           <unit value="stuk"/>
                           <system value="2.16.840.1.113883.2.4.4.1.900.2"/>
                           <code value="245"/>
                        </denominator>
                     </amount>
                  </ingredient>
                  <ingredient>
                     <itemCodeableConcept>
                        <coding>
                           <system value="urn:oid:2.16.840.1.113883.2.4.4.7"/>
                           <code value="248584"/>
                           <display value="CELLULOSUM MICROCRYST PH102"/>
                        </coding>
                     </itemCodeableConcept>
                     <isActive value="true"/>
                     <amount>
                        <numerator>
                           <extension url="http://hl7.org/fhir/StructureDefinition/iso21090-nullFlavor">
                              <valueCode value="QS"/>
                           </extension>
                        </numerator>
                        <denominator>
                           <value value="100"/>
                           <unit value="milliliter"/>
                           <system value="2.16.840.1.113883.2.4.4.1.900.2"/>
                           <code value="233"/>
                        </denominator>
                     </amount>
                  </ingredient>
                  <ingredient>
                     <itemCodeableConcept>
                        <coding>
                           <system value="urn:oid:2.16.840.1.113883.2.4.4.7"/>
                           <code value="883646"/>
                           <display value="CAPSULES CAPSICARDS NR  2 HELDER"/>
                        </coding>
                     </itemCodeableConcept>
                     <isActive value="true"/>
                     <amount>
                        <numerator>
                           <value value="90"/>
                           <unit value="stuk"/>
                           <system value="2.16.840.1.113883.2.4.4.1.900.2"/>
                           <code value="245"/>
                        </numerator>
                        <denominator>
                           <value value="90"/>
                           <unit value="stuk"/>
                           <system value="2.16.840.1.113883.2.4.4.1.900.2"/>
                           <code value="245"/>
                        </denominator>
                     </amount>
                  </ingredient>
               </Medication>
            </contained>
            <extension url="http://nictiz.nl/fhir/StructureDefinition/zib-AdministrationAgreement-AuthoredOn">
               <valueDateTime value="2016-03-03"/>
            </extension>
            <extension url="http://nictiz.nl/fhir/StructureDefinition/zib-Medication-MedicationTreatment">
               <valueIdentifier>
                  <system value="urn:oid:2.16.528.1.1007.3.3.1234567.3"/>
                  <value value="MedBehConverted_mag04"/>
               </valueIdentifier>
            </extension>
            <identifier>
               <system value="urn:oid:2.16.528.1.1007.3.3.1234567.3"/>
               <value value="TAConverted_mag04"/>
            </identifier>
            <category>
               <coding>
                  <system value="http://snomed.info/sct"/>
                  <code value="422037009"/>
                  <display value="Provider medication administration instructions (procedure)"/>
               </coding>
            </category>
            <medicationReference>
               <reference value="#d3e688"/>
               <display value="Abilify caps 2,5 mg"/>
            </medicationReference>
            <!-- Patient -->
            <!-- Possibly not to be included for MedMij related interactions, because patient should be known in infra-context -->
            <subject>
               <identifier>
                  <system value="http://fhir.nl/fhir/NamingSystem/bsn"/>
                  <value value="012345672"/>
               </identifier>
               <display value="J.J. le Noble van Son"/>
            </subject>
            <supportingInformation>
               <identifier>
                  <system value="urn:oid:'2.16.840.1.113883.5.1008'"/>
                  <value value="NI"/>
               </identifier>
            </supportingInformation>
            <!-- Responsible dispensing pharmacy -->
            <performer>
               <actor>
                  <identifier>
                     <system value="http://fhir.nl/fhir/NamingSystem/ura"/>
                     <value value="01234567"/>
                  </identifier>
               </actor>
            </performer>
            <!--Toelichting-->
         </MedicationDispense>
      </resource>
   </entry>
   <entry>
      <fullUrl value="TAConverted_mag06--2.16.528.1.1007.3.3.1234567.3"/>
      <resource>
         <MedicationDispense xmlns:f="http://hl7.org/fhir"
                             xmlns:local="urn:fhir:stu3:functions"
                             xmlns:xd="http://www.oxygenxml.com/ns/doc/xsl"
                             xmlns:nf="http://www.nictiz.nl/functions"
                             xmlns:xs="http://www.w3.org/2001/XMLSchema">
            <meta>
               <profile value="http://nictiz.nl/fhir/StructureDefinition/zib-AdministrationAgreement"/>
            </meta>
            <contained>
               <Medication>
                  <id value="d3e925"/>
                  <meta>
                     <profile value="http://nictiz.nl/fhir/StructureDefinition/zib-Product"/>
                  </meta>
                  <extension url="http://nictiz.nl/fhir/StructureDefinition/zib-Product-Description">
                     <valueString value="Titel: Haparine 100 ie= 10 ml Regel: Minpl cla water c ing 10ml Regel: Heparini natricum Regel: natrri chloridum"/>
                  </extension>
                  <code>
                     <text value="Haparine 100 ie= 10 ml"/>
                  </code>
                  <ingredient>
                     <itemCodeableConcept>
                        <coding>
                           <system value="urn:oid:2.16.840.1.113883.2.4.4.7"/>
                           <code value="898724"/>
                           <display value="HEPARINUM NATRICUM"/>
                        </coding>
                     </itemCodeableConcept>
                     <isActive value="true"/>
                     <amount>
                        <numerator>
                           <value value="100"/>
                           <unit value="internationale eenheid"/>
                           <system value="2.16.840.1.113883.2.4.4.1.900.2"/>
                           <code value="217"/>
                        </numerator>
                        <denominator>
                           <value value="10"/>
                           <unit value="milliliter"/>
                           <system value="2.16.840.1.113883.2.4.4.1.900.2"/>
                           <code value="233"/>
                        </denominator>
                     </amount>
                  </ingredient>
                  <ingredient>
                     <itemCodeableConcept>
                        <coding>
                           <system value="urn:oid:2.16.840.1.113883.2.4.4.7"/>
                           <code value="2257610"/>
                           <display value="WATER VOOR INJECTIE CF FLACON 10ML"/>
                        </coding>
                     </itemCodeableConcept>
                     <isActive value="true"/>
                     <amount>
                        <numerator>
                           <value value="1"/>
                           <unit value="stuk"/>
                           <system value="2.16.840.1.113883.2.4.4.1.900.2"/>
                           <code value="245"/>
                        </numerator>
                        <denominator>
                           <value value="10"/>
                           <unit value="milliliter"/>
                           <system value="2.16.840.1.113883.2.4.4.1.900.2"/>
                           <code value="233"/>
                        </denominator>
                     </amount>
                  </ingredient>
                  <ingredient>
                     <itemCodeableConcept>
                        <coding>
                           <system value="urn:oid:2.16.840.1.113883.2.4.4.7"/>
                           <code value="256390"/>
                           <display value="NATRII CHLORIDUM"/>
                        </coding>
                     </itemCodeableConcept>
                     <isActive value="true"/>
                     <amount>
                        <numerator>
                           <value value="0.09"/>
                           <unit value="gram"/>
                           <system value="2.16.840.1.113883.2.4.4.1.900.2"/>
                           <code value="215"/>
                        </numerator>
                        <denominator>
                           <value value="10"/>
                           <unit value="milliliter"/>
                           <system value="2.16.840.1.113883.2.4.4.1.900.2"/>
                           <code value="233"/>
                        </denominator>
                     </amount>
                  </ingredient>
               </Medication>
            </contained>
            <extension url="http://nictiz.nl/fhir/StructureDefinition/zib-AdministrationAgreement-AuthoredOn">
               <valueDateTime value="2016-03-03"/>
            </extension>
            <extension url="http://nictiz.nl/fhir/StructureDefinition/zib-Medication-MedicationTreatment">
               <valueIdentifier>
                  <system value="urn:oid:2.16.528.1.1007.3.3.1234567.3"/>
                  <value value="MedBehConverted_mag06"/>
               </valueIdentifier>
            </extension>
            <identifier>
               <system value="urn:oid:2.16.528.1.1007.3.3.1234567.3"/>
               <value value="TAConverted_mag06"/>
            </identifier>
            <category>
               <coding>
                  <system value="http://snomed.info/sct"/>
                  <code value="422037009"/>
                  <display value="Provider medication administration instructions (procedure)"/>
               </coding>
            </category>
            <medicationReference>
               <reference value="#d3e925"/>
               <display value="Haparine 100 ie= 10 ml"/>
            </medicationReference>
            <!-- Patient -->
            <!-- Possibly not to be included for MedMij related interactions, because patient should be known in infra-context -->
            <subject>
               <identifier>
                  <system value="http://fhir.nl/fhir/NamingSystem/bsn"/>
                  <value value="012345672"/>
               </identifier>
               <display value="J.J. le Noble van Son"/>
            </subject>
            <supportingInformation>
               <identifier>
                  <system value="urn:oid:'2.16.840.1.113883.5.1008'"/>
                  <value value="NI"/>
               </identifier>
            </supportingInformation>
            <!-- Responsible dispensing pharmacy -->
            <performer>
               <actor>
                  <identifier>
                     <system value="http://fhir.nl/fhir/NamingSystem/ura"/>
                     <value value="01234567"/>
                  </identifier>
               </actor>
            </performer>
            <!--Toelichting-->
         </MedicationDispense>
      </resource>
   </entry>
   <entry>
      <fullUrl value="TAConverted_mag07--2.16.528.1.1007.3.3.1234567.3"/>
      <resource>
         <MedicationDispense xmlns:f="http://hl7.org/fhir"
                             xmlns:local="urn:fhir:stu3:functions"
                             xmlns:xd="http://www.oxygenxml.com/ns/doc/xsl"
                             xmlns:nf="http://www.nictiz.nl/functions"
                             xmlns:xs="http://www.w3.org/2001/XMLSchema">
            <meta>
               <profile value="http://nictiz.nl/fhir/StructureDefinition/zib-AdministrationAgreement"/>
            </meta>
            <contained>
               <Medication>
                  <id value="d3e1161"/>
                  <meta>
                     <profile value="http://nictiz.nl/fhir/StructureDefinition/zib-Product"/>
                  </meta>
                  <extension url="http://nictiz.nl/fhir/StructureDefinition/zib-Product-Description">
                     <valueString value="Titel: Easyspump penicilline g 18me Regel: Water v inject ampul 5ml Regel: injpdr penincil.g na 1milj e Regel: Infnacl 0,9% fl 100ml Regel: Easypump lt 125-24 5ml/uur"/>
                  </extension>
                  <code>
                     <text value="Easyspump penicilline g 18me"/>
                  </code>
                  <ingredient>
                     <itemCodeableConcept>
                        <coding>
                           <system value="urn:oid:2.16.840.1.113883.2.4.4.7"/>
                           <code value="2558092"/>
                           <display value="PENICILLIN G-NA SANDOZ INJPDR FLACON  1 MEGA IE"/>
                        </coding>
                     </itemCodeableConcept>
                     <isActive value="true"/>
                     <amount>
                        <numerator>
                           <value value="18"/>
                           <unit value="stuk"/>
                           <system value="2.16.840.1.113883.2.4.4.1.900.2"/>
                           <code value="245"/>
                        </numerator>
                        <denominator>
                           <value value="1"/>
                           <unit value="stuk"/>
                           <system value="2.16.840.1.113883.2.4.4.1.900.2"/>
                           <code value="245"/>
                        </denominator>
                     </amount>
                  </ingredient>
                  <ingredient>
                     <itemCodeableConcept>
                        <coding>
                           <system value="urn:oid:2.16.840.1.113883.2.4.4.7"/>
                           <code value="2257602"/>
                           <display value="WATER VOOR INJECTIE CF FLACON  5ML"/>
                        </coding>
                     </itemCodeableConcept>
                     <isActive value="true"/>
                     <amount>
                        <numerator>
                           <value value="5"/>
                           <unit value="stuk"/>
                           <system value="2.16.840.1.113883.2.4.4.1.900.2"/>
                           <code value="245"/>
                        </numerator>
                        <denominator>
                           <value value="1"/>
                           <unit value="stuk"/>
                           <system value="2.16.840.1.113883.2.4.4.1.900.2"/>
                           <code value="245"/>
                        </denominator>
                     </amount>
                  </ingredient>
                  <ingredient>
                     <itemCodeableConcept>
                        <coding>
                           <system value="urn:oid:2.16.840.1.113883.2.4.4.7"/>
                           <code value="598968"/>
                           <display value="INFVLST NACL 9MG/ML ZAK  100ML"/>
                        </coding>
                     </itemCodeableConcept>
                     <isActive value="true"/>
                     <amount>
                        <numerator>
                           <value value="1"/>
                           <unit value="stuk"/>
                           <system value="2.16.840.1.113883.2.4.4.1.900.2"/>
                           <code value="245"/>
                        </numerator>
                        <denominator>
                           <value value="1"/>
                           <unit value="stuk"/>
                           <system value="2.16.840.1.113883.2.4.4.1.900.2"/>
                           <code value="245"/>
                        </denominator>
                     </amount>
                  </ingredient>
                  <ingredient>
                     <itemCodeableConcept>
                        <coding>
                           <system value="urn:oid:2.16.840.1.113883.2.4.4.8"/>
                           <code value="15760839"/>
                           <display value="EASYPUMP II LT 125- 25 S 5ML/UUR 125ML"/>
                        </coding>
                     </itemCodeableConcept>
                     <isActive value="true"/>
                     <amount>
                        <numerator>
                           <value value="1"/>
                           <unit value="stuk"/>
                           <system value="2.16.840.1.113883.2.4.4.1.900.2"/>
                           <code value="245"/>
                        </numerator>
                        <denominator>
                           <value value="1"/>
                           <unit value="stuk"/>
                           <system value="2.16.840.1.113883.2.4.4.1.900.2"/>
                           <code value="245"/>
                        </denominator>
                     </amount>
                  </ingredient>
               </Medication>
            </contained>
            <extension url="http://nictiz.nl/fhir/StructureDefinition/zib-AdministrationAgreement-AuthoredOn">
               <valueDateTime value="2016-03-03"/>
            </extension>
            <extension url="http://nictiz.nl/fhir/StructureDefinition/zib-Medication-MedicationTreatment">
               <valueIdentifier>
                  <system value="urn:oid:2.16.528.1.1007.3.3.1234567.3"/>
                  <value value="MedBehConverted_mag07"/>
               </valueIdentifier>
            </extension>
            <identifier>
               <system value="urn:oid:2.16.528.1.1007.3.3.1234567.3"/>
               <value value="TAConverted_mag07"/>
            </identifier>
            <category>
               <coding>
                  <system value="http://snomed.info/sct"/>
                  <code value="422037009"/>
                  <display value="Provider medication administration instructions (procedure)"/>
               </coding>
            </category>
            <medicationReference>
               <reference value="#d3e1161"/>
               <display value="Easyspump penicilline g 18me"/>
            </medicationReference>
            <!-- Patient -->
            <!-- Possibly not to be included for MedMij related interactions, because patient should be known in infra-context -->
            <subject>
               <identifier>
                  <system value="http://fhir.nl/fhir/NamingSystem/bsn"/>
                  <value value="012345672"/>
               </identifier>
               <display value="J.J. le Noble van Son"/>
            </subject>
            <supportingInformation>
               <identifier>
                  <system value="urn:oid:'2.16.840.1.113883.5.1008'"/>
                  <value value="NI"/>
               </identifier>
            </supportingInformation>
            <!-- Responsible dispensing pharmacy -->
            <performer>
               <actor>
                  <identifier>
                     <system value="http://fhir.nl/fhir/NamingSystem/ura"/>
                     <value value="01234567"/>
                  </identifier>
               </actor>
            </performer>
            <!--Toelichting-->
         </MedicationDispense>
      </resource>
   </entry>
   <entry>
      <fullUrl value="TAConverted_mag08--2.16.528.1.1007.3.3.1234567.3"/>
      <resource>
         <MedicationDispense xmlns:f="http://hl7.org/fhir"
                             xmlns:local="urn:fhir:stu3:functions"
                             xmlns:xd="http://www.oxygenxml.com/ns/doc/xsl"
                             xmlns:nf="http://www.nictiz.nl/functions"
                             xmlns:xs="http://www.w3.org/2001/XMLSchema">
            <meta>
               <profile value="http://nictiz.nl/fhir/StructureDefinition/zib-AdministrationAgreement"/>
            </meta>
            <contained>
               <Medication>
                  <id value="d3e1443"/>
                  <meta>
                     <profile value="http://nictiz.nl/fhir/StructureDefinition/zib-Product"/>
                  </meta>
                  <extension url="http://nictiz.nl/fhir/StructureDefinition/zib-Product-Description">
                     <valueString value="Titel: Furosemide 125mg/50ml pump Regel: infnacl 0,9% fl 50ml Regel: Easypump lt 60-24 2ml/uur Regel: Furosemidum"/>
                  </extension>
                  <code>
                     <text value="Furosemide 125mg/50ml pump"/>
                  </code>
                  <ingredient>
                     <itemCodeableConcept>
                        <coding>
                           <system value="urn:oid:2.16.840.1.113883.2.4.4.7"/>
                           <code value="497142"/>
                           <display value="FUROSEMIDUM"/>
                        </coding>
                     </itemCodeableConcept>
                     <isActive value="true"/>
                     <amount>
                        <numerator>
                           <value value="0.13"/>
                           <unit value="gram"/>
                           <system value="2.16.840.1.113883.2.4.4.1.900.2"/>
                           <code value="215"/>
                        </numerator>
                        <denominator>
                           <value value="1"/>
                           <unit value="stuk"/>
                           <system value="2.16.840.1.113883.2.4.4.1.900.2"/>
                           <code value="245"/>
                        </denominator>
                     </amount>
                  </ingredient>
                  <ingredient>
                     <itemCodeableConcept>
                        <coding>
                           <system value="urn:oid:2.16.840.1.113883.2.4.4.7"/>
                           <code value="598968"/>
                           <display value="INFVLST NACL 9MG/ML ZAK  100ML"/>
                        </coding>
                     </itemCodeableConcept>
                     <isActive value="true"/>
                     <amount>
                        <numerator>
                           <value value="1"/>
                           <unit value="stuk"/>
                           <system value="2.16.840.1.113883.2.4.4.1.900.2"/>
                           <code value="245"/>
                        </numerator>
                        <denominator>
                           <value value="1"/>
                           <unit value="stuk"/>
                           <system value="2.16.840.1.113883.2.4.4.1.900.2"/>
                           <code value="245"/>
                        </denominator>
                     </amount>
                  </ingredient>
                  <ingredient>
                     <itemCodeableConcept>
                        <coding>
                           <system value="urn:oid:2.16.840.1.113883.2.4.4.8"/>
                           <code value="15760855"/>
                           <display value="EASYPUMP II LT  60- 30 S 2ML/UUR 60ML"/>
                        </coding>
                     </itemCodeableConcept>
                     <isActive value="true"/>
                     <amount>
                        <numerator>
                           <value value="1"/>
                           <unit value="stuk"/>
                           <system value="2.16.840.1.113883.2.4.4.1.900.2"/>
                           <code value="245"/>
                        </numerator>
                        <denominator>
                           <value value="1"/>
                           <unit value="stuk"/>
                           <system value="2.16.840.1.113883.2.4.4.1.900.2"/>
                           <code value="245"/>
                        </denominator>
                     </amount>
                  </ingredient>
               </Medication>
            </contained>
            <extension url="http://nictiz.nl/fhir/StructureDefinition/zib-AdministrationAgreement-AuthoredOn">
               <valueDateTime value="2016-03-03"/>
            </extension>
            <extension url="http://nictiz.nl/fhir/StructureDefinition/zib-Medication-MedicationTreatment">
               <valueIdentifier>
                  <system value="urn:oid:2.16.528.1.1007.3.3.1234567.3"/>
                  <value value="MedBehConverted_mag08"/>
               </valueIdentifier>
            </extension>
            <identifier>
               <system value="urn:oid:2.16.528.1.1007.3.3.1234567.3"/>
               <value value="TAConverted_mag08"/>
            </identifier>
            <category>
               <coding>
                  <system value="http://snomed.info/sct"/>
                  <code value="422037009"/>
                  <display value="Provider medication administration instructions (procedure)"/>
               </coding>
            </category>
            <medicationReference>
               <reference value="#d3e1443"/>
               <display value="Furosemide 125mg/50ml pump"/>
            </medicationReference>
            <!-- Patient -->
            <!-- Possibly not to be included for MedMij related interactions, because patient should be known in infra-context -->
            <subject>
               <identifier>
                  <system value="http://fhir.nl/fhir/NamingSystem/bsn"/>
                  <value value="012345672"/>
               </identifier>
               <display value="J.J. le Noble van Son"/>
            </subject>
            <supportingInformation>
               <identifier>
                  <system value="urn:oid:'2.16.840.1.113883.5.1008'"/>
                  <value value="NI"/>
               </identifier>
            </supportingInformation>
            <!-- Responsible dispensing pharmacy -->
            <performer>
               <actor>
                  <identifier>
                     <system value="http://fhir.nl/fhir/NamingSystem/ura"/>
                     <value value="01234567"/>
                  </identifier>
               </actor>
            </performer>
            <!--Toelichting-->
         </MedicationDispense>
      </resource>
   </entry>
   <entry>
      <fullUrl value="TAConverted_mag09--2.16.528.1.1007.3.3.1234567.3"/>
      <resource>
         <MedicationDispense xmlns:f="http://hl7.org/fhir"
                             xmlns:local="urn:fhir:stu3:functions"
                             xmlns:xd="http://www.oxygenxml.com/ns/doc/xsl"
                             xmlns:nf="http://www.nictiz.nl/functions"
                             xmlns:xs="http://www.w3.org/2001/XMLSchema">
            <meta>
               <profile value="http://nictiz.nl/fhir/StructureDefinition/zib-AdministrationAgreement"/>
            </meta>
            <contained>
               <Medication>
                  <id value="d3e1679"/>
                  <meta>
                     <profile value="http://nictiz.nl/fhir/StructureDefinition/zib-Product"/>
                  </meta>
                  <extension url="http://nictiz.nl/fhir/StructureDefinition/zib-Product-Description">
                     <valueString value="Titel: Penicilline 12milj/24 uur Regel: Water v injectie ampul 10ml Regel: Injpdrpenecil.g na 1milj e Regel: Infnacl 0,9% fl 100ml Regel: Easypump lt 125-24 5ml/uur"/>
                  </extension>
                  <code>
                     <text value="Penicilline 12milj/24 uur"/>
                  </code>
                  <ingredient>
                     <itemCodeableConcept>
                        <coding>
                           <system value="urn:oid:2.16.840.1.113883.2.4.4.7"/>
                           <code value="2558092"/>
                           <display value="PENICILLIN G-NA SANDOZ INJPDR FLACON  1 MEGA IE"/>
                        </coding>
                     </itemCodeableConcept>
                     <isActive value="true"/>
                     <amount>
                        <numerator>
                           <value value="12"/>
                           <unit value="stuk"/>
                           <system value="2.16.840.1.113883.2.4.4.1.900.2"/>
                           <code value="245"/>
                        </numerator>
                        <denominator>
                           <value value="1"/>
                           <unit value="stuk"/>
                           <system value="2.16.840.1.113883.2.4.4.1.900.2"/>
                           <code value="245"/>
                        </denominator>
                     </amount>
                  </ingredient>
                  <ingredient>
                     <itemCodeableConcept>
                        <coding>
                           <system value="urn:oid:2.16.840.1.113883.2.4.4.7"/>
                           <code value="2257610"/>
                           <display value="WATER VOOR INJECTIE CF FLACON 10ML"/>
                        </coding>
                     </itemCodeableConcept>
                     <isActive value="true"/>
                     <amount>
                        <numerator>
                           <value value="2"/>
                           <unit value="stuk"/>
                           <system value="2.16.840.1.113883.2.4.4.1.900.2"/>
                           <code value="245"/>
                        </numerator>
                        <denominator>
                           <value value="1"/>
                           <unit value="stuk"/>
                           <system value="2.16.840.1.113883.2.4.4.1.900.2"/>
                           <code value="245"/>
                        </denominator>
                     </amount>
                  </ingredient>
                  <ingredient>
                     <itemCodeableConcept>
                        <coding>
                           <system value="urn:oid:2.16.840.1.113883.2.4.4.7"/>
                           <code value="598968"/>
                           <display value="INFVLST NACL 9MG/ML ZAK  100ML"/>
                        </coding>
                     </itemCodeableConcept>
                     <isActive value="true"/>
                     <amount>
                        <numerator>
                           <value value="1"/>
                           <unit value="stuk"/>
                           <system value="2.16.840.1.113883.2.4.4.1.900.2"/>
                           <code value="245"/>
                        </numerator>
                        <denominator>
                           <value value="1"/>
                           <unit value="stuk"/>
                           <system value="2.16.840.1.113883.2.4.4.1.900.2"/>
                           <code value="245"/>
                        </denominator>
                     </amount>
                  </ingredient>
                  <ingredient>
                     <itemCodeableConcept>
                        <coding>
                           <system value="urn:oid:2.16.840.1.113883.2.4.4.8"/>
                           <code value="15760839"/>
                           <display value="EASYPUMP II LT 125- 25 S 5ML/UUR 125ML"/>
                        </coding>
                     </itemCodeableConcept>
                     <isActive value="true"/>
                     <amount>
                        <numerator>
                           <value value="1"/>
                           <unit value="stuk"/>
                           <system value="2.16.840.1.113883.2.4.4.1.900.2"/>
                           <code value="245"/>
                        </numerator>
                        <denominator>
                           <value value="1"/>
                           <unit value="stuk"/>
                           <system value="2.16.840.1.113883.2.4.4.1.900.2"/>
                           <code value="245"/>
                        </denominator>
                     </amount>
                  </ingredient>
               </Medication>
            </contained>
            <extension url="http://nictiz.nl/fhir/StructureDefinition/zib-AdministrationAgreement-AuthoredOn">
               <valueDateTime value="2016-03-03"/>
            </extension>
            <extension url="http://nictiz.nl/fhir/StructureDefinition/zib-Medication-MedicationTreatment">
               <valueIdentifier>
                  <system value="urn:oid:2.16.528.1.1007.3.3.1234567.3"/>
                  <value value="MedBehConverted_mag09"/>
               </valueIdentifier>
            </extension>
            <identifier>
               <system value="urn:oid:2.16.528.1.1007.3.3.1234567.3"/>
               <value value="TAConverted_mag09"/>
            </identifier>
            <category>
               <coding>
                  <system value="http://snomed.info/sct"/>
                  <code value="422037009"/>
                  <display value="Provider medication administration instructions (procedure)"/>
               </coding>
            </category>
            <medicationReference>
               <reference value="#d3e1679"/>
               <display value="Penicilline 12milj/24 uur"/>
            </medicationReference>
            <!-- Patient -->
            <!-- Possibly not to be included for MedMij related interactions, because patient should be known in infra-context -->
            <subject>
               <identifier>
                  <system value="http://fhir.nl/fhir/NamingSystem/bsn"/>
                  <value value="012345672"/>
               </identifier>
               <display value="J.J. le Noble van Son"/>
            </subject>
            <supportingInformation>
               <identifier>
                  <system value="urn:oid:'2.16.840.1.113883.5.1008'"/>
                  <value value="NI"/>
               </identifier>
            </supportingInformation>
            <!-- Responsible dispensing pharmacy -->
            <performer>
               <actor>
                  <identifier>
                     <system value="http://fhir.nl/fhir/NamingSystem/ura"/>
                     <value value="01234567"/>
                  </identifier>
               </actor>
            </performer>
            <!--Toelichting-->
         </MedicationDispense>
      </resource>
   </entry>
   <entry>
      <fullUrl value="TAConverted_mag10--2.16.528.1.1007.3.3.1234567.3"/>
      <resource>
         <MedicationDispense xmlns:f="http://hl7.org/fhir"
                             xmlns:local="urn:fhir:stu3:functions"
                             xmlns:xd="http://www.oxygenxml.com/ns/doc/xsl"
                             xmlns:nf="http://www.nictiz.nl/functions"
                             xmlns:xs="http://www.w3.org/2001/XMLSchema">
            <meta>
               <profile value="http://nictiz.nl/fhir/StructureDefinition/zib-AdministrationAgreement"/>
            </meta>
            <contained>
               <Medication>
                  <id value="d3e1961"/>
                  <meta>
                     <profile value="http://nictiz.nl/fhir/StructureDefinition/zib-Product"/>
                  </meta>
                  <extension url="http://nictiz.nl/fhir/StructureDefinition/zib-Product-Description">
                     <valueString value="Titel: Dalterparine ing. 0,5ml=500e Regel: minpl clas nacl 90mg/10ml Regel: Fragmin 5000/0,2ml wwsp"/>
                  </extension>
                  <code>
                     <text value="Dalterparine ing. 0,5ml=500e"/>
                  </code>
                  <ingredient>
                     <itemCodeableConcept>
                        <coding>
                           <system value="urn:oid:2.16.840.1.113883.2.4.4.7"/>
                           <code value="634123"/>
                           <display value="FRAGMIN   5000 INJVLST 25.000IE/ML WWSP 0,2ML"/>
                        </coding>
                     </itemCodeableConcept>
                     <isActive value="true"/>
                     <amount>
                        <numerator>
                           <value value="0.1"/>
                           <unit value="stuk"/>
                           <system value="2.16.840.1.113883.2.4.4.1.900.2"/>
                           <code value="245"/>
                        </numerator>
                        <denominator>
                           <value value="1"/>
                           <unit value="stuk"/>
                           <system value="2.16.840.1.113883.2.4.4.1.900.2"/>
                           <code value="245"/>
                        </denominator>
                     </amount>
                  </ingredient>
                  <ingredient>
                     <itemCodeableConcept>
                        <coding>
                           <system value="urn:oid:2.16.840.1.113883.2.4.4.8"/>
                           <code value="15739074"/>
                           <display value="OMNIFLUSH NACL 0,9% WWSP 10ML IN 10ML"/>
                        </coding>
                     </itemCodeableConcept>
                     <isActive value="true"/>
                     <amount>
                        <numerator>
                           <value value="0.05"/>
                           <unit value="stuk"/>
                           <system value="2.16.840.1.113883.2.4.4.1.900.2"/>
                           <code value="245"/>
                        </numerator>
                        <denominator>
                           <value value="1"/>
                           <unit value="stuk"/>
                           <system value="2.16.840.1.113883.2.4.4.1.900.2"/>
                           <code value="245"/>
                        </denominator>
                     </amount>
                  </ingredient>
               </Medication>
            </contained>
            <extension url="http://nictiz.nl/fhir/StructureDefinition/zib-AdministrationAgreement-AuthoredOn">
               <valueDateTime value="2016-03-03"/>
            </extension>
            <extension url="http://nictiz.nl/fhir/StructureDefinition/zib-Medication-MedicationTreatment">
               <valueIdentifier>
                  <system value="urn:oid:2.16.528.1.1007.3.3.1234567.3"/>
                  <value value="MedBehConverted_mag10"/>
               </valueIdentifier>
            </extension>
            <identifier>
               <system value="urn:oid:2.16.528.1.1007.3.3.1234567.3"/>
               <value value="TAConverted_mag10"/>
            </identifier>
            <category>
               <coding>
                  <system value="http://snomed.info/sct"/>
                  <code value="422037009"/>
                  <display value="Provider medication administration instructions (procedure)"/>
               </coding>
            </category>
            <medicationReference>
               <reference value="#d3e1961"/>
               <display value="Dalterparine ing. 0,5ml=500e"/>
            </medicationReference>
            <!-- Patient -->
            <!-- Possibly not to be included for MedMij related interactions, because patient should be known in infra-context -->
            <subject>
               <identifier>
                  <system value="http://fhir.nl/fhir/NamingSystem/bsn"/>
                  <value value="012345672"/>
               </identifier>
               <display value="J.J. le Noble van Son"/>
            </subject>
            <supportingInformation>
               <identifier>
                  <system value="urn:oid:'2.16.840.1.113883.5.1008'"/>
                  <value value="NI"/>
               </identifier>
            </supportingInformation>
            <!-- Responsible dispensing pharmacy -->
            <performer>
               <actor>
                  <identifier>
                     <system value="http://fhir.nl/fhir/NamingSystem/ura"/>
                     <value value="01234567"/>
                  </identifier>
               </actor>
            </performer>
            <!--Toelichting-->
         </MedicationDispense>
      </resource>
   </entry>
   <entry>
      <fullUrl value="mag01--2.16.528.1.1007.3.3.1234567.3"/>
      <resource>
         <MedicationDispense xmlns:f="http://hl7.org/fhir"
                             xmlns:local="urn:fhir:stu3:functions"
                             xmlns:xd="http://www.oxygenxml.com/ns/doc/xsl"
                             xmlns:nf="http://www.nictiz.nl/functions"
                             xmlns:xs="http://www.w3.org/2001/XMLSchema">
            <meta>
               <profile value="http://nictiz.nl/fhir/StructureDefinition/zib-Dispense"/>
            </meta>
            <contained>
               <Medication>
                  <id value="d3e173"/>
                  <meta>
                     <profile value="http://nictiz.nl/fhir/StructureDefinition/zib-Product"/>
                  </meta>
                  <extension url="http://nictiz.nl/fhir/StructureDefinition/zib-Product-Description">
                     <valueString value="Titel: Hydrocortison zetpil 100 mg Regel: Hydrocort micronisatum 100 mg Regel: Witepsol H15 past 1,99 gr"/>
                  </extension>
                  <code>
                     <text value="Hydrocortison zetpil 100 mg"/>
                  </code>
                  <ingredient>
                     <itemCodeableConcept>
                        <coding>
                           <system value="urn:oid:2.16.840.1.113883.2.4.4.7"/>
                           <code value="252247"/>
                           <display value="HYDROCORTISONUM MICRONISAT"/>
                        </coding>
                     </itemCodeableConcept>
                     <isActive value="true"/>
                     <amount>
                        <numerator>
                           <value value="10"/>
                           <unit value="milligram"/>
                           <system value="2.16.840.1.113883.2.4.4.1.900.2"/>
                           <code value="229"/>
                        </numerator>
                        <denominator>
                           <value value="1"/>
                           <unit value="stuk"/>
                           <system value="2.16.840.1.113883.2.4.4.1.900.2"/>
                           <code value="245"/>
                        </denominator>
                     </amount>
                  </ingredient>
                  <ingredient>
                     <itemCodeableConcept>
                        <coding>
                           <system value="urn:oid:2.16.840.1.113883.2.4.4.7"/>
                           <code value="265144"/>
                           <display value="WITEPSOL H15 PAST"/>
                        </coding>
                     </itemCodeableConcept>
                     <isActive value="true"/>
                     <amount>
                        <numerator>
                           <value value="1.99"/>
                           <unit value="gram"/>
                           <system value="2.16.840.1.113883.2.4.4.1.900.2"/>
                           <code value="215"/>
                        </numerator>
                        <denominator>
                           <value value="1"/>
                           <unit value="stuk"/>
                           <system value="2.16.840.1.113883.2.4.4.1.900.2"/>
                           <code value="245"/>
                        </denominator>
                     </amount>
                  </ingredient>
               </Medication>
            </contained>
            <extension url="http://nictiz.nl/fhir/StructureDefinition/zib-Dispense-RequestDate">
               <valueDateTime value="2016-03-03"/>
            </extension>
            <extension url="http://nictiz.nl/fhir/StructureDefinition/zib-Medication-MedicationTreatment">
               <valueIdentifier>
                  <system value="urn:oid:2.16.528.1.1007.3.3.1234567.3"/>
                  <value value="MedBehConverted_mag01"/>
               </valueIdentifier>
            </extension>
            <identifier>
               <system value="urn:oid:2.16.528.1.1007.3.3.1234567.3"/>
               <value value="mag01"/>
            </identifier>
            <category>
               <coding>
                  <system value="http://snomed.info/sct"/>
                  <code value="373784005"/>
                  <display value="Dispensing medication (procedure)"/>
               </coding>
            </category>
            <medicationReference>
               <reference value="#d3e173"/>
               <display value="Hydrocortison zetpil 100 mg"/>
            </medicationReference>
            <!-- Patient -->
            <!-- Possibly not to be included for MedMij related interactions, because patient should be known in infra-context -->
            <subject>
               <identifier>
                  <system value="http://fhir.nl/fhir/NamingSystem/bsn"/>
                  <value value="012345672"/>
               </identifier>
               <display value="J.J. le Noble van Son"/>
            </subject>
            <!-- Responsible dispensing pharmacy -->
            <performer>
               <actor>
                  <identifier>
                     <system value="http://fhir.nl/fhir/NamingSystem/ura"/>
                     <value value="01234567"/>
                  </identifier>
               </actor>
            </performer>
            <quantity>
               <value value="1"/>
               <unit value="Stuk"/>
               <system value="2.16.840.1.113883.2.4.4.1.900.2"/>
               <code value="245"/>
            </quantity>
         </MedicationDispense>
      </resource>
   </entry>
   <entry>
      <fullUrl value="mag02--2.16.528.1.1007.3.3.1234567.3"/>
      <resource>
         <MedicationDispense xmlns:f="http://hl7.org/fhir"
                             xmlns:local="urn:fhir:stu3:functions"
                             xmlns:xd="http://www.oxygenxml.com/ns/doc/xsl"
                             xmlns:nf="http://www.nictiz.nl/functions"
                             xmlns:xs="http://www.w3.org/2001/XMLSchema">
            <meta>
               <profile value="http://nictiz.nl/fhir/StructureDefinition/zib-Dispense"/>
            </meta>
            <contained>
               <Medication>
                  <id value="d3e387"/>
                  <meta>
                     <profile value="http://nictiz.nl/fhir/StructureDefinition/zib-Product"/>
                  </meta>
                  <extension url="http://nictiz.nl/fhir/StructureDefinition/zib-Product-Description">
                     <valueString value="Titel: Ketoconazol crème met 20% vaseline en 0,1% triam acet Regel: Vaselinum album 120 gr Regel: Triamcinolon acet c am or trit 1=10 6 gr Regel: Ketoconazol crème 20mg/g 474 gr"/>
                  </extension>
                  <code>
                     <text value="Ketoconazol crème met 20% vaseline en 0,1% triam acet"/>
                  </code>
                  <ingredient>
                     <itemCodeableConcept>
                        <coding>
                           <system value="urn:oid:2.16.840.1.113883.2.4.4.7"/>
                           <code value="264105"/>
                           <display value="TRIAMCINOLONI ACETONIDUM C AM OR TRIT 1=10 MICRON"/>
                        </coding>
                     </itemCodeableConcept>
                     <isActive value="true"/>
                     <amount>
                        <numerator>
                           <value value="6"/>
                           <unit value="gram"/>
                           <system value="2.16.840.1.113883.2.4.4.1.900.2"/>
                           <code value="215"/>
                        </numerator>
                        <denominator>
                           <value value="600"/>
                           <unit value="gram"/>
                           <system value="2.16.840.1.113883.2.4.4.1.900.2"/>
                           <code value="215"/>
                        </denominator>
                     </amount>
                  </ingredient>
                  <ingredient>
                     <itemCodeableConcept>
                        <coding>
                           <system value="urn:oid:2.16.840.1.113883.2.4.4.7"/>
                           <code value="1131508"/>
                           <display value="KETOCONAZOL JC CREME 20MG/G"/>
                        </coding>
                     </itemCodeableConcept>
                     <isActive value="true"/>
                     <amount>
                        <numerator>
                           <value value="474"/>
                           <unit value="gram"/>
                           <system value="2.16.840.1.113883.2.4.4.1.900.2"/>
                           <code value="215"/>
                        </numerator>
                        <denominator>
                           <value value="600"/>
                           <unit value="gram"/>
                           <system value="2.16.840.1.113883.2.4.4.1.900.2"/>
                           <code value="215"/>
                        </denominator>
                     </amount>
                  </ingredient>
                  <ingredient>
                     <itemCodeableConcept>
                        <coding>
                           <system value="urn:oid:2.16.840.1.113883.2.4.4.7"/>
                           <code value="265012"/>
                           <display value="VASELINUM ALBUM"/>
                        </coding>
                     </itemCodeableConcept>
                     <isActive value="true"/>
                     <amount>
                        <numerator>
                           <value value="120"/>
                           <unit value="gram"/>
                           <system value="2.16.840.1.113883.2.4.4.1.900.2"/>
                           <code value="215"/>
                        </numerator>
                        <denominator>
                           <value value="600"/>
                           <unit value="gram"/>
                           <system value="2.16.840.1.113883.2.4.4.1.900.2"/>
                           <code value="215"/>
                        </denominator>
                     </amount>
                  </ingredient>
               </Medication>
            </contained>
            <extension url="http://nictiz.nl/fhir/StructureDefinition/zib-Dispense-RequestDate">
               <valueDateTime value="2016-03-03"/>
            </extension>
            <extension url="http://nictiz.nl/fhir/StructureDefinition/zib-Medication-MedicationTreatment">
               <valueIdentifier>
                  <system value="urn:oid:2.16.528.1.1007.3.3.1234567.3"/>
                  <value value="MedBehConverted_mag02"/>
               </valueIdentifier>
            </extension>
            <identifier>
               <system value="urn:oid:2.16.528.1.1007.3.3.1234567.3"/>
               <value value="mag02"/>
            </identifier>
            <category>
               <coding>
                  <system value="http://snomed.info/sct"/>
                  <code value="373784005"/>
                  <display value="Dispensing medication (procedure)"/>
               </coding>
            </category>
            <medicationReference>
               <reference value="#d3e387"/>
               <display value="Ketoconazol crème met 20% vaseline en 0,1% triam acet"/>
            </medicationReference>
            <!-- Patient -->
            <!-- Possibly not to be included for MedMij related interactions, because patient should be known in infra-context -->
            <subject>
               <identifier>
                  <system value="http://fhir.nl/fhir/NamingSystem/bsn"/>
                  <value value="012345672"/>
               </identifier>
               <display value="J.J. le Noble van Son"/>
            </subject>
            <!-- Responsible dispensing pharmacy -->
            <performer>
               <actor>
                  <identifier>
                     <system value="http://fhir.nl/fhir/NamingSystem/ura"/>
                     <value value="01234567"/>
                  </identifier>
               </actor>
            </performer>
            <quantity>
               <value value="1"/>
               <unit value="Stuk"/>
               <system value="2.16.840.1.113883.2.4.4.1.900.2"/>
               <code value="245"/>
            </quantity>
         </MedicationDispense>
      </resource>
   </entry>
   <entry>
      <fullUrl value="mag03--2.16.528.1.1007.3.3.1234567.3"/>
      <resource>
         <MedicationDispense xmlns:f="http://hl7.org/fhir"
                             xmlns:local="urn:fhir:stu3:functions"
                             xmlns:xd="http://www.oxygenxml.com/ns/doc/xsl"
                             xmlns:nf="http://www.nictiz.nl/functions"
                             xmlns:xs="http://www.w3.org/2001/XMLSchema">
            <meta>
               <profile value="http://nictiz.nl/fhir/StructureDefinition/zib-Dispense"/>
            </meta>
            <contained>
               <Medication>
                  <id value="d3e601"/>
                  <meta>
                     <profile value="http://nictiz.nl/fhir/StructureDefinition/zib-Product"/>
                  </meta>
                  <extension url="http://nictiz.nl/fhir/StructureDefinition/zib-Product-Description">
                     <valueString value="Titel: Nafazoline oogdruppels 0,025% ex FNA Regel: Naphazolini nitras 25 mg Regel: Boorzuur-benzalk opl FNA ad 100 ml"/>
                  </extension>
                  <code>
                     <text value="Nafazoline oogdruppels 0,025% ex FNA"/>
                  </code>
                  <ingredient>
                     <itemCodeableConcept>
                        <coding>
                           <system value="urn:oid:2.16.840.1.113883.2.4.4.7"/>
                           <code value="256234"/>
                           <display value="NAPHAZOLINI HYDROCHLORIDUM"/>
                        </coding>
                     </itemCodeableConcept>
                     <isActive value="true"/>
                     <amount>
                        <numerator>
                           <value value="25"/>
                           <unit value="milligram"/>
                           <system value="2.16.840.1.113883.2.4.4.1.900.2"/>
                           <code value="229"/>
                        </numerator>
                        <denominator>
                           <value value="100"/>
                           <unit value="milliliter"/>
                           <system value="2.16.840.1.113883.2.4.4.1.900.2"/>
                           <code value="233"/>
                        </denominator>
                     </amount>
                  </ingredient>
                  <ingredient>
                     <itemCodeableConcept>
                        <coding>
                           <system value="urn:oid:2.16.840.1.113883.2.4.4.7"/>
                           <code value="261173"/>
                           <display value="BOORZUUR-BENZALKONIUMOPLOSSING FNA MR"/>
                        </coding>
                     </itemCodeableConcept>
                     <isActive value="true"/>
                     <amount>
                        <numerator>
                           <extension url="http://hl7.org/fhir/StructureDefinition/iso21090-nullFlavor">
                              <valueCode value="QS"/>
                           </extension>
                        </numerator>
                        <denominator>
                           <value value="100"/>
                           <unit value="milliliter"/>
                           <system value="2.16.840.1.113883.2.4.4.1.900.2"/>
                           <code value="233"/>
                        </denominator>
                     </amount>
                  </ingredient>
               </Medication>
            </contained>
            <extension url="http://nictiz.nl/fhir/StructureDefinition/zib-Dispense-RequestDate">
               <valueDateTime value="2016-03-03"/>
            </extension>
            <extension url="http://nictiz.nl/fhir/StructureDefinition/zib-Medication-MedicationTreatment">
               <valueIdentifier>
                  <system value="urn:oid:2.16.528.1.1007.3.3.1234567.3"/>
                  <value value="MedBehConverted_mag03"/>
               </valueIdentifier>
            </extension>
            <identifier>
               <system value="urn:oid:2.16.528.1.1007.3.3.1234567.3"/>
               <value value="mag03"/>
            </identifier>
            <category>
               <coding>
                  <system value="http://snomed.info/sct"/>
                  <code value="373784005"/>
                  <display value="Dispensing medication (procedure)"/>
               </coding>
            </category>
            <medicationReference>
               <reference value="#d3e601"/>
               <display value="Nafazoline oogdruppels 0,025% ex FNA"/>
            </medicationReference>
            <!-- Patient -->
            <!-- Possibly not to be included for MedMij related interactions, because patient should be known in infra-context -->
            <subject>
               <identifier>
                  <system value="http://fhir.nl/fhir/NamingSystem/bsn"/>
                  <value value="012345672"/>
               </identifier>
               <display value="J.J. le Noble van Son"/>
            </subject>
            <!-- Responsible dispensing pharmacy -->
            <performer>
               <actor>
                  <identifier>
                     <system value="http://fhir.nl/fhir/NamingSystem/ura"/>
                     <value value="01234567"/>
                  </identifier>
               </actor>
            </performer>
            <quantity>
               <value value="1"/>
               <unit value="Stuk"/>
               <system value="2.16.840.1.113883.2.4.4.1.900.2"/>
               <code value="245"/>
            </quantity>
         </MedicationDispense>
      </resource>
   </entry>
   <entry>
      <fullUrl value="mag04--2.16.528.1.1007.3.3.1234567.3"/>
      <resource>
         <MedicationDispense xmlns:f="http://hl7.org/fhir"
                             xmlns:local="urn:fhir:stu3:functions"
                             xmlns:xd="http://www.oxygenxml.com/ns/doc/xsl"
                             xmlns:nf="http://www.nictiz.nl/functions"
                             xmlns:xs="http://www.w3.org/2001/XMLSchema">
            <meta>
               <profile value="http://nictiz.nl/fhir/StructureDefinition/zib-Dispense"/>
            </meta>
            <contained>
               <Medication>
                  <id value="d3e815"/>
                  <meta>
                     <profile value="http://nictiz.nl/fhir/StructureDefinition/zib-Product"/>
                  </meta>
                  <extension url="http://nictiz.nl/fhir/StructureDefinition/zib-Product-Description">
                     <valueString value="Titel: Abilify caps 2,5 mg Regel: Abilify 10 mg tabl 22,5 st Regel: Cell Micr PH102 ad 33 ml Regel: Caps capsicards nr 2 helder 90 st"/>
                  </extension>
                  <code>
                     <text value="Abilify caps 2,5 mg"/>
                  </code>
                  <ingredient>
                     <itemCodeableConcept>
                        <coding>
                           <system value="urn:oid:2.16.840.1.113883.2.4.4.7"/>
                           <code value="1647091"/>
                           <display value="ABILIFY TABLET 10MG"/>
                        </coding>
                     </itemCodeableConcept>
                     <isActive value="true"/>
                     <amount>
                        <numerator>
                           <value value="22.5"/>
                           <unit value="stuk"/>
                           <system value="2.16.840.1.113883.2.4.4.1.900.2"/>
                           <code value="245"/>
                        </numerator>
                        <denominator>
                           <value value="90"/>
                           <unit value="stuk"/>
                           <system value="2.16.840.1.113883.2.4.4.1.900.2"/>
                           <code value="245"/>
                        </denominator>
                     </amount>
                  </ingredient>
                  <ingredient>
                     <itemCodeableConcept>
                        <coding>
                           <system value="urn:oid:2.16.840.1.113883.2.4.4.7"/>
                           <code value="248584"/>
                           <display value="CELLULOSUM MICROCRYST PH102"/>
                        </coding>
                     </itemCodeableConcept>
                     <isActive value="true"/>
                     <amount>
                        <numerator>
                           <extension url="http://hl7.org/fhir/StructureDefinition/iso21090-nullFlavor">
                              <valueCode value="QS"/>
                           </extension>
                        </numerator>
                        <denominator>
                           <value value="100"/>
                           <unit value="milliliter"/>
                           <system value="2.16.840.1.113883.2.4.4.1.900.2"/>
                           <code value="233"/>
                        </denominator>
                     </amount>
                  </ingredient>
                  <ingredient>
                     <itemCodeableConcept>
                        <coding>
                           <system value="urn:oid:2.16.840.1.113883.2.4.4.7"/>
                           <code value="883646"/>
                           <display value="CAPSULES CAPSICARDS NR  2 HELDER"/>
                        </coding>
                     </itemCodeableConcept>
                     <isActive value="true"/>
                     <amount>
                        <numerator>
                           <value value="90"/>
                           <unit value="stuk"/>
                           <system value="2.16.840.1.113883.2.4.4.1.900.2"/>
                           <code value="245"/>
                        </numerator>
                        <denominator>
                           <value value="90"/>
                           <unit value="stuk"/>
                           <system value="2.16.840.1.113883.2.4.4.1.900.2"/>
                           <code value="245"/>
                        </denominator>
                     </amount>
                  </ingredient>
               </Medication>
            </contained>
            <extension url="http://nictiz.nl/fhir/StructureDefinition/zib-Dispense-RequestDate">
               <valueDateTime value="2016-03-03"/>
            </extension>
            <extension url="http://nictiz.nl/fhir/StructureDefinition/zib-Medication-MedicationTreatment">
               <valueIdentifier>
                  <system value="urn:oid:2.16.528.1.1007.3.3.1234567.3"/>
                  <value value="MedBehConverted_mag04"/>
               </valueIdentifier>
            </extension>
            <identifier>
               <system value="urn:oid:2.16.528.1.1007.3.3.1234567.3"/>
               <value value="mag04"/>
            </identifier>
            <category>
               <coding>
                  <system value="http://snomed.info/sct"/>
                  <code value="373784005"/>
                  <display value="Dispensing medication (procedure)"/>
               </coding>
            </category>
            <medicationReference>
               <reference value="#d3e815"/>
               <display value="Abilify caps 2,5 mg"/>
            </medicationReference>
            <!-- Patient -->
            <!-- Possibly not to be included for MedMij related interactions, because patient should be known in infra-context -->
            <subject>
               <identifier>
                  <system value="http://fhir.nl/fhir/NamingSystem/bsn"/>
                  <value value="012345672"/>
               </identifier>
               <display value="J.J. le Noble van Son"/>
            </subject>
            <!-- Responsible dispensing pharmacy -->
            <performer>
               <actor>
                  <identifier>
                     <system value="http://fhir.nl/fhir/NamingSystem/ura"/>
                     <value value="01234567"/>
                  </identifier>
               </actor>
            </performer>
            <quantity>
               <value value="1"/>
               <unit value="Stuk"/>
               <system value="2.16.840.1.113883.2.4.4.1.900.2"/>
               <code value="245"/>
            </quantity>
         </MedicationDispense>
      </resource>
   </entry>
   <entry>
      <fullUrl value="mag06--2.16.528.1.1007.3.3.1234567.3"/>
      <resource>
         <MedicationDispense xmlns:f="http://hl7.org/fhir"
                             xmlns:local="urn:fhir:stu3:functions"
                             xmlns:xd="http://www.oxygenxml.com/ns/doc/xsl"
                             xmlns:nf="http://www.nictiz.nl/functions"
                             xmlns:xs="http://www.w3.org/2001/XMLSchema">
            <meta>
               <profile value="http://nictiz.nl/fhir/StructureDefinition/zib-Dispense"/>
            </meta>
            <contained>
               <Medication>
                  <id value="d3e1052"/>
                  <meta>
                     <profile value="http://nictiz.nl/fhir/StructureDefinition/zib-Product"/>
                  </meta>
                  <extension url="http://nictiz.nl/fhir/StructureDefinition/zib-Product-Description">
                     <valueString value="Titel: Haparine 100 ie= 10 ml Regel: Minpl cla water c ing 10ml Regel: Heparini natricum Regel: natrri chloridum"/>
                  </extension>
                  <code>
                     <text value="Haparine 100 ie= 10 ml"/>
                  </code>
                  <ingredient>
                     <itemCodeableConcept>
                        <coding>
                           <system value="urn:oid:2.16.840.1.113883.2.4.4.7"/>
                           <code value="898724"/>
                           <display value="HEPARINUM NATRICUM"/>
                        </coding>
                     </itemCodeableConcept>
                     <isActive value="true"/>
                     <amount>
                        <numerator>
                           <value value="100"/>
                           <unit value="internationale eenheid"/>
                           <system value="2.16.840.1.113883.2.4.4.1.900.2"/>
                           <code value="217"/>
                        </numerator>
                        <denominator>
                           <value value="10"/>
                           <unit value="milliliter"/>
                           <system value="2.16.840.1.113883.2.4.4.1.900.2"/>
                           <code value="233"/>
                        </denominator>
                     </amount>
                  </ingredient>
                  <ingredient>
                     <itemCodeableConcept>
                        <coding>
                           <system value="urn:oid:2.16.840.1.113883.2.4.4.7"/>
                           <code value="2257610"/>
                           <display value="WATER VOOR INJECTIE CF FLACON 10ML"/>
                        </coding>
                     </itemCodeableConcept>
                     <isActive value="true"/>
                     <amount>
                        <numerator>
                           <value value="1"/>
                           <unit value="stuk"/>
                           <system value="2.16.840.1.113883.2.4.4.1.900.2"/>
                           <code value="245"/>
                        </numerator>
                        <denominator>
                           <value value="10"/>
                           <unit value="milliliter"/>
                           <system value="2.16.840.1.113883.2.4.4.1.900.2"/>
                           <code value="233"/>
                        </denominator>
                     </amount>
                  </ingredient>
                  <ingredient>
                     <itemCodeableConcept>
                        <coding>
                           <system value="urn:oid:2.16.840.1.113883.2.4.4.7"/>
                           <code value="256390"/>
                           <display value="NATRII CHLORIDUM"/>
                        </coding>
                     </itemCodeableConcept>
                     <isActive value="true"/>
                     <amount>
                        <numerator>
                           <value value="0.09"/>
                           <unit value="gram"/>
                           <system value="2.16.840.1.113883.2.4.4.1.900.2"/>
                           <code value="215"/>
                        </numerator>
                        <denominator>
                           <value value="10"/>
                           <unit value="milliliter"/>
                           <system value="2.16.840.1.113883.2.4.4.1.900.2"/>
                           <code value="233"/>
                        </denominator>
                     </amount>
                  </ingredient>
               </Medication>
            </contained>
            <extension url="http://nictiz.nl/fhir/StructureDefinition/zib-Dispense-RequestDate">
               <valueDateTime value="2016-03-03"/>
            </extension>
            <extension url="http://nictiz.nl/fhir/StructureDefinition/zib-Medication-MedicationTreatment">
               <valueIdentifier>
                  <system value="urn:oid:2.16.528.1.1007.3.3.1234567.3"/>
                  <value value="MedBehConverted_mag06"/>
               </valueIdentifier>
            </extension>
            <identifier>
               <system value="urn:oid:2.16.528.1.1007.3.3.1234567.3"/>
               <value value="mag06"/>
            </identifier>
            <category>
               <coding>
                  <system value="http://snomed.info/sct"/>
                  <code value="373784005"/>
                  <display value="Dispensing medication (procedure)"/>
               </coding>
            </category>
            <medicationReference>
               <reference value="#d3e1052"/>
               <display value="Haparine 100 ie= 10 ml"/>
            </medicationReference>
            <!-- Patient -->
            <!-- Possibly not to be included for MedMij related interactions, because patient should be known in infra-context -->
            <subject>
               <identifier>
                  <system value="http://fhir.nl/fhir/NamingSystem/bsn"/>
                  <value value="012345672"/>
               </identifier>
               <display value="J.J. le Noble van Son"/>
            </subject>
            <!-- Responsible dispensing pharmacy -->
            <performer>
               <actor>
                  <identifier>
                     <system value="http://fhir.nl/fhir/NamingSystem/ura"/>
                     <value value="01234567"/>
                  </identifier>
               </actor>
            </performer>
            <quantity>
               <value value="1"/>
               <unit value="Stuk"/>
               <system value="2.16.840.1.113883.2.4.4.1.900.2"/>
               <code value="245"/>
            </quantity>
         </MedicationDispense>
      </resource>
   </entry>
   <entry>
      <fullUrl value="mag07--2.16.528.1.1007.3.3.1234567.3"/>
      <resource>
         <MedicationDispense xmlns:f="http://hl7.org/fhir"
                             xmlns:local="urn:fhir:stu3:functions"
                             xmlns:xd="http://www.oxygenxml.com/ns/doc/xsl"
                             xmlns:nf="http://www.nictiz.nl/functions"
                             xmlns:xs="http://www.w3.org/2001/XMLSchema">
            <meta>
               <profile value="http://nictiz.nl/fhir/StructureDefinition/zib-Dispense"/>
            </meta>
            <contained>
               <Medication>
                  <id value="d3e1311"/>
                  <meta>
                     <profile value="http://nictiz.nl/fhir/StructureDefinition/zib-Product"/>
                  </meta>
                  <extension url="http://nictiz.nl/fhir/StructureDefinition/zib-Product-Description">
                     <valueString value="Titel: Easyspump penicilline g 18me Regel: Water v inject ampul 5ml Regel: injpdr penincil.g na 1milj e Regel: Infnacl 0,9% fl 100ml Regel: Easypump lt 125-24 5ml/uur"/>
                  </extension>
                  <code>
                     <text value="Easyspump penicilline g 18me"/>
                  </code>
                  <ingredient>
                     <itemCodeableConcept>
                        <coding>
                           <system value="urn:oid:2.16.840.1.113883.2.4.4.7"/>
                           <code value="2558092"/>
                           <display value="PENICILLIN G-NA SANDOZ INJPDR FLACON  1 MEGA IE"/>
                        </coding>
                     </itemCodeableConcept>
                     <isActive value="true"/>
                     <amount>
                        <numerator>
                           <value value="18"/>
                           <unit value="stuk"/>
                           <system value="2.16.840.1.113883.2.4.4.1.900.2"/>
                           <code value="245"/>
                        </numerator>
                        <denominator>
                           <value value="1"/>
                           <unit value="stuk"/>
                           <system value="2.16.840.1.113883.2.4.4.1.900.2"/>
                           <code value="245"/>
                        </denominator>
                     </amount>
                  </ingredient>
                  <ingredient>
                     <itemCodeableConcept>
                        <coding>
                           <system value="urn:oid:2.16.840.1.113883.2.4.4.7"/>
                           <code value="2257602"/>
                           <display value="WATER VOOR INJECTIE CF FLACON  5ML"/>
                        </coding>
                     </itemCodeableConcept>
                     <isActive value="true"/>
                     <amount>
                        <numerator>
                           <value value="5"/>
                           <unit value="stuk"/>
                           <system value="2.16.840.1.113883.2.4.4.1.900.2"/>
                           <code value="245"/>
                        </numerator>
                        <denominator>
                           <value value="1"/>
                           <unit value="stuk"/>
                           <system value="2.16.840.1.113883.2.4.4.1.900.2"/>
                           <code value="245"/>
                        </denominator>
                     </amount>
                  </ingredient>
                  <ingredient>
                     <itemCodeableConcept>
                        <coding>
                           <system value="urn:oid:2.16.840.1.113883.2.4.4.7"/>
                           <code value="598968"/>
                           <display value="INFVLST NACL 9MG/ML ZAK  100ML"/>
                        </coding>
                     </itemCodeableConcept>
                     <isActive value="true"/>
                     <amount>
                        <numerator>
                           <value value="1"/>
                           <unit value="stuk"/>
                           <system value="2.16.840.1.113883.2.4.4.1.900.2"/>
                           <code value="245"/>
                        </numerator>
                        <denominator>
                           <value value="1"/>
                           <unit value="stuk"/>
                           <system value="2.16.840.1.113883.2.4.4.1.900.2"/>
                           <code value="245"/>
                        </denominator>
                     </amount>
                  </ingredient>
                  <ingredient>
                     <itemCodeableConcept>
                        <coding>
                           <system value="urn:oid:2.16.840.1.113883.2.4.4.8"/>
                           <code value="15760839"/>
                           <display value="EASYPUMP II LT 125- 25 S 5ML/UUR 125ML"/>
                        </coding>
                     </itemCodeableConcept>
                     <isActive value="true"/>
                     <amount>
                        <numerator>
                           <value value="1"/>
                           <unit value="stuk"/>
                           <system value="2.16.840.1.113883.2.4.4.1.900.2"/>
                           <code value="245"/>
                        </numerator>
                        <denominator>
                           <value value="1"/>
                           <unit value="stuk"/>
                           <system value="2.16.840.1.113883.2.4.4.1.900.2"/>
                           <code value="245"/>
                        </denominator>
                     </amount>
                  </ingredient>
               </Medication>
            </contained>
            <extension url="http://nictiz.nl/fhir/StructureDefinition/zib-Dispense-RequestDate">
               <valueDateTime value="2016-03-03"/>
            </extension>
            <extension url="http://nictiz.nl/fhir/StructureDefinition/zib-Medication-MedicationTreatment">
               <valueIdentifier>
                  <system value="urn:oid:2.16.528.1.1007.3.3.1234567.3"/>
                  <value value="MedBehConverted_mag07"/>
               </valueIdentifier>
            </extension>
            <identifier>
               <system value="urn:oid:2.16.528.1.1007.3.3.1234567.3"/>
               <value value="mag07"/>
            </identifier>
            <category>
               <coding>
                  <system value="http://snomed.info/sct"/>
                  <code value="373784005"/>
                  <display value="Dispensing medication (procedure)"/>
               </coding>
            </category>
            <medicationReference>
               <reference value="#d3e1311"/>
               <display value="Easyspump penicilline g 18me"/>
            </medicationReference>
            <!-- Patient -->
            <!-- Possibly not to be included for MedMij related interactions, because patient should be known in infra-context -->
            <subject>
               <identifier>
                  <system value="http://fhir.nl/fhir/NamingSystem/bsn"/>
                  <value value="012345672"/>
               </identifier>
               <display value="J.J. le Noble van Son"/>
            </subject>
            <!-- Responsible dispensing pharmacy -->
            <performer>
               <actor>
                  <identifier>
                     <system value="http://fhir.nl/fhir/NamingSystem/ura"/>
                     <value value="01234567"/>
                  </identifier>
               </actor>
            </performer>
            <quantity>
               <value value="1"/>
               <unit value="Stuk"/>
               <system value="2.16.840.1.113883.2.4.4.1.900.2"/>
               <code value="245"/>
            </quantity>
         </MedicationDispense>
      </resource>
   </entry>
   <entry>
      <fullUrl value="mag08--2.16.528.1.1007.3.3.1234567.3"/>
      <resource>
         <MedicationDispense xmlns:f="http://hl7.org/fhir"
                             xmlns:local="urn:fhir:stu3:functions"
                             xmlns:xd="http://www.oxygenxml.com/ns/doc/xsl"
                             xmlns:nf="http://www.nictiz.nl/functions"
                             xmlns:xs="http://www.w3.org/2001/XMLSchema">
            <meta>
               <profile value="http://nictiz.nl/fhir/StructureDefinition/zib-Dispense"/>
            </meta>
            <contained>
               <Medication>
                  <id value="d3e1570"/>
                  <meta>
                     <profile value="http://nictiz.nl/fhir/StructureDefinition/zib-Product"/>
                  </meta>
                  <extension url="http://nictiz.nl/fhir/StructureDefinition/zib-Product-Description">
                     <valueString value="Titel: Furosemide 125mg/50ml pump Regel: infnacl 0,9% fl 50ml Regel: Easypump lt 60-24 2ml/uur Regel: Furosemidum"/>
                  </extension>
                  <code>
                     <text value="Furosemide 125mg/50ml pump"/>
                  </code>
                  <ingredient>
                     <itemCodeableConcept>
                        <coding>
                           <system value="urn:oid:2.16.840.1.113883.2.4.4.7"/>
                           <code value="497142"/>
                           <display value="FUROSEMIDUM"/>
                        </coding>
                     </itemCodeableConcept>
                     <isActive value="true"/>
                     <amount>
                        <numerator>
                           <value value="0.13"/>
                           <unit value="gram"/>
                           <system value="2.16.840.1.113883.2.4.4.1.900.2"/>
                           <code value="215"/>
                        </numerator>
                        <denominator>
                           <value value="1"/>
                           <unit value="stuk"/>
                           <system value="2.16.840.1.113883.2.4.4.1.900.2"/>
                           <code value="245"/>
                        </denominator>
                     </amount>
                  </ingredient>
                  <ingredient>
                     <itemCodeableConcept>
                        <coding>
                           <system value="urn:oid:2.16.840.1.113883.2.4.4.7"/>
                           <code value="598968"/>
                           <display value="INFVLST NACL 9MG/ML ZAK  100ML"/>
                        </coding>
                     </itemCodeableConcept>
                     <isActive value="true"/>
                     <amount>
                        <numerator>
                           <value value="1"/>
                           <unit value="stuk"/>
                           <system value="2.16.840.1.113883.2.4.4.1.900.2"/>
                           <code value="245"/>
                        </numerator>
                        <denominator>
                           <value value="1"/>
                           <unit value="stuk"/>
                           <system value="2.16.840.1.113883.2.4.4.1.900.2"/>
                           <code value="245"/>
                        </denominator>
                     </amount>
                  </ingredient>
                  <ingredient>
                     <itemCodeableConcept>
                        <coding>
                           <system value="urn:oid:2.16.840.1.113883.2.4.4.8"/>
                           <code value="15760855"/>
                           <display value="EASYPUMP II LT  60- 30 S 2ML/UUR 60ML"/>
                        </coding>
                     </itemCodeableConcept>
                     <isActive value="true"/>
                     <amount>
                        <numerator>
                           <value value="1"/>
                           <unit value="stuk"/>
                           <system value="2.16.840.1.113883.2.4.4.1.900.2"/>
                           <code value="245"/>
                        </numerator>
                        <denominator>
                           <value value="1"/>
                           <unit value="stuk"/>
                           <system value="2.16.840.1.113883.2.4.4.1.900.2"/>
                           <code value="245"/>
                        </denominator>
                     </amount>
                  </ingredient>
               </Medication>
            </contained>
            <extension url="http://nictiz.nl/fhir/StructureDefinition/zib-Dispense-RequestDate">
               <valueDateTime value="2016-03-03"/>
            </extension>
            <extension url="http://nictiz.nl/fhir/StructureDefinition/zib-Medication-MedicationTreatment">
               <valueIdentifier>
                  <system value="urn:oid:2.16.528.1.1007.3.3.1234567.3"/>
                  <value value="MedBehConverted_mag08"/>
               </valueIdentifier>
            </extension>
            <identifier>
               <system value="urn:oid:2.16.528.1.1007.3.3.1234567.3"/>
               <value value="mag08"/>
            </identifier>
            <category>
               <coding>
                  <system value="http://snomed.info/sct"/>
                  <code value="373784005"/>
                  <display value="Dispensing medication (procedure)"/>
               </coding>
            </category>
            <medicationReference>
               <reference value="#d3e1570"/>
               <display value="Furosemide 125mg/50ml pump"/>
            </medicationReference>
            <!-- Patient -->
            <!-- Possibly not to be included for MedMij related interactions, because patient should be known in infra-context -->
            <subject>
               <identifier>
                  <system value="http://fhir.nl/fhir/NamingSystem/bsn"/>
                  <value value="012345672"/>
               </identifier>
               <display value="J.J. le Noble van Son"/>
            </subject>
            <!-- Responsible dispensing pharmacy -->
            <performer>
               <actor>
                  <identifier>
                     <system value="http://fhir.nl/fhir/NamingSystem/ura"/>
                     <value value="01234567"/>
                  </identifier>
               </actor>
            </performer>
            <quantity>
               <value value="1"/>
               <unit value="Stuk"/>
               <system value="2.16.840.1.113883.2.4.4.1.900.2"/>
               <code value="245"/>
            </quantity>
         </MedicationDispense>
      </resource>
   </entry>
   <entry>
      <fullUrl value="mag09--2.16.528.1.1007.3.3.1234567.3"/>
      <resource>
         <MedicationDispense xmlns:f="http://hl7.org/fhir"
                             xmlns:local="urn:fhir:stu3:functions"
                             xmlns:xd="http://www.oxygenxml.com/ns/doc/xsl"
                             xmlns:nf="http://www.nictiz.nl/functions"
                             xmlns:xs="http://www.w3.org/2001/XMLSchema">
            <meta>
               <profile value="http://nictiz.nl/fhir/StructureDefinition/zib-Dispense"/>
            </meta>
            <contained>
               <Medication>
                  <id value="d3e1829"/>
                  <meta>
                     <profile value="http://nictiz.nl/fhir/StructureDefinition/zib-Product"/>
                  </meta>
                  <extension url="http://nictiz.nl/fhir/StructureDefinition/zib-Product-Description">
                     <valueString value="Titel: Penicilline 12milj/24 uur Regel: Water v injectie ampul 10ml Regel: Injpdrpenecil.g na 1milj e Regel: Infnacl 0,9% fl 100ml Regel: Easypump lt 125-24 5ml/uur"/>
                  </extension>
                  <code>
                     <text value="Penicilline 12milj/24 uur"/>
                  </code>
                  <ingredient>
                     <itemCodeableConcept>
                        <coding>
                           <system value="urn:oid:2.16.840.1.113883.2.4.4.7"/>
                           <code value="2558092"/>
                           <display value="PENICILLIN G-NA SANDOZ INJPDR FLACON  1 MEGA IE"/>
                        </coding>
                     </itemCodeableConcept>
                     <isActive value="true"/>
                     <amount>
                        <numerator>
                           <value value="12"/>
                           <unit value="stuk"/>
                           <system value="2.16.840.1.113883.2.4.4.1.900.2"/>
                           <code value="245"/>
                        </numerator>
                        <denominator>
                           <value value="1"/>
                           <unit value="stuk"/>
                           <system value="2.16.840.1.113883.2.4.4.1.900.2"/>
                           <code value="245"/>
                        </denominator>
                     </amount>
                  </ingredient>
                  <ingredient>
                     <itemCodeableConcept>
                        <coding>
                           <system value="urn:oid:2.16.840.1.113883.2.4.4.7"/>
                           <code value="2257610"/>
                           <display value="WATER VOOR INJECTIE CF FLACON 10ML"/>
                        </coding>
                     </itemCodeableConcept>
                     <isActive value="true"/>
                     <amount>
                        <numerator>
                           <value value="2"/>
                           <unit value="stuk"/>
                           <system value="2.16.840.1.113883.2.4.4.1.900.2"/>
                           <code value="245"/>
                        </numerator>
                        <denominator>
                           <value value="1"/>
                           <unit value="stuk"/>
                           <system value="2.16.840.1.113883.2.4.4.1.900.2"/>
                           <code value="245"/>
                        </denominator>
                     </amount>
                  </ingredient>
                  <ingredient>
                     <itemCodeableConcept>
                        <coding>
                           <system value="urn:oid:2.16.840.1.113883.2.4.4.7"/>
                           <code value="598968"/>
                           <display value="INFVLST NACL 9MG/ML ZAK  100ML"/>
                        </coding>
                     </itemCodeableConcept>
                     <isActive value="true"/>
                     <amount>
                        <numerator>
                           <value value="1"/>
                           <unit value="stuk"/>
                           <system value="2.16.840.1.113883.2.4.4.1.900.2"/>
                           <code value="245"/>
                        </numerator>
                        <denominator>
                           <value value="1"/>
                           <unit value="stuk"/>
                           <system value="2.16.840.1.113883.2.4.4.1.900.2"/>
                           <code value="245"/>
                        </denominator>
                     </amount>
                  </ingredient>
                  <ingredient>
                     <itemCodeableConcept>
                        <coding>
                           <system value="urn:oid:2.16.840.1.113883.2.4.4.8"/>
                           <code value="15760839"/>
                           <display value="EASYPUMP II LT 125- 25 S 5ML/UUR 125ML"/>
                        </coding>
                     </itemCodeableConcept>
                     <isActive value="true"/>
                     <amount>
                        <numerator>
                           <value value="1"/>
                           <unit value="stuk"/>
                           <system value="2.16.840.1.113883.2.4.4.1.900.2"/>
                           <code value="245"/>
                        </numerator>
                        <denominator>
                           <value value="1"/>
                           <unit value="stuk"/>
                           <system value="2.16.840.1.113883.2.4.4.1.900.2"/>
                           <code value="245"/>
                        </denominator>
                     </amount>
                  </ingredient>
               </Medication>
            </contained>
            <extension url="http://nictiz.nl/fhir/StructureDefinition/zib-Dispense-RequestDate">
               <valueDateTime value="2016-03-03"/>
            </extension>
            <extension url="http://nictiz.nl/fhir/StructureDefinition/zib-Medication-MedicationTreatment">
               <valueIdentifier>
                  <system value="urn:oid:2.16.528.1.1007.3.3.1234567.3"/>
                  <value value="MedBehConverted_mag09"/>
               </valueIdentifier>
            </extension>
            <identifier>
               <system value="urn:oid:2.16.528.1.1007.3.3.1234567.3"/>
               <value value="mag09"/>
            </identifier>
            <category>
               <coding>
                  <system value="http://snomed.info/sct"/>
                  <code value="373784005"/>
                  <display value="Dispensing medication (procedure)"/>
               </coding>
            </category>
            <medicationReference>
               <reference value="#d3e1829"/>
               <display value="Penicilline 12milj/24 uur"/>
            </medicationReference>
            <!-- Patient -->
            <!-- Possibly not to be included for MedMij related interactions, because patient should be known in infra-context -->
            <subject>
               <identifier>
                  <system value="http://fhir.nl/fhir/NamingSystem/bsn"/>
                  <value value="012345672"/>
               </identifier>
               <display value="J.J. le Noble van Son"/>
            </subject>
            <!-- Responsible dispensing pharmacy -->
            <performer>
               <actor>
                  <identifier>
                     <system value="http://fhir.nl/fhir/NamingSystem/ura"/>
                     <value value="01234567"/>
                  </identifier>
               </actor>
            </performer>
            <quantity>
               <value value="1"/>
               <unit value="Stuk"/>
               <system value="2.16.840.1.113883.2.4.4.1.900.2"/>
               <code value="245"/>
            </quantity>
         </MedicationDispense>
      </resource>
   </entry>
   <entry>
      <fullUrl value="mag10--2.16.528.1.1007.3.3.1234567.3"/>
      <resource>
         <MedicationDispense xmlns:f="http://hl7.org/fhir"
                             xmlns:local="urn:fhir:stu3:functions"
                             xmlns:xd="http://www.oxygenxml.com/ns/doc/xsl"
                             xmlns:nf="http://www.nictiz.nl/functions"
                             xmlns:xs="http://www.w3.org/2001/XMLSchema">
            <meta>
               <profile value="http://nictiz.nl/fhir/StructureDefinition/zib-Dispense"/>
            </meta>
            <contained>
               <Medication>
                  <id value="d3e2066"/>
                  <meta>
                     <profile value="http://nictiz.nl/fhir/StructureDefinition/zib-Product"/>
                  </meta>
                  <extension url="http://nictiz.nl/fhir/StructureDefinition/zib-Product-Description">
                     <valueString value="Titel: Dalterparine ing. 0,5ml=500e Regel: minpl clas nacl 90mg/10ml Regel: Fragmin 5000/0,2ml wwsp"/>
                  </extension>
                  <code>
                     <text value="Dalterparine ing. 0,5ml=500e"/>
                  </code>
                  <ingredient>
                     <itemCodeableConcept>
                        <coding>
                           <system value="urn:oid:2.16.840.1.113883.2.4.4.7"/>
                           <code value="634123"/>
                           <display value="FRAGMIN   5000 INJVLST 25.000IE/ML WWSP 0,2ML"/>
                        </coding>
                     </itemCodeableConcept>
                     <isActive value="true"/>
                     <amount>
                        <numerator>
                           <value value="0.1"/>
                           <unit value="stuk"/>
                           <system value="2.16.840.1.113883.2.4.4.1.900.2"/>
                           <code value="245"/>
                        </numerator>
                        <denominator>
                           <value value="1"/>
                           <unit value="stuk"/>
                           <system value="2.16.840.1.113883.2.4.4.1.900.2"/>
                           <code value="245"/>
                        </denominator>
                     </amount>
                  </ingredient>
                  <ingredient>
                     <itemCodeableConcept>
                        <coding>
                           <system value="urn:oid:2.16.840.1.113883.2.4.4.8"/>
                           <code value="15739074"/>
                           <display value="OMNIFLUSH NACL 0,9% WWSP 10ML IN 10ML"/>
                        </coding>
                     </itemCodeableConcept>
                     <isActive value="true"/>
                     <amount>
                        <numerator>
                           <value value="0.05"/>
                           <unit value="stuk"/>
                           <system value="2.16.840.1.113883.2.4.4.1.900.2"/>
                           <code value="245"/>
                        </numerator>
                        <denominator>
                           <value value="1"/>
                           <unit value="stuk"/>
                           <system value="2.16.840.1.113883.2.4.4.1.900.2"/>
                           <code value="245"/>
                        </denominator>
                     </amount>
                  </ingredient>
               </Medication>
            </contained>
            <extension url="http://nictiz.nl/fhir/StructureDefinition/zib-Dispense-RequestDate">
               <valueDateTime value="2016-03-03"/>
            </extension>
            <extension url="http://nictiz.nl/fhir/StructureDefinition/zib-Medication-MedicationTreatment">
               <valueIdentifier>
                  <system value="urn:oid:2.16.528.1.1007.3.3.1234567.3"/>
                  <value value="MedBehConverted_mag10"/>
               </valueIdentifier>
            </extension>
            <identifier>
               <system value="urn:oid:2.16.528.1.1007.3.3.1234567.3"/>
               <value value="mag10"/>
            </identifier>
            <category>
               <coding>
                  <system value="http://snomed.info/sct"/>
                  <code value="373784005"/>
                  <display value="Dispensing medication (procedure)"/>
               </coding>
            </category>
            <medicationReference>
               <reference value="#d3e2066"/>
               <display value="Dalterparine ing. 0,5ml=500e"/>
            </medicationReference>
            <!-- Patient -->
            <!-- Possibly not to be included for MedMij related interactions, because patient should be known in infra-context -->
            <subject>
               <identifier>
                  <system value="http://fhir.nl/fhir/NamingSystem/bsn"/>
                  <value value="012345672"/>
               </identifier>
               <display value="J.J. le Noble van Son"/>
            </subject>
            <!-- Responsible dispensing pharmacy -->
            <performer>
               <actor>
                  <identifier>
                     <system value="http://fhir.nl/fhir/NamingSystem/ura"/>
                     <value value="01234567"/>
                  </identifier>
               </actor>
            </performer>
            <quantity>
               <value value="1"/>
               <unit value="Stuk"/>
               <system value="2.16.840.1.113883.2.4.4.1.900.2"/>
               <code value="245"/>
            </quantity>
         </MedicationDispense>
      </resource>
   </entry>
</Bundle>
