<?xml version="1.0" encoding="UTF-8"?>
<?xml-model href="http://hl7.org/fhir/STU3/bundle.sch" type="application/xml" schematypens="http://purl.oclc.org/dsdl/schematron"?>
<Bundle xmlns="http://hl7.org/fhir"
        xmlns:xsi="http://www.w3.org/2001/XMLSchema-instance"
        xsi:schemaLocation="http://hl7.org/fhir http://hl7.org/fhir/STU3/bundle.xsd"><!-- TODO Check Bundle elements -->
   <id value="d3e1"/>
   <type value="searchset"/>
   <total value="1"/>
   <entry>
      <fullUrl value="medbeh_VMA_001_MA01_VV01"/>
      <resource>
         <MedicationRequest>
            <meta>
               <profile value="http://nictiz.nl/fhir/StructureDefinition/zib-DispenseRequest"/>
            </meta>
            <contained><!-- zorgverlener -->
               <Practitioner>
                  <id value="d3e60"/>
                  <!--zorgverlener_identificatie_nummer-->
                  <identifier>
                     <system value="http://fhir.nl/fhir/NamingSystem/uzi-nr-pers"/>
                     <value value="006797896"/>
                  </identifier>
                  <!--naamgegevens-->
                  <name>
                     <extension url="http://hl7.org/fhir/StructureDefinition/humanname-own-prefix">
                        <valueString value="van"/>
                     </extension>
                     <extension url="http://hl7.org/fhir/StructureDefinition/humanname-own-name">
                        <valueString value="Beek"/>
                     </extension>
                     <given value="J.">
                        <extension url="http://hl7.org/fhir/StructureDefinition/iso21090-EN-qualifier">
                           <valueCode value="IN"/>
                        </extension>
                     </given>
                  </name>
               </Practitioner>
            </contained>
            <contained>
               <Organization>
                  <id value="d3e83"/>
                  <identifier>
                     <system value="http://fhir.nl/fhir/NamingSystem/ura"/>
                     <value value="00765332"/>
                  </identifier>
                  <name value="Huisartspraktijk Van Beek"/>
               </Organization>
            </contained>
            <contained>
               <Organization>
                  <id value="d3e122"/>
                  <identifier>
                     <system value="http://fhir.nl/fhir/NamingSystem/ura"/>
                     <value value="22343221"/>
                  </identifier>
                  <name value="Apotheek Boomsma"/>
               </Organization>
            </contained>
            <extension url="http://nictiz.nl/fhir/StructureDefinition/zib-Medication-AdditionalInformation">
               <valueCodeableConcept>
                  <coding>
                     <system value="urn:oid:1.2.3.999"/>
                     <code value="4"/>
                     <display value="aanvullende wensen todo"/>
                  </coding>
               </valueCodeableConcept>
            </extension>
            <extension url="http://nictiz.nl/fhir/StructureDefinition/zib-DispenseRequest-RelatedMedicationAgreement">
               <valueReference>
                  <identifier>
                     <system value="urn:oid:1.2.3.999"/>
                     <value value="MA#2452"/>
                  </identifier>
                  <display value="Relatie naar medicatieafspraak, id = codesysteem: 1.2.3.999, waarde: MA#2452"/>
               </valueReference>
            </extension>
            <extension url="http://nictiz.nl/fhir/StructureDefinition/zib-Medication-MedicationTreatment">
               <valueIdentifier>
                  <value value="medbeh_VMA_001"/>
               </valueIdentifier>
            </extension>
            <identifier>
               <value value="medbeh_VMA_001_MA01_VV01"/>
            </identifier>
            <intent value="order"/>
            <category>
               <coding>
                  <system value="http://snomed.info/sct"/>
                  <code value="52711000146108"/>
                  <display value="Request to dispense medication to patient (situation)"/>
               </coding>
            </category>
            <medicationCodeableConcept>
               <coding>
                  <system value="urn:oid:2.16.840.1.113883.2.4.4.10"/>
                  <code value="123323"/>
                  <display value="AMLODIPINE TABLET 10MG"/>
               </coding>
            </medicationCodeableConcept>
            <!-- Patient -->
            <!-- Possibly not to be included for MedMij related interactions, because patient should be known in infra-context -->
            <subject>
               <identifier>
                  <system value="http://fhir.nl/fhir/NamingSystem/bsn"/>
                  <value value="32456487"/>
               </identifier>
               <display value="Antje de Vries"/>
            </subject>
            <authoredOn value="2016-09-02T09:11:00"/>
            <requester>
               <agent>
                  <reference value="#d3e60"/>
                  <display value="J. van Beek Huisartspraktijk Van Beek"/>
               </agent>
               <onBehalfOf>
                  <reference value="#d3e83"/>
                  <display value="Huisartspraktijk Van Beek"/>
               </onBehalfOf>
            </requester>
            <note>
               <text value="toelichtin bij het vv"/>
            </note>
            <dispenseRequest>
               <extension url="http://nictiz.nl/fhir/StructureDefinition/zib-Dispense-Location">
                  <valueString value="in de bloempot stoppen"/>
               </extension>
               <validityPeriod>
                  <start value="2017-03-06T08:00:00"/>
                  <end value="2018-03-06T08:00:00"/>
               </validityPeriod>
               <numberOfRepeatsAllowed value="1"/>
               <quantity>
                  <value value="90"/>
                  <unit value="Stuk"/>
                  <system value="urn:oid:2.16.840.1.113883.2.4.4.1.900.2"/>
                  <code value="245"/>
               </quantity>
               <expectedSupplyDuration>
                  <value value="3"/>
                  <unit value="dag"/>
                  <system value="http://unitsofmeasure.org"/>
                  <code value="d"/>
               </expectedSupplyDuration>
               <performer>
                  <reference value="#d3e122"/>
                  <display value="Apotheek Boomsma"/>
               </performer>
            </dispenseRequest>
         </MedicationRequest>
      </resource>
   </entry>
</Bundle>
