<?xml-model href="http://hl7.org/fhir/STU3/bundle.sch" type="application/xml" schematypens="http://purl.oclc.org/dsdl/schematron"?><Bundle xmlns="http://hl7.org/fhir"
        xmlns:xsi="http://www.w3.org/2001/XMLSchema-instance"
        xsi:schemaLocation="http://hl7.org/fhir http://hl7.org/fhir/STU3/bundle.xsd">
   <type value="searchset"/>
   <total value="4"/>
   <entry>
      <fullUrl value="urn:uuid:dd91c0e2-fa60-11e9-1594-020000000000"/>
      <resource>
         <AllergyIntolerance>
            <meta>
               <profile value="http://nictiz.nl/fhir/StructureDefinition/mp612-AllergyIntoleranceToFHIRConversion"/>
            </meta>
            <identifier>
               <system value="urn:oid:2.16.840.1.113883.2.4.3.11.999.26.1.1"/>
               <value value="CIO_01_01"/>
            </identifier>
            <clinicalStatus value="active">
               <extension url="http://nictiz.nl/fhir/StructureDefinition/code-specification">
                  <valueCodeableConcept>
                     <coding>
                        <system value="http://hl7.org/fhir/v3/ActStatus"/>
                        <code value="active"/>
                        <display value="Actief"/>
                     </coding>
                  </valueCodeableConcept>
               </extension>
            </clinicalStatus>
            <verificationStatus>
               <extension url="http://hl7.org/fhir/StructureDefinition/data-absent-reason">
                  <valueCode value="unknown"/>
               </extension>
            </verificationStatus>
            <category value="medication">
               <extension url="http://nictiz.nl/fhir/StructureDefinition/code-specification">
                  <valueCodeableConcept>
                     <coding>
                        <system value="http://snomed.info/sct"/>
                        <code value="419511003"/>
                        <display value="Medicijn"/>
                     </coding>
                  </valueCodeableConcept>
               </extension>
            </category>
            <code>
               <coding>
                  <system value="urn:oid:2.16.840.1.113883.2.4.4.7"/>
                  <code value="1127039"/>
                  <display value="AMOXI/CLAV SANDOZ TABLET 500/125MG"/>
               </coding>
            </code>
            <patient>
               <reference value="urn:uuid:dd91b9bd-fa60-11e9-1594-020000000000"/>
               <display value="Maria Christina M. Marieke van XXX_Stalewska"/>
            </patient>
            <onsetDateTime value="2019-09-09"/>
            <assertedDate value="2019-09-29"/>
            <recorder>
               <extension url="http://nictiz.nl/fhir/StructureDefinition/practitionerrole-reference">
                  <valueReference>
                     <reference value="urn:uuid:dd91c0ea-fa60-11e9-1594-020000000000"/>
                     <display value="I.N. ter Nist || Medisch specialisten, inwendige geneeskunde"/>
                  </valueReference>
               </extension>
               <display value="I.N. ter Nist || Medisch specialisten, inwendige geneeskunde"/>
            </recorder>
            <asserter>
               <reference value="urn:uuid:dd91b9bd-fa60-11e9-1594-020000000000"/>
               <display value="Maria Christina M. Marieke van XXX_Stalewska"/>
            </asserter>
            <note>
               <text value="Rode vlekken en jeuk. Geldt alleen voor dit merk."/>
            </note>
         </AllergyIntolerance>
      </resource>
      <search>
         <mode value="match"/>
      </search>
   </entry>
   <entry>
      <fullUrl value="urn:uuid:dd91c0f4-fa60-11e9-1594-020000000000"/>
      <resource>
         <AllergyIntolerance>
            <meta>
               <profile value="http://nictiz.nl/fhir/StructureDefinition/mp612-AllergyIntoleranceToFHIRConversion"/>
            </meta>
            <identifier>
               <system value="urn:oid:2.16.840.1.113883.2.4.3.11.999.26.1.1"/>
               <value value="CIO_01_02"/>
            </identifier>
            <clinicalStatus value="active">
               <extension url="http://nictiz.nl/fhir/StructureDefinition/code-specification">
                  <valueCodeableConcept>
                     <coding>
                        <system value="http://hl7.org/fhir/v3/ActStatus"/>
                        <code value="active"/>
                        <display value="Actief"/>
                     </coding>
                  </valueCodeableConcept>
               </extension>
            </clinicalStatus>
            <verificationStatus>
               <extension url="http://hl7.org/fhir/StructureDefinition/data-absent-reason">
                  <valueCode value="unknown"/>
               </extension>
            </verificationStatus>
            <category value="medication">
               <extension url="http://nictiz.nl/fhir/StructureDefinition/code-specification">
                  <valueCodeableConcept>
                     <coding>
                        <system value="http://snomed.info/sct"/>
                        <code value="419511003"/>
                        <display value="Medicijn"/>
                     </coding>
                  </valueCodeableConcept>
               </extension>
            </category>
            <code>
               <coding>
                  <system value="urn:oid:2.16.840.1.113883.2.4.4.1.750"/>
                  <code value="23167"/>
                  <display value="Amoxicilline"/>
               </coding>
            </code>
            <patient>
               <reference value="urn:uuid:dd91b9bd-fa60-11e9-1594-020000000000"/>
               <display value="Maria Christina M. Marieke van XXX_Stalewska"/>
            </patient>
            <onsetDateTime value="2019-07-21"/>
            <assertedDate value="2019-08-30"/>
            <recorder>
               <extension url="http://nictiz.nl/fhir/StructureDefinition/practitionerrole-reference">
                  <valueReference>
                     <reference value="urn:uuid:dd91c0ea-fa60-11e9-1594-020000000000"/>
                     <display value="I.N. ter Nist || Medisch specialisten, inwendige geneeskunde"/>
                  </valueReference>
               </extension>
               <display value="I.N. ter Nist || Medisch specialisten, inwendige geneeskunde"/>
            </recorder>
            <asserter>
               <extension url="http://nictiz.nl/fhir/StructureDefinition/practitionerrole-reference">
                  <valueReference>
                     <reference value="urn:uuid:dd91c0ea-fa60-11e9-1594-020000000000"/>
                     <display value="I.N. ter Nist || Medisch specialisten, inwendige geneeskunde"/>
                  </valueReference>
               </extension>
               <display value="I.N. ter Nist || Medisch specialisten, inwendige geneeskunde"/>
            </asserter>
            <note>
               <text value="Overgevoeligheid leidt tot paarse vlekjes op de huid en jeuk."/>
            </note>
         </AllergyIntolerance>
      </resource>
      <search>
         <mode value="match"/>
      </search>
   </entry>
   <entry>
      <fullUrl value="urn:uuid:dd91c106-fa60-11e9-1594-020000000000"/>
      <resource>
         <AllergyIntolerance>
            <meta>
               <profile value="http://nictiz.nl/fhir/StructureDefinition/mp612-AllergyIntoleranceToFHIRConversion"/>
            </meta>
            <identifier>
               <system value="urn:oid:2.16.840.1.113883.2.4.3.11.999.26.1.1"/>
               <value value="CIO_01_03"/>
            </identifier>
            <clinicalStatus value="active">
               <extension url="http://nictiz.nl/fhir/StructureDefinition/code-specification">
                  <valueCodeableConcept>
                     <coding>
                        <system value="http://hl7.org/fhir/v3/ActStatus"/>
                        <code value="active"/>
                        <display value="Actief"/>
                     </coding>
                  </valueCodeableConcept>
               </extension>
            </clinicalStatus>
            <verificationStatus>
               <extension url="http://hl7.org/fhir/StructureDefinition/data-absent-reason">
                  <valueCode value="unknown"/>
               </extension>
            </verificationStatus>
            <category value="medication">
               <extension url="http://nictiz.nl/fhir/StructureDefinition/code-specification">
                  <valueCodeableConcept>
                     <coding>
                        <system value="http://snomed.info/sct"/>
                        <code value="419511003"/>
                        <display value="Medicijn"/>
                     </coding>
                  </valueCodeableConcept>
               </extension>
            </category>
            <code>
               <coding>
                  <system value="urn:oid:2.16.840.1.113883.2.4.4.1.725"/>
                  <code value="16322"/>
                  <display value="Amoxicilline oraal"/>
               </coding>
            </code>
            <patient>
               <reference value="urn:uuid:dd91b9bd-fa60-11e9-1594-020000000000"/>
               <display value="Maria Christina M. Marieke van XXX_Stalewska"/>
            </patient>
            <onsetDateTime value="2019-06-01"/>
            <assertedDate value="2019-07-31"/>
            <recorder>
               <extension url="http://nictiz.nl/fhir/StructureDefinition/practitionerrole-reference">
                  <valueReference>
                     <reference value="urn:uuid:dd91c10b-fa60-11e9-1594-020000000000"/>
                     <display value="S. Calpel || Medisch specialisten, chirurgie"/>
                  </valueReference>
               </extension>
               <display value="S. Calpel || Medisch specialisten, chirurgie"/>
            </recorder>
            <asserter>
               <extension url="http://nictiz.nl/fhir/StructureDefinition/practitionerrole-reference">
                  <valueReference>
                     <reference value="urn:uuid:dd91c10b-fa60-11e9-1594-020000000000"/>
                     <display value="S. Calpel || Medisch specialisten, chirurgie"/>
                  </valueReference>
               </extension>
               <display value="S. Calpel || Medisch specialisten, chirurgie"/>
            </asserter>
            <note>
               <text value="Allergie leidt tot jeuk. Geconstateerd tijdens operatie"/>
            </note>
         </AllergyIntolerance>
      </resource>
      <search>
         <mode value="match"/>
      </search>
   </entry>
   <entry>
      <fullUrl value="urn:uuid:dd91c118-fa60-11e9-1594-020000000000"/>
      <resource>
         <AllergyIntolerance>
            <meta>
               <profile value="http://nictiz.nl/fhir/StructureDefinition/mp612-AllergyIntoleranceToFHIRConversion"/>
            </meta>
            <text>
               <status value="additional"/>
               <div xmlns="http://www.w3.org/1999/xhtml">Medicatiegerelateerde allergie/intolerantie voor patiënt Maria Christina van XXX_Stalewska. Status is actief. Begindatum T - 200 dagen.
Informant: Peter van den Herik.
Auteur O. Orthopeed [specialisme: Medisch specialisten, orthopedie].
Datum: T - 120 dagen.
Veroorzakende stof: Penicillines.

</div>
            </text>
            <identifier>
               <system value="urn:oid:2.16.840.1.113883.2.4.3.11.999.26.1.1"/>
               <value value="CIO_01_04"/>
            </identifier>
            <clinicalStatus value="active">
               <extension url="http://nictiz.nl/fhir/StructureDefinition/code-specification">
                  <valueCodeableConcept>
                     <coding>
                        <system value="http://hl7.org/fhir/v3/ActStatus"/>
                        <code value="active"/>
                        <display value="Actief"/>
                     </coding>
                  </valueCodeableConcept>
               </extension>
            </clinicalStatus>
            <verificationStatus>
               <extension url="http://hl7.org/fhir/StructureDefinition/data-absent-reason">
                  <valueCode value="unknown"/>
               </extension>
            </verificationStatus>
            <category value="medication">
               <extension url="http://nictiz.nl/fhir/StructureDefinition/code-specification">
                  <valueCodeableConcept>
                     <coding>
                        <system value="http://snomed.info/sct"/>
                        <code value="419511003"/>
                        <display value="Medicijn"/>
                     </coding>
                  </valueCodeableConcept>
               </extension>
            </category>
            <code>
               <coding>
                  <system value="urn:oid:2.16.840.1.113883.2.4.4.1.902.122"/>
                  <code value="35"/>
                  <display value="Penicillines"/>
               </coding>
            </code>
            <patient>
               <reference value="urn:uuid:dd91b9bd-fa60-11e9-1594-020000000000"/>
               <display value="Maria Christina M. Marieke van XXX_Stalewska"/>
            </patient>
            <onsetDateTime value="2019-04-12"/>
            <assertedDate value="2019-07-01"/>
            <recorder>
               <extension url="http://nictiz.nl/fhir/StructureDefinition/practitionerrole-reference">
                  <valueReference>
                     <reference value="urn:uuid:dd91c120-fa60-11e9-1594-020000000000"/>
                     <display value="O. Orthopeed || Medisch specialisten, orthopedie"/>
                  </valueReference>
               </extension>
               <display value="O. Orthopeed || Medisch specialisten, orthopedie"/>
            </recorder>
            <asserter>
               <reference value="urn:uuid:dd91b9bc-fa60-11e9-1594-020000000000"/>
               <display value="Peter P.J. Peter van den Herik van XXX_Stalewska"/>
            </asserter>
         </AllergyIntolerance>
      </resource>
      <search>
         <mode value="match"/>
      </search>
   </entry>
   <entry>
      <fullUrl value="urn:uuid:dd91b9bd-fa60-11e9-1594-020000000000"/>
      <resource>
         <Patient>
            <meta>
               <profile value="http://fhir.nl/fhir/StructureDefinition/nl-core-patient"/>
            </meta>
            <identifier>
               <system value="http://fhir.nl/fhir/NamingSystem/bsn"/>
               <value value="999911235"/>
            </identifier>
            <name>
               <extension url="http://hl7.org/fhir/StructureDefinition/humanname-assembly-order">
                  <valueCode value="NL1"/>
               </extension>
               <family value="van XXX_Stalewska">
                  <extension url="http://hl7.org/fhir/StructureDefinition/humanname-own-prefix">
                     <valueString value="van"/>
                  </extension>
                  <extension url="http://hl7.org/fhir/StructureDefinition/humanname-own-name">
                     <valueString value="XXX_Stalewska"/>
                  </extension>
               </family>
               <given value="Maria Christina">
                  <extension url="http://hl7.org/fhir/StructureDefinition/iso21090-EN-qualifier">
                     <valueCode value="BR"/>
                  </extension>
               </given>
               <given value="M.">
                  <extension url="http://hl7.org/fhir/StructureDefinition/iso21090-EN-qualifier">
                     <valueCode value="IN"/>
                  </extension>
               </given>
               <given value="Marieke">
                  <extension url="http://hl7.org/fhir/StructureDefinition/iso21090-EN-qualifier">
                     <valueCode value="CL"/>
                  </extension>
               </given>
            </name>
            <telecom>
               <system value="phone">
                  <extension url="http://nictiz.nl/fhir/StructureDefinition/code-specification">
                     <valueCodeableConcept>
                        <coding>
                           <system value="http://hl7.org/fhir/v3/AddressUse"/>
                           <code value="MC"/>
                           <display value="Mobiel telefoonnummer"/>
                        </coding>
                     </valueCodeableConcept>
                  </extension>
               </system>
               <value value="06-12345678"/>
               <use value="mobile">
                  <extension url="http://nictiz.nl/fhir/StructureDefinition/code-specification">
                     <valueCodeableConcept>
                        <coding>
                           <system value="http://hl7.org/fhir/v3/AddressUse"/>
                           <code value="TMP"/>
                           <display value="Tijdelijk telefoonnummer"/>
                        </coding>
                     </valueCodeableConcept>
                  </extension>
               </use>
            </telecom>
            <telecom>
               <system value="email"/>
               <value value="XXX_Stalewska@123mail.com"/>
               <use value="home">
                  <extension url="http://nictiz.nl/fhir/StructureDefinition/code-specification">
                     <valueCodeableConcept>
                        <coding>
                           <system value="http://hl7.org/fhir/v3/AddressUse"/>
                           <code value="HP"/>
                           <display value="Privé e-mailadres"/>
                        </coding>
                     </valueCodeableConcept>
                  </extension>
               </use>
            </telecom>
            <gender value="female"/>
            <birthDate value="1964-08-01"/>
            <address>
               <use value="home">
                  <extension url="http://hl7.org/fhir/StructureDefinition/iso21090-AD-use">
                     <valueCode value="PHYS"/>
                  </extension>
               </use>
               <type value="physical"/>
               <line value="Knolweg 1001 b">
                  <extension url="http://hl7.org/fhir/StructureDefinition/iso21090-ADXP-streetName">
                     <valueString value="Knolweg"/>
                  </extension>
                  <extension url="http://hl7.org/fhir/StructureDefinition/iso21090-ADXP-houseNumber">
                     <valueString value="1001"/>
                  </extension>
                  <extension url="http://hl7.org/fhir/StructureDefinition/iso21090-ADXP-buildingNumberSuffix">
                     <valueString value="b"/>
                  </extension>
               </line>
               <city value="Stitswerd"/>
               <district value="Het Hogeland"/>
               <postalCode value="9999 XX"/>
            </address>
         </Patient>
      </resource>
      <search>
         <mode value="include"/>
      </search>
   </entry>
   <entry>
      <fullUrl value="urn:oid:2.16.528.1.1007.3.1.111111111"/>
      <resource>
         <Practitioner>
            <meta>
               <profile value="http://fhir.nl/fhir/StructureDefinition/nl-core-practitioner"/>
            </meta>
            <identifier>
               <system value="http://fhir.nl/fhir/NamingSystem/uzi-nr-pers"/>
               <value value="111111111"/>
            </identifier>
            <name>
               <extension url="http://hl7.org/fhir/StructureDefinition/humanname-assembly-order">
                  <valueCode value="NL1"/>
               </extension>
               <family value="ter Nist">
                  <extension url="http://hl7.org/fhir/StructureDefinition/humanname-own-prefix">
                     <valueString value="ter"/>
                  </extension>
                  <extension url="http://hl7.org/fhir/StructureDefinition/humanname-own-name">
                     <valueString value="Nist"/>
                  </extension>
               </family>
               <given value="I.N.">
                  <extension url="http://hl7.org/fhir/StructureDefinition/iso21090-EN-qualifier">
                     <valueCode value="IN"/>
                  </extension>
               </given>
            </name>
         </Practitioner>
      </resource>
      <search>
         <mode value="include"/>
      </search>
   </entry>
   <entry>
      <fullUrl value="urn:oid:2.16.528.1.1007.3.1.222222222"/>
      <resource>
         <Practitioner>
            <meta>
               <profile value="http://fhir.nl/fhir/StructureDefinition/nl-core-practitioner"/>
            </meta>
            <identifier>
               <system value="http://fhir.nl/fhir/NamingSystem/uzi-nr-pers"/>
               <value value="222222222"/>
            </identifier>
            <name>
               <extension url="http://hl7.org/fhir/StructureDefinition/humanname-assembly-order">
                  <valueCode value="NL1"/>
               </extension>
               <family value="Orthopeed">
                  <extension url="http://hl7.org/fhir/StructureDefinition/humanname-own-name">
                     <valueString value="Orthopeed"/>
                  </extension>
               </family>
               <given value="O.">
                  <extension url="http://hl7.org/fhir/StructureDefinition/iso21090-EN-qualifier">
                     <valueCode value="IN"/>
                  </extension>
               </given>
            </name>
         </Practitioner>
      </resource>
      <search>
         <mode value="include"/>
      </search>
   </entry>
   <entry>
      <fullUrl value="urn:oid:2.16.528.1.1007.3.1.333333333"/>
      <resource>
         <Practitioner>
            <meta>
               <profile value="http://fhir.nl/fhir/StructureDefinition/nl-core-practitioner"/>
            </meta>
            <identifier>
               <system value="http://fhir.nl/fhir/NamingSystem/uzi-nr-pers"/>
               <value value="333333333"/>
            </identifier>
            <name>
               <extension url="http://hl7.org/fhir/StructureDefinition/humanname-assembly-order">
                  <valueCode value="NL1"/>
               </extension>
               <family value="Calpel">
                  <extension url="http://hl7.org/fhir/StructureDefinition/humanname-own-name">
                     <valueString value="Calpel"/>
                  </extension>
               </family>
               <given value="S.">
                  <extension url="http://hl7.org/fhir/StructureDefinition/iso21090-EN-qualifier">
                     <valueCode value="IN"/>
                  </extension>
               </given>
            </name>
         </Practitioner>
      </resource>
      <search>
         <mode value="include"/>
      </search>
   </entry>
   <entry>
      <fullUrl value="urn:oid:2.16.840.1.113883.2.4.6.1.3999999"/>
      <resource>
         <Organization>
            <meta>
               <profile value="http://fhir.nl/fhir/StructureDefinition/nl-core-organization"/>
            </meta>
            <identifier>
               <system value="http://fhir.nl/fhir/NamingSystem/agb-z"/>
               <value value="03999999"/>
            </identifier>
            <type>
               <coding>
                  <system value="urn:oid:2.16.840.1.113883.2.4.15.1060"/>
                  <code value="Z4"/>
                  <display value="Zelfstandig behandelcentrum"/>
               </coding>
            </type>
            <name value="Test Medisch Centrum"/>
            <telecom>
               <system value="phone">
                  <extension url="http://nictiz.nl/fhir/StructureDefinition/code-specification">
                     <valueCodeableConcept>
                        <coding>
                           <system value="urn:oid:2.16.840.1.113883.2.4.3.11.60.40.4.22.1"/>
                           <code value="LL"/>
                           <display value="Vast telefoonnummer"/>
                        </coding>
                     </valueCodeableConcept>
                  </extension>
               </system>
               <value value="0800-987654"/>
               <use value="work">
                  <extension url="http://nictiz.nl/fhir/StructureDefinition/code-specification">
                     <valueCodeableConcept>
                        <coding>
                           <system value="http://hl7.org/fhir/v3/AddressUse"/>
                           <code value="WP"/>
                           <display value="Zakelijk telefoonnummer"/>
                        </coding>
                     </valueCodeableConcept>
                  </extension>
               </use>
            </telecom>
            <telecom>
               <system value="email"/>
               <value value="info@testmedischcentrum.nl"/>
               <use value="work">
                  <extension url="http://nictiz.nl/fhir/StructureDefinition/code-specification">
                     <valueCodeableConcept>
                        <coding>
                           <system value="http://hl7.org/fhir/v3/AddressUse"/>
                           <code value="WP"/>
                           <display value="Zakelijk e-mailadres"/>
                        </coding>
                     </valueCodeableConcept>
                  </extension>
               </use>
            </telecom>
            <address>
               <use value="work"/>
               <line value="Valkendael 45">
                  <extension url="http://hl7.org/fhir/StructureDefinition/iso21090-ADXP-streetName">
                     <valueString value="Valkendael"/>
                  </extension>
                  <extension url="http://hl7.org/fhir/StructureDefinition/iso21090-ADXP-houseNumber">
                     <valueString value="45"/>
                  </extension>
               </line>
               <city value="Maastricht"/>
               <postalCode value="6245 HK"/>
            </address>
         </Organization>
      </resource>
      <search>
         <mode value="include"/>
      </search>
   </entry>
   <entry>
      <fullUrl value="urn:uuid:dd91c0ea-fa60-11e9-1594-020000000000"/>
      <resource>
         <PractitionerRole>
            <meta>
               <profile value="http://fhir.nl/fhir/StructureDefinition/nl-core-practitionerrole"/>
            </meta>
            <practitioner>
               <reference value="urn:oid:2.16.528.1.1007.3.1.111111111"/>
               <display value="I.N. ter Nist"/>
            </practitioner>
            <organization>
               <reference value="urn:oid:2.16.840.1.113883.2.4.6.1.3999999"/>
               <display value="Test Medisch Centrum"/>
            </organization>
            <specialty>
               <coding>
                  <system value="urn:oid:2.16.840.1.113883.2.4.6.7"/>
                  <code value="0313"/>
                  <display value="Medisch specialisten, inwendige geneeskunde"/>
               </coding>
            </specialty>
         </PractitionerRole>
      </resource>
      <search>
         <mode value="include"/>
      </search>
   </entry>
   <entry>
      <fullUrl value="urn:uuid:dd91c120-fa60-11e9-1594-020000000000"/>
      <resource>
         <PractitionerRole>
            <meta>
               <profile value="http://fhir.nl/fhir/StructureDefinition/nl-core-practitionerrole"/>
            </meta>
            <practitioner>
               <reference value="urn:oid:2.16.528.1.1007.3.1.222222222"/>
               <display value="O. Orthopeed"/>
            </practitioner>
            <organization>
               <reference value="urn:oid:2.16.840.1.113883.2.4.6.1.3999999"/>
               <display value="Test Medisch Centrum"/>
            </organization>
            <specialty>
               <coding>
                  <system value="urn:oid:2.16.840.1.113883.2.4.6.7"/>
                  <code value="0305"/>
                  <display value="Medisch specialisten, orthopedie"/>
               </coding>
            </specialty>
         </PractitionerRole>
      </resource>
      <search>
         <mode value="include"/>
      </search>
   </entry>
   <entry>
      <fullUrl value="urn:uuid:dd91c10b-fa60-11e9-1594-020000000000"/>
      <resource>
         <PractitionerRole>
            <meta>
               <profile value="http://fhir.nl/fhir/StructureDefinition/nl-core-practitionerrole"/>
            </meta>
            <practitioner>
               <reference value="urn:oid:2.16.528.1.1007.3.1.333333333"/>
               <display value="S. Calpel"/>
            </practitioner>
            <organization>
               <reference value="urn:oid:2.16.840.1.113883.2.4.6.1.3999999"/>
               <display value="Test Medisch Centrum"/>
            </organization>
            <specialty>
               <coding>
                  <system value="urn:oid:2.16.840.1.113883.2.4.6.7"/>
                  <code value="0303"/>
                  <display value="Medisch specialisten, chirurgie"/>
               </coding>
            </specialty>
         </PractitionerRole>
      </resource>
      <search>
         <mode value="include"/>
      </search>
   </entry>
   <entry>
      <fullUrl value="urn:uuid:dd91b9bc-fa60-11e9-1594-020000000000"/>
      <resource>
         <RelatedPerson>
            <meta>
               <profile value="http://fhir.nl/fhir/StructureDefinition/nl-core-relatedperson"/>
            </meta>
            <extension url="http://fhir.nl/fhir/StructureDefinition/nl-core-relatedperson-role">
               <valueCodeableConcept>
                  <coding>
                     <system value="urn:oid:2.16.840.1.113883.2.4.3.11.22.472"/>
                     <code value="1"/>
                     <display value="Eerste relatie/contactpersoon"/>
                  </coding>
               </valueCodeableConcept>
            </extension>
            <patient>
               <reference value="urn:uuid:dd91b9bd-fa60-11e9-1594-020000000000"/>
               <display value="Maria Christina M. Marieke van XXX_Stalewska"/>
            </patient>
            <relationship>
               <coding>
                  <system value="http://hl7.org/fhir/v3/RoleCode"/>
                  <code value="HUSB"/>
                  <display value="Echtgenoot"/>
               </coding>
            </relationship>
            <name>
               <extension url="http://hl7.org/fhir/StructureDefinition/humanname-assembly-order">
                  <valueCode value="NL1"/>
               </extension>
               <family value="van den Herik">
                  <extension url="http://hl7.org/fhir/StructureDefinition/humanname-own-prefix">
                     <valueString value="van den"/>
                  </extension>
                  <extension url="http://hl7.org/fhir/StructureDefinition/humanname-own-name">
                     <valueString value="Herik"/>
                  </extension>
                  <extension url="http://hl7.org/fhir/StructureDefinition/humanname-partner-prefix">
                     <valueString value="van"/>
                  </extension>
                  <extension url="http://hl7.org/fhir/StructureDefinition/humanname-partner-name">
                     <valueString value="XXX_Stalewska"/>
                  </extension>
               </family>
               <given value="Peter">
                  <extension url="http://hl7.org/fhir/StructureDefinition/iso21090-EN-qualifier">
                     <valueCode value="BR"/>
                  </extension>
               </given>
               <given value="P.J.">
                  <extension url="http://hl7.org/fhir/StructureDefinition/iso21090-EN-qualifier">
                     <valueCode value="IN"/>
                  </extension>
               </given>
               <given value="Peter">
                  <extension url="http://hl7.org/fhir/StructureDefinition/iso21090-EN-qualifier">
                     <valueCode value="CL"/>
                  </extension>
               </given>
            </name>
            <telecom>
               <system value="phone">
                  <extension url="http://nictiz.nl/fhir/StructureDefinition/code-specification">
                     <valueCodeableConcept>
                        <coding>
                           <system value="http://hl7.org/fhir/v3/AddressUse"/>
                           <code value="MC"/>
                           <display value="Mobiel telefoonnummer"/>
                        </coding>
                     </valueCodeableConcept>
                  </extension>
               </system>
               <value value="06-12345670"/>
               <use value="mobile">
                  <extension url="http://nictiz.nl/fhir/StructureDefinition/code-specification">
                     <valueCodeableConcept>
                        <coding>
                           <system value="http://hl7.org/fhir/v3/AddressUse"/>
                           <code value="WP"/>
                           <display value="Zakelijk telefoonnummer"/>
                        </coding>
                     </valueCodeableConcept>
                  </extension>
               </use>
            </telecom>
            <telecom>
               <system value="email"/>
               <value value="pjvandenherik123@hotmail.com"/>
               <use value="home">
                  <extension url="http://nictiz.nl/fhir/StructureDefinition/code-specification">
                     <valueCodeableConcept>
                        <coding>
                           <system value="http://hl7.org/fhir/v3/AddressUse"/>
                           <code value="HP"/>
                           <display value="Privé e-mailadres"/>
                        </coding>
                     </valueCodeableConcept>
                  </extension>
               </use>
            </telecom>
            <address>
               <use value="home">
                  <extension url="http://hl7.org/fhir/StructureDefinition/iso21090-AD-use">
                     <valueCode value="PHYS"/>
                  </extension>
               </use>
               <type value="physical"/>
               <line value="Knolweg 1001 b">
                  <extension url="http://hl7.org/fhir/StructureDefinition/iso21090-ADXP-streetName">
                     <valueString value="Knolweg"/>
                  </extension>
                  <extension url="http://hl7.org/fhir/StructureDefinition/iso21090-ADXP-houseNumber">
                     <valueString value="1001"/>
                  </extension>
                  <extension url="http://hl7.org/fhir/StructureDefinition/iso21090-ADXP-buildingNumberSuffix">
                     <valueString value="b"/>
                  </extension>
               </line>
               <city value="Stitswerd"/>
               <postalCode value="9999 XX"/>
            </address>
         </RelatedPerson>
      </resource>
      <search>
         <mode value="include"/>
      </search>
   </entry>
</Bundle>
