<Bundle xmlns="http://hl7.org/fhir">
   <id value="lr-blr-TEST-l2z-8POCT-3KCLOINC"/>
   <type value="transaction"/>
   <entry>
      <fullUrl value="urn:uuid:3b212877-8d71-11f0-1094-020000000000"/>
      <resource>
         <Observation>
            <meta>
               <profile value="http://nictiz.nl/fhir/StructureDefinition/nl-core-LaboratoryTestResult"/>
            </meta>
            <extension url="http://nictiz.nl/fhir/StructureDefinition/ext-CopyIndicator">
               <valueBoolean value="true"/>
            </extension>
            <extension url="http://nictiz.nl/fhir/StructureDefinition/ext-EdifactReferenceNumber">
               <valueString value="111333"/>
            </extension>
            <identifier>
               <system value="urn:oid:2.16.840.1.113883.2.4.3.11.999.25.4298.1"/>
               <value value="23568"/>
            </identifier>
            <status value="final"/>
            <category>
               <coding>
                  <system value="http://terminology.hl7.org/CodeSystem/observation-category"/>
                  <code value="laboratory"/>
                  <display value="Laboratory"/>
               </coding>
            </category>
            <code>
               <coding>
                  <system value="http://loinc.org"/>
                  <code value="6301-6"/>
                  <display value="PT-INR [relatieve tijd] in plaatjesarm plasma d.m.v. stollingsmethode"/>
               </coding>
            </code>
            <performer>
               <reference value="urn:uuid:3b21284f-8d71-11f0-1094-020000000000"/>
               <type value="Organization"/>
               <display value="Healthcare provider (organization), Trombosedienst Ons Dorp"/>
            </performer>
            <valueQuantity>
               <value value="2.9"/>
               <unit value="{INR}"/>
               <system value="http://unitsofmeasure.org"/>
               <code value="{INR}"/>
            </valueQuantity>
            <interpretation>
               <text value="Hoog!"/>
            </interpretation>
            <specimen>
               <reference value="urn:uuid:3b21289f-8d71-11f0-1094-020000000000"/>
               <type value="Specimen"/>
               <display value="monster"/>
            </specimen>
            <referenceRange>
               <low>
                  <value value="0.9"/>
                  <unit value="{INR}"/>
                  <system value="http://unitsofmeasure.org"/>
                  <code value="{INR}"/>
               </low>
               <high>
                  <value value="1.1"/>
                  <unit value="{INR}"/>
                  <system value="http://unitsofmeasure.org"/>
                  <code value="{INR}"/>
               </high>
            </referenceRange>
            <component>
               <code>
                  <coding>
                     <system value="http://snomed.info/sct"/>
                     <code value="405262001"/>
                     <display value="point-of-care testing (verrichting)"/>
                  </coding>
               </code>
               <valueBoolean value="true"/>
            </component>
         </Observation>
      </resource>
      <request>
         <method value="POST"/>
         <url value="Observation"/>
      </request>
   </entry>
   <entry>
      <fullUrl value="urn:uuid:3b21289f-8d71-11f0-1094-020000000000"/>
      <resource>
         <Specimen>
            <meta>
               <profile value="http://nictiz.nl/fhir/StructureDefinition/nl-core-LaboratoryTestResult.Specimen"/>
            </meta>
            <identifier>
               <system value="urn:oid:2.16.840.1.113883.2.4.3.11.999.25.4267.1"/>
               <value value="#1"/>
            </identifier>
            <type>
               <coding>
                  <system value="http://snomed.info/sct"/>
                  <code value="87612001"/>
                  <display value="Bloed"/>
               </coding>
            </type>
         </Specimen>
      </resource>
      <request>
         <method value="POST"/>
         <url value="Specimen"/>
      </request>
   </entry>
   <entry>
      <fullUrl value="urn:uuid:3b21284f-8d71-11f0-1094-020000000000"/>
      <resource>
         <Organization>
            <meta>
               <profile value="http://nictiz.nl/fhir/StructureDefinition/nl-core-HealthcareProvider-Organization"/>
            </meta>
            <identifier>
               <system value="http://fhir.nl/fhir/NamingSystem/ura"/>
               <value value="11112222"/>
            </identifier>
            <type>
               <coding>
                  <system value="http://nictiz.nl/fhir/NamingSystem/organization-type"/>
                  <version value="2023-04-14T00:00:00"/>
                  <code value="TD"/>
                  <display value="Trombosedienst"/>
               </coding>
            </type>
            <name value="Trombosedienst Ons Dorp"/>
            <telecom>
               <system value="phone"/>
               <value value="06-11122266"/>
            </telecom>
            <address>
               <line value="Kerkstraat 28 d">
                  <extension url="http://hl7.org/fhir/StructureDefinition/iso21090-ADXP-streetName">
                     <valueString value="Kerkstraat"/>
                  </extension>
                  <extension url="http://hl7.org/fhir/StructureDefinition/iso21090-ADXP-houseNumber">
                     <valueString value="28"/>
                  </extension>
                  <extension url="http://hl7.org/fhir/StructureDefinition/iso21090-ADXP-buildingNumberSuffix">
                     <valueString value="d"/>
                  </extension>
               </line>
               <city value="Ons Dorp"/>
               <postalCode value="1332GH"/>
            </address>
         </Organization>
      </resource>
      <request>
         <method value="POST"/>
         <url value="Organization"/>
      </request>
   </entry>
   <entry>
      <fullUrl value="urn:uuid:3b212827-8d71-11f0-1094-020000000000"/>
      <resource>
         <Organization>
            <meta>
               <profile value="http://nictiz.nl/fhir/StructureDefinition/nl-core-HealthcareProvider-Organization"/>
            </meta>
            <identifier>
               <system value="http://fhir.nl/fhir/NamingSystem/ura"/>
               <value value="00001111"/>
            </identifier>
            <type>
               <coding>
                  <system value="http://nictiz.nl/fhir/NamingSystem/organization-type"/>
                  <version value="2023-04-14T00:00:00"/>
                  <code value="Z3"/>
                  <display value="Huisartspraktijk (zelfstandig of groepspraktijk)"/>
               </coding>
            </type>
            <name value="Huisartsenpraktijk Pulver &amp; Partners"/>
            <telecom>
               <system value="phone"/>
               <value value="099-12345678"/>
            </telecom>
         </Organization>
      </resource>
      <request>
         <method value="POST"/>
         <url value="Organization"/>
      </request>
   </entry>
</Bundle>