<Bundle xmlns="http://hl7.org/fhir">
   <id value="lr-blr-TEST-l2z-1Maximaal-bericht-3KCLOINC"/>
   <type value="transaction"/>
   <entry>
      <fullUrl value="urn:uuid:e2a26051-7917-11f0-8320-020000000000"/>
      <resource>
         <Observation>
            <meta>
               <profile value="http://nictiz.nl/fhir/StructureDefinition/nl-core-LaboratoryTestResult"/>
            </meta>
            <extension url="http://nictiz.nl/fhir/StructureDefinition/ext-CopyIndicator">
               <valueBoolean value="true"/>
            </extension>
            <extension url="http://nictiz.nl/fhir/StructureDefinition/ext-EdifactReferenceNumber">
               <valueString value="111666"/>
            </extension>
            <identifier>
               <system value="urn:oid:2.16.840.1.113883.2.4.3.11.999.25.4298.2"/>
               <value value="88888"/>
            </identifier>
            <status value="final"/>
            <category>
               <coding>
                  <system value="http://terminology.hl7.org/CodeSystem/observation-category"/>
                  <code value="laboratory"/>
                  <display value="Laboratory"/>
               </coding>
            </category>
            <code>
               <coding>
                  <system value="http://loinc.org"/>
                  <code value="2829-0"/>
               </coding>
            </code>
            <subject>
               <reference value="urn:uuid:e2a25fed-7917-11f0-8320-020000000000"/>
               <type value="Patient"/>
               <display value="Patient, E. Erelies"/>
            </subject>
            <effectiveDateTime value="${DATE, T, D, -10}"/>
            <performer>
               <reference value="urn:uuid:e2a26029-7917-11f0-8320-020000000000"/>
               <type value="Organization"/>
               <display value="Healthcare provider (organization), Klinisch chemisch Lab 't Proefje"/>
            </performer>
            <valueQuantity>
               <value value="30"/>
               <unit value="mmol/(24.h)"/>
               <system value="http://unitsofmeasure.org"/>
               <code value="mmol/(24.h)"/>
            </valueQuantity>
            <interpretation>
               <text value="Lager dan referentiebereik."/>
            </interpretation>
            <note>
               <text value="Onderzoek voltooid"/>
            </note>
            <specimen>
               <reference value="urn:uuid:e2a26079-7917-11f0-8320-020000000000"/>
               <type value="Specimen"/>
               <display value="monster"/>
            </specimen>
            <referenceRange>
               <low>
                  <value value="40"/>
                  <unit value="mmol/(24.h)"/>
                  <system value="http://unitsofmeasure.org"/>
                  <code value="mmol/(24.h)"/>
               </low>
               <high>
                  <value value="60"/>
                  <unit value="mmol/(24.h)"/>
                  <system value="http://unitsofmeasure.org"/>
                  <code value="mmol/(24.h)"/>
               </high>
            </referenceRange>
         </Observation>
      </resource>
      <request>
         <method value="POST"/>
         <url value="Observation"/>
      </request>
   </entry>
   <entry>
      <fullUrl value="urn:uuid:e2a26079-7917-11f0-8320-020000000000"/>
      <resource>
         <Specimen>
            <meta>
               <profile value="http://nictiz.nl/fhir/StructureDefinition/nl-core-LaboratoryTestResult.Specimen"/>
            </meta>
            <identifier>
               <system value="urn:oid:2.16.840.1.113883.2.4.3.11.999.25.4267.2"/>
               <value value="335"/>
            </identifier>
            <type>
               <coding>
                  <system value="http://snomed.info/sct"/>
                  <code value="276833005"/>
                  <display value="24-uursurine"/>
               </coding>
            </type>
            <subject>
               <reference value="urn:uuid:e2a25fed-7917-11f0-8320-020000000000"/>
               <type value="Patient"/>
               <display value="Patient, E. Erelies"/>
            </subject>
            <receivedTime value="${DATE, T, D, -9}"/>
            <collection>
               <collectedDateTime value="${DATE, T, D, -10}"/>
               <collectedPeriod>
                  <start value="${DATE, T, D, -10}"/>
                  <end value="${DATE, T, D, -9}"/>
               </collectedPeriod>
               <duration>
                  <value value="24"/>
                  <unit value="H"/>
                  <system value="http://unitsofmeasure.org"/>
                  <code value="H"/>
               </duration>
               <quantity>
                  <value value="1.75"/>
                  <unit value="L"/>
                  <system value="http://unitsofmeasure.org"/>
                  <code value="L"/>
               </quantity>
               <method>
                  <coding>
                     <system value="http://snomed.info/sct"/>
                     <code value="2475000"/>
                     <display value="verzamelen van 24-uursurine"/>
                  </coding>
               </method>
            </collection>
            <container>
               <extension url="http://hl7.org/fhir/StructureDefinition/specimen-sequenceNumber">
                  <valueInteger value="2"/>
               </extension>
               <type>
                  <coding>
                     <system value="http://snomed.info/sct"/>
                     <code value="706055000"/>
                     <display value="container voor 24-uursurine"/>
                  </coding>
               </type>
            </container>
            <note>
               <text value="Monster is door patiënt zelf verzameld en ingeleverd."/>
            </note>
         </Specimen>
      </resource>
      <request>
         <method value="POST"/>
         <url value="Specimen"/>
      </request>
   </entry>
   <entry>
      <fullUrl value="urn:uuid:e2a26029-7917-11f0-8320-020000000000"/>
      <resource>
         <Organization>
            <meta>
               <profile value="http://nictiz.nl/fhir/StructureDefinition/nl-core-HealthcareProvider-Organization"/>
            </meta>
            <identifier>
               <system value="http://fhir.nl/fhir/NamingSystem/ura"/>
               <value value="00003333"/>
            </identifier>
            <type>
               <coding>
                  <system value="http://nictiz.nl/fhir/NamingSystem/organization-type"/>
                  <version value="2023-04-14T00:00:00"/>
                  <code value="L1"/>
                  <display value="Laboratorium"/>
               </coding>
            </type>
            <name value="Klinisch chemisch Lab 't Proefje"/>
            <telecom>
               <extension url="http://nictiz.nl/fhir/StructureDefinition/ext-Comment">
                  <valueString value="Bel met vragen"/>
               </extension>
               <system value="phone"/>
               <value value="06-11122233"/>
               <use value="work"/>
            </telecom>
            <telecom>
               <system value="email"/>
               <value value="tproefje@lab.nl"/>
               <use value="work"/>
            </telecom>
            <address>
               <extension url="http://nictiz.nl/fhir/StructureDefinition/ext-AddressInformation.AddressType">
                  <valueCodeableConcept>
                     <coding>
                        <system value="http://terminology.hl7.org/CodeSystem/v3-AddressUse"/>
                        <code value="WP"/>
                        <display value="Werkadres"/>
                     </coding>
                  </valueCodeableConcept>
               </extension>
               <use value="work"/>
               <line value="Hoofdstraat 23">
                  <extension url="http://hl7.org/fhir/StructureDefinition/iso21090-ADXP-streetName">
                     <valueString value="Hoofdstraat"/>
                  </extension>
                  <extension url="http://hl7.org/fhir/StructureDefinition/iso21090-ADXP-houseNumber">
                     <valueString value="23"/>
                  </extension>
               </line>
               <city value="Zorgstad"/>
               <postalCode value="1234AA"/>
               <country value="Nederland">
                  <extension url="http://nictiz.nl/fhir/StructureDefinition/ext-CodeSpecification">
                     <valueCodeableConcept>
                        <coding>
                           <system value="urn:iso:std:iso:3166"/>
                           <version value="2020-10-26T00:00:00"/>
                           <code value="NL"/>
                           <display value="Nederland"/>
                        </coding>
                     </valueCodeableConcept>
                  </extension>
               </country>
            </address>
         </Organization>
      </resource>
      <request>
         <method value="POST"/>
         <url value="Organization"/>
      </request>
   </entry>
   <entry>
      <fullUrl value="urn:uuid:e2a25fed-7917-11f0-8320-020000000000"/>
      <resource>
         <Patient>
            <meta>
               <profile value="http://nictiz.nl/fhir/StructureDefinition/nl-core-Patient"/>
            </meta>
            <identifier>
               <system value="http://fhir.nl/fhir/NamingSystem/bsn"/>
               <value value="999999511"/>
            </identifier>
            <name>
               <use value="official"/>
               <text value="E. Erelies"/>
               <family value="Erelies">
                  <extension url="http://hl7.org/fhir/StructureDefinition/humanname-own-name">
                     <valueString value="Erelies"/>
                  </extension>
               </family>
               <given value="E.">
                  <extension url="http://hl7.org/fhir/StructureDefinition/iso21090-EN-qualifier">
                     <valueCode value="IN"/>
                  </extension>
               </given>
            </name>
            <gender value="male">
               <extension url="http://nictiz.nl/fhir/StructureDefinition/ext-CodeSpecification">
                  <valueCodeableConcept>
                     <coding>
                        <system value="http://terminology.hl7.org/CodeSystem/v3-AdministrativeGender"/>
                        <code value="M"/>
                        <display value="Man"/>
                     </coding>
                  </valueCodeableConcept>
               </extension>
            </gender>
            <birthDate value="1963-10-24"/>
         </Patient>
      </resource>
      <request>
         <method value="POST"/>
         <url value="Patient"/>
      </request>
   </entry>
</Bundle>