<Bundle xmlns="http://hl7.org/fhir">
   <id value="lr-blr-TEST-l2z-MOAB-MedicatieOverdrachtAanvullendeBeproeving"/>
   <type value="transaction"/>
   <entry>
      <fullUrl value="urn:uuid:c03963f6-c538-11f0-3929-020000000000"/>
      <resource>
         <Observation>
            <id value="c0396c36-c538-11f0-3929-020000000000"/>
            <meta>
               <profile value="http://nictiz.nl/fhir/StructureDefinition/nl-core-LaboratoryTestResult"/>
            </meta>
            <identifier>
               <system value="urn:oid:2.16.840.1.113883.2.4.3.11.999.25.4298.2"/>
               <value value="99991"/>
            </identifier>
            <status value="final"/>
            <category>
               <coding>
                  <system value="http://terminology.hl7.org/CodeSystem/observation-category"/>
                  <code value="laboratory"/>
                  <display value="Laboratory"/>
               </coding>
            </category>
            <code>
               <coding>
                  <system value="http://loinc.org"/>
                  <code value="46418-0"/>
                  <display value="PT-INR [relatieve tijd] in capillair bloed d.m.v. stollingsmethode"/>
               </coding>
            </code>
            <subject>
               <reference value="urn:uuid:c03963ba-c538-11f0-3929-020000000000"/>
               <type value="Patient"/>
               <display value="Patient, E. XXX_Doppen"/>
            </subject>
            <effectiveDateTime value="${DATE, T, Y, -3}"/>
            <performer>
               <reference value="urn:uuid:c03963ce-c538-11f0-3929-020000000000"/>
               <type value="Organization"/>
               <display value="Healthcare provider (organization), Klinisch chemisch Lab 't Proefje"/>
            </performer>
            <valueQuantity>
               <value value="2.7"/>
               <unit value="[{NR}"/>
               <system value="http://unitsofmeasure.org"/>
               <code value="{[{NR}}"/>
            </valueQuantity>
            <interpretation>
               <coding>
                  <system value="http://snomed.info/sct"/>
                  <code value="11896004"/>
                  <display value="intermediair"/>
               </coding>
               <coding>
                  <system value="http://terminology.hl7.org/CodeSystem/v3-ObservationInterpretation"/>
                  <code value="I"/>
                  <display value="Intermediate"/>
               </coding>
            </interpretation>
            <interpretation>
               <text value="Geen afwijkingen"/>
            </interpretation>
            <specimen>
               <reference value="urn:uuid:c03964be-c538-11f0-3929-020000000000"/>
               <type value="Specimen"/>
               <display value="monster"/>
            </specimen>
            <referenceRange>
               <low>
                  <value value="2.0"/>
                  <unit value="{INR}"/>
                  <system value="http://unitsofmeasure.org"/>
                  <code value="{INR}"/>
               </low>
               <high>
                  <value value="3.0"/>
                  <unit value="{INR}"/>
                  <system value="http://unitsofmeasure.org"/>
                  <code value="{INR}"/>
               </high>
            </referenceRange>
         </Observation>
      </resource>
      <request>
         <method value="POST"/>
         <url value="Observation"/>
      </request>
   </entry>
   <entry>
      <fullUrl value="urn:uuid:c039640a-c538-11f0-3929-020000000000"/>
      <resource>
         <Observation>
            <id value="c03972d7-c538-11f0-3929-020000000000"/>
            <meta>
               <profile value="http://nictiz.nl/fhir/StructureDefinition/nl-core-LaboratoryTestResult"/>
            </meta>
            <identifier>
               <system value="urn:oid:2.16.840.1.113883.2.4.3.11.999.25.4298.2"/>
               <value value="99992"/>
            </identifier>
            <status value="final"/>
            <category>
               <coding>
                  <system value="http://terminology.hl7.org/CodeSystem/observation-category"/>
                  <code value="laboratory"/>
                  <display value="Laboratory"/>
               </coding>
            </category>
            <code>
               <coding>
                  <system value="http://loinc.org"/>
                  <code value="3016-3"/>
                  <display value="TSH [eenheid/volume] in serum of plasma"/>
               </coding>
            </code>
            <subject>
               <reference value="urn:uuid:c03963ba-c538-11f0-3929-020000000000"/>
               <type value="Patient"/>
               <display value="Patient, E. XXX_Doppen"/>
            </subject>
            <effectiveDateTime value="${DATE, T, M, -12}"/>
            <performer>
               <reference value="urn:uuid:c03963ce-c538-11f0-3929-020000000000"/>
               <type value="Organization"/>
               <display value="Healthcare provider (organization), Klinisch chemisch Lab 't Proefje"/>
            </performer>
            <valueQuantity>
               <value value="3.8"/>
               <unit value="m[IU]/L"/>
               <system value="http://unitsofmeasure.org"/>
               <code value="m[IU]/L"/>
            </valueQuantity>
            <interpretation>
               <coding>
                  <system value="http://snomed.info/sct"/>
                  <code value="11896004"/>
                  <display value="intermediair"/>
               </coding>
               <coding>
                  <system value="http://terminology.hl7.org/CodeSystem/v3-ObservationInterpretation"/>
                  <code value="I"/>
                  <display value="Intermediate"/>
               </coding>
            </interpretation>
            <interpretation>
               <text value="Geen afwijkingen"/>
            </interpretation>
            <note>
               <text value="Onderzoek voltooid"/>
            </note>
            <specimen>
               <reference value="urn:uuid:c03964d2-c538-11f0-3929-020000000000"/>
               <type value="Specimen"/>
               <display value="monster"/>
            </specimen>
            <referenceRange>
               <low>
                  <value value="0.4"/>
                  <unit value="m[IU]/L"/>
                  <system value="http://unitsofmeasure.org"/>
                  <code value="m[IU]/L"/>
               </low>
               <high>
                  <value value="4.0"/>
                  <unit value="m[IU]/L"/>
                  <system value="http://unitsofmeasure.org"/>
                  <code value="m[IU]/L"/>
               </high>
            </referenceRange>
         </Observation>
      </resource>
      <request>
         <method value="POST"/>
         <url value="Observation"/>
      </request>
   </entry>
   <entry>
      <fullUrl value="urn:uuid:c039641e-c538-11f0-3929-020000000000"/>
      <resource>
         <Observation>
            <id value="c039733e-c538-11f0-3929-020000000000"/>
            <meta>
               <profile value="http://nictiz.nl/fhir/StructureDefinition/nl-core-LaboratoryTestResult"/>
            </meta>
            <extension url="http://nictiz.nl/fhir/StructureDefinition/ext-EdifactReferenceNumber">
               <valueString value="111333"/>
            </extension>
            <identifier>
               <system value="urn:oid:2.16.840.1.113883.2.4.3.11.999.25.4298.2"/>
               <value value="99993"/>
            </identifier>
            <status value="final"/>
            <category>
               <coding>
                  <system value="http://terminology.hl7.org/CodeSystem/observation-category"/>
                  <code value="laboratory"/>
                  <display value="Laboratory"/>
               </coding>
            </category>
            <code>
               <coding>
                  <system value="http://loinc.org"/>
                  <code value="50384-7"/>
                  <display value="Glomerulaire filtratiesnelheid/1,73 m2.voorspeld [filtratiesnelheid/oppervlakte] in serum of plasma of bloed d.m.v. op creatinine gebaseerde formule van Schwartz"/>
               </coding>
            </code>
            <subject>
               <reference value="urn:uuid:c03963ba-c538-11f0-3929-020000000000"/>
               <type value="Patient"/>
               <display value="Patient, E. XXX_Doppen"/>
            </subject>
            <effectiveDateTime value="${DATE, T, M, -13}"/>
            <performer>
               <reference value="urn:uuid:c03963ce-c538-11f0-3929-020000000000"/>
               <type value="Organization"/>
               <display value="Healthcare provider (organization), Klinisch chemisch Lab 't Proefje"/>
            </performer>
            <valueQuantity>
               <value value="65"/>
               <unit value="mL/min/{1,73_m2}"/>
               <system value="http://unitsofmeasure.org"/>
               <code value="mL/min/{1,73_m2}"/>
            </valueQuantity>
            <interpretation>
               <coding>
                  <system value="http://snomed.info/sct"/>
                  <code value="11896004"/>
                  <display value="intermediair"/>
               </coding>
               <coding>
                  <system value="http://terminology.hl7.org/CodeSystem/v3-ObservationInterpretation"/>
                  <code value="I"/>
                  <display value="Intermediate"/>
               </coding>
            </interpretation>
            <interpretation>
               <text value="Normale nierfunctie"/>
            </interpretation>
            <specimen>
               <reference value="urn:uuid:c03964e6-c538-11f0-3929-020000000000"/>
               <type value="Specimen"/>
               <display value="monster"/>
            </specimen>
            <referenceRange>
               <low>
                  <value value="60"/>
                  <unit value="mL/min/{1,73_m2}"/>
                  <system value="http://unitsofmeasure.org"/>
                  <code value="mL/min/{1,73_m2}"/>
               </low>
               <high>
                  <value value="90"/>
                  <unit value="mL/min/{1,73_m2}"/>
                  <system value="http://unitsofmeasure.org"/>
                  <code value="mL/min/{1,73_m2}"/>
               </high>
            </referenceRange>
         </Observation>
      </resource>
      <request>
         <method value="POST"/>
         <url value="Observation"/>
      </request>
   </entry>
   <entry>
      <fullUrl value="urn:uuid:c0396432-c538-11f0-3929-020000000000"/>
      <resource>
         <Observation>
            <id value="c039739e-c538-11f0-3929-020000000000"/>
            <meta>
               <profile value="http://nictiz.nl/fhir/StructureDefinition/nl-core-LaboratoryTestResult"/>
            </meta>
            <identifier>
               <system value="urn:oid:2.16.840.1.113883.2.4.3.11.999.25.4298.2"/>
               <value value="99994"/>
            </identifier>
            <status value="final"/>
            <category>
               <coding>
                  <system value="http://terminology.hl7.org/CodeSystem/observation-category"/>
                  <code value="laboratory"/>
                  <display value="Laboratory"/>
               </coding>
            </category>
            <code>
               <coding>
                  <system value="http://loinc.org"/>
                  <code value="50384-7"/>
                  <display value="Glomerulaire filtratiesnelheid/1,73 m2.voorspeld [filtratiesnelheid/oppervlakte] in serum of plasma of bloed d.m.v. op creatinine gebaseerde formule van Schwartz"/>
               </coding>
            </code>
            <subject>
               <reference value="urn:uuid:c03963ba-c538-11f0-3929-020000000000"/>
               <type value="Patient"/>
               <display value="Patient, E. XXX_Doppen"/>
            </subject>
            <effectiveDateTime value="${DATE, T, M, -8}"/>
            <performer>
               <reference value="urn:uuid:c03963ce-c538-11f0-3929-020000000000"/>
               <type value="Organization"/>
               <display value="Healthcare provider (organization), Klinisch chemisch Lab 't Proefje"/>
            </performer>
            <valueQuantity>
               <value value="40"/>
               <unit value="mL/min/{1,73_m2}"/>
               <system value="http://unitsofmeasure.org"/>
               <code value="mL/min/{1,73_m2}"/>
            </valueQuantity>
            <interpretation>
               <coding>
                  <system value="http://snomed.info/sct"/>
                  <code value="281300000"/>
                  <display value="onder referentiebereik"/>
               </coding>
               <coding>
                  <system value="http://terminology.hl7.org/CodeSystem/v3-ObservationInterpretation"/>
                  <code value="L"/>
                  <display value="Low"/>
               </coding>
            </interpretation>
            <interpretation>
               <text value="Milde nierfunctiestoornis"/>
            </interpretation>
            <specimen>
               <reference value="urn:uuid:c03964fa-c538-11f0-3929-020000000000"/>
               <type value="Specimen"/>
               <display value="monster"/>
            </specimen>
            <referenceRange>
               <low>
                  <value value="60"/>
                  <unit value="mL/min/{1,73_m2}"/>
                  <system value="http://unitsofmeasure.org"/>
                  <code value="mL/min/{1,73_m2}"/>
               </low>
               <high>
                  <value value="90"/>
                  <unit value="mL/min/{1,73_m2}"/>
                  <system value="http://unitsofmeasure.org"/>
                  <code value="mL/min/{1,73_m2}"/>
               </high>
            </referenceRange>
         </Observation>
      </resource>
      <request>
         <method value="POST"/>
         <url value="Observation"/>
      </request>
   </entry>
   <entry>
      <fullUrl value="urn:uuid:c0396446-c538-11f0-3929-020000000000"/>
      <resource>
         <Observation>
            <id value="c03973ff-c538-11f0-3929-020000000000"/>
            <meta>
               <profile value="http://nictiz.nl/fhir/StructureDefinition/nl-core-LaboratoryTestResult"/>
            </meta>
            <identifier>
               <system value="urn:oid:2.16.840.1.113883.2.4.3.11.999.25.4298.2"/>
               <value value="99995"/>
            </identifier>
            <status value="final"/>
            <category>
               <coding>
                  <system value="http://terminology.hl7.org/CodeSystem/observation-category"/>
                  <code value="laboratory"/>
                  <display value="Laboratory"/>
               </coding>
            </category>
            <code>
               <coding>
                  <system value="http://loinc.org"/>
                  <code value="50384-7"/>
                  <display value="Glomerulaire filtratiesnelheid/1,73 m2.voorspeld [filtratiesnelheid/oppervlakte] in serum of plasma of bloed d.m.v. op creatinine gebaseerde formule van Schwartz"/>
               </coding>
            </code>
            <subject>
               <reference value="urn:uuid:c03963ba-c538-11f0-3929-020000000000"/>
               <type value="Patient"/>
               <display value="Patient, E. XXX_Doppen"/>
            </subject>
            <effectiveDateTime value="${DATE, T, M, -1}"/>
            <performer>
               <reference value="urn:uuid:c03963ce-c538-11f0-3929-020000000000"/>
               <type value="Organization"/>
               <display value="Healthcare provider (organization), Klinisch chemisch Lab 't Proefje"/>
            </performer>
            <valueQuantity>
               <value value="45"/>
               <unit value="mL/min/{1,73_m2}"/>
               <system value="http://unitsofmeasure.org"/>
               <code value="mL/min/{1,73_m2}"/>
            </valueQuantity>
            <interpretation>
               <coding>
                  <system value="http://snomed.info/sct"/>
                  <code value="281300000"/>
                  <display value="onder referentiebereik"/>
               </coding>
               <coding>
                  <system value="http://terminology.hl7.org/CodeSystem/v3-ObservationInterpretation"/>
                  <code value="L"/>
                  <display value="Low"/>
               </coding>
            </interpretation>
            <interpretation>
               <text value="Milde nierfunctiestoornis"/>
            </interpretation>
            <specimen>
               <reference value="urn:uuid:c039650e-c538-11f0-3929-020000000000"/>
               <type value="Specimen"/>
               <display value="monster"/>
            </specimen>
            <referenceRange>
               <low>
                  <value value="60"/>
                  <unit value="mL/min/{1,73_m2}"/>
                  <system value="http://unitsofmeasure.org"/>
                  <code value="mL/min/{1,73_m2}"/>
               </low>
               <high>
                  <value value="90"/>
                  <unit value="mL/min/{1,73_m2}"/>
                  <system value="http://unitsofmeasure.org"/>
                  <code value="mL/min/{1,73_m2}"/>
               </high>
            </referenceRange>
         </Observation>
      </resource>
      <request>
         <method value="POST"/>
         <url value="Observation"/>
      </request>
   </entry>
   <entry>
      <fullUrl value="urn:uuid:c03964be-c538-11f0-3929-020000000000"/>
      <resource>
         <Specimen>
            <id value="c0396c4c-c538-11f0-3929-020000000000"/>
            <meta>
               <profile value="http://nictiz.nl/fhir/StructureDefinition/nl-core-LaboratoryTestResult.Specimen"/>
            </meta>
            <identifier>
               <system value="urn:oid:2.16.840.1.113883.2.4.3.11.999.25.4267.2"/>
               <value value="99991"/>
            </identifier>
            <type>
               <coding>
                  <system value="http://snomed.info/sct"/>
                  <code value="87612001"/>
                  <display value="Bloed"/>
               </coding>
            </type>
            <subject>
               <reference value="urn:uuid:c03963ba-c538-11f0-3929-020000000000"/>
               <type value="Patient"/>
               <display value="Patient, E. XXX_Doppen"/>
            </subject>
            <receivedTime value="${DATE, T, Y, -3}"/>
            <collection>
               <collectedDateTime value="${DATE, T, Y, -3}"/>
            </collection>
            <container>
               <type>
                  <coding>
                     <system value="http://snomed.info/sct"/>
                     <code value="767387006"/>
                     <display value="vacuümbuis voor bloedafname met citraat, theofylline, adenosine en dipyramidol (fysiek object)"/>
                  </coding>
               </type>
            </container>
         </Specimen>
      </resource>
      <request>
         <method value="POST"/>
         <url value="Specimen"/>
      </request>
   </entry>
   <entry>
      <fullUrl value="urn:uuid:c03964d2-c538-11f0-3929-020000000000"/>
      <resource>
         <Specimen>
            <id value="c03972ef-c538-11f0-3929-020000000000"/>
            <meta>
               <profile value="http://nictiz.nl/fhir/StructureDefinition/nl-core-LaboratoryTestResult.Specimen"/>
            </meta>
            <identifier>
               <system value="urn:oid:2.16.840.1.113883.2.4.3.11.999.25.4267.2"/>
               <value value="99992"/>
            </identifier>
            <type>
               <coding>
                  <system value="http://snomed.info/sct"/>
                  <code value="87612001"/>
                  <display value="Bloed"/>
               </coding>
            </type>
            <subject>
               <reference value="urn:uuid:c03963ba-c538-11f0-3929-020000000000"/>
               <type value="Patient"/>
               <display value="Patient, E. XXX_Doppen"/>
            </subject>
            <receivedTime value="${DATE, T, M, -12}"/>
            <collection>
               <collectedDateTime value="${DATE, T, M, -12}"/>
            </collection>
            <container>
               <type>
                  <coding>
                     <system value="http://snomed.info/sct"/>
                     <code value="767387006"/>
                     <display value="vacuümbuis voor bloedafname met citraat, theofylline, adenosine en dipyramidol (fysiek object)"/>
                  </coding>
               </type>
            </container>
         </Specimen>
      </resource>
      <request>
         <method value="POST"/>
         <url value="Specimen"/>
      </request>
   </entry>
   <entry>
      <fullUrl value="urn:uuid:c03964e6-c538-11f0-3929-020000000000"/>
      <resource>
         <Specimen>
            <id value="c0397356-c538-11f0-3929-020000000000"/>
            <meta>
               <profile value="http://nictiz.nl/fhir/StructureDefinition/nl-core-LaboratoryTestResult.Specimen"/>
            </meta>
            <identifier>
               <system value="urn:oid:2.16.840.1.113883.2.4.3.11.999.25.4267.2"/>
               <value value="99993"/>
            </identifier>
            <type>
               <coding>
                  <system value="http://snomed.info/sct"/>
                  <code value="87612001"/>
                  <display value="Bloed"/>
               </coding>
            </type>
            <subject>
               <reference value="urn:uuid:c03963ba-c538-11f0-3929-020000000000"/>
               <type value="Patient"/>
               <display value="Patient, E. XXX_Doppen"/>
            </subject>
            <collection>
               <collectedDateTime value="${DATE, T, M, -13}"/>
            </collection>
         </Specimen>
      </resource>
      <request>
         <method value="POST"/>
         <url value="Specimen"/>
      </request>
   </entry>
   <entry>
      <fullUrl value="urn:uuid:c03964fa-c538-11f0-3929-020000000000"/>
      <resource>
         <Specimen>
            <id value="c03973b6-c538-11f0-3929-020000000000"/>
            <meta>
               <profile value="http://nictiz.nl/fhir/StructureDefinition/nl-core-LaboratoryTestResult.Specimen"/>
            </meta>
            <identifier>
               <system value="urn:oid:2.16.840.1.113883.2.4.3.11.999.25.4267.2"/>
               <value value="99994"/>
            </identifier>
            <type>
               <coding>
                  <system value="http://snomed.info/sct"/>
                  <code value="87612001"/>
                  <display value="Bloed"/>
               </coding>
            </type>
            <subject>
               <reference value="urn:uuid:c03963ba-c538-11f0-3929-020000000000"/>
               <type value="Patient"/>
               <display value="Patient, E. XXX_Doppen"/>
            </subject>
            <receivedTime value="${DATE, T, M, -8}"/>
            <collection>
               <collectedDateTime value="${DATE, T, M, -8}"/>
            </collection>
         </Specimen>
      </resource>
      <request>
         <method value="POST"/>
         <url value="Specimen"/>
      </request>
   </entry>
   <entry>
      <fullUrl value="urn:uuid:c039650e-c538-11f0-3929-020000000000"/>
      <resource>
         <Specimen>
            <id value="c0397417-c538-11f0-3929-020000000000"/>
            <meta>
               <profile value="http://nictiz.nl/fhir/StructureDefinition/nl-core-LaboratoryTestResult.Specimen"/>
            </meta>
            <identifier>
               <system value="urn:oid:2.16.840.1.113883.2.4.3.11.999.25.4267.2"/>
               <value value="99995"/>
            </identifier>
            <type>
               <coding>
                  <system value="http://snomed.info/sct"/>
                  <code value="87612001"/>
                  <display value="Bloed"/>
               </coding>
            </type>
            <subject>
               <reference value="urn:uuid:c03963ba-c538-11f0-3929-020000000000"/>
               <type value="Patient"/>
               <display value="Patient, E. XXX_Doppen"/>
            </subject>
            <receivedTime value="${DATE, T, M, -1}"/>
            <collection>
               <collectedDateTime value="${DATE, T, M, -1}"/>
            </collection>
         </Specimen>
      </resource>
      <request>
         <method value="POST"/>
         <url value="Specimen"/>
      </request>
   </entry>
   <entry>
      <fullUrl value="urn:uuid:c03963ce-c538-11f0-3929-020000000000"/>
      <resource>
         <Organization>
            <id value="c0396c5e-c538-11f0-3929-020000000000"/>
            <meta>
               <profile value="http://nictiz.nl/fhir/StructureDefinition/nl-core-HealthcareProvider-Organization"/>
            </meta>
            <identifier>
               <system value="http://fhir.nl/fhir/NamingSystem/ura"/>
               <value value="00003333"/>
            </identifier>
            <type>
               <coding>
                  <system value="http://nictiz.nl/fhir/NamingSystem/organization-type"/>
                  <version value="2024-11-14T22:13:01"/>
                  <code value="L1"/>
                  <display value="Laboratorium"/>
               </coding>
            </type>
            <name value="Klinisch chemisch Lab 't Proefje"/>
            <telecom>
               <system value="phone">
                  <extension url="http://nictiz.nl/fhir/StructureDefinition/ext-CodeSpecification">
                     <valueCodeableConcept>
                        <coding>
                           <system value="http://terminology.hl7.org/CodeSystem/v3-AddressUse"/>
                           <code value="MC"/>
                           <display value="Mobiel telefoonnummer"/>
                        </coding>
                     </valueCodeableConcept>
                  </extension>
               </system>
               <value value="06-11122233"/>
               <use value="work"/>
            </telecom>
            <telecom>
               <system value="email"/>
               <value value="tproefje@lab.nl"/>
               <use value="work"/>
            </telecom>
            <address>
               <extension url="http://nictiz.nl/fhir/StructureDefinition/ext-AddressInformation.AddressType">
                  <valueCodeableConcept>
                     <coding>
                        <system value="http://terminology.hl7.org/CodeSystem/v3-AddressUse"/>
                        <code value="WP"/>
                        <display value="Werkadres"/>
                     </coding>
                  </valueCodeableConcept>
               </extension>
               <use value="work"/>
               <line value="Hoofdstraat 23">
                  <extension url="http://hl7.org/fhir/StructureDefinition/iso21090-ADXP-streetName">
                     <valueString value="Hoofdstraat"/>
                  </extension>
                  <extension url="http://hl7.org/fhir/StructureDefinition/iso21090-ADXP-houseNumber">
                     <valueString value="23"/>
                  </extension>
               </line>
               <city value="Zorgstad"/>
               <postalCode value="1234AA"/>
               <country value="Nederland">
                  <extension url="http://nictiz.nl/fhir/StructureDefinition/ext-CodeSpecification">
                     <valueCodeableConcept>
                        <coding>
                           <system value="urn:iso:std:iso:3166"/>
                           <version value="2020-10-26T00:00:00"/>
                           <code value="NL"/>
                           <display value="Nederland"/>
                        </coding>
                     </valueCodeableConcept>
                  </extension>
               </country>
            </address>
         </Organization>
      </resource>
      <request>
         <method value="POST"/>
         <url value="Organization"/>
      </request>
   </entry>
   <entry>
      <fullUrl value="urn:uuid:c03963ba-c538-11f0-3929-020000000000"/>
      <resource>
         <Patient>
            <id value="c0396c15-c538-11f0-3929-020000000000"/>
            <meta>
               <profile value="http://nictiz.nl/fhir/StructureDefinition/nl-core-Patient"/>
            </meta>
            <identifier>
               <system value="http://fhir.nl/fhir/NamingSystem/bsn"/>
               <value value="999900511"/>
            </identifier>
            <name>
               <use value="official"/>
               <text value="E. XXX_Doppen"/>
               <family value="XXX_Doppen">
                  <extension url="http://hl7.org/fhir/StructureDefinition/humanname-own-name">
                     <valueString value="XXX_Doppen"/>
                  </extension>
               </family>
               <given value="E.">
                  <extension url="http://hl7.org/fhir/StructureDefinition/iso21090-EN-qualifier">
                     <valueCode value="IN"/>
                  </extension>
               </given>
            </name>
            <gender value="male">
               <extension url="http://nictiz.nl/fhir/StructureDefinition/ext-CodeSpecification">
                  <valueCodeableConcept>
                     <coding>
                        <system value="http://terminology.hl7.org/CodeSystem/v3-AdministrativeGender"/>
                        <code value="M"/>
                        <display value="Man"/>
                     </coding>
                  </valueCodeableConcept>
               </extension>
            </gender>
            <birthDate value="1963-10-24"/>
         </Patient>
      </resource>
      <request>
         <method value="POST"/>
         <url value="Patient"/>
      </request>
   </entry>
</Bundle>