<Bundle xmlns="http://hl7.org/fhir">
   <id value="lr-blr-TEST-l2z-8POCT-4KCNHG"/>
   <type value="transaction"/>
   <entry>
      <fullUrl value="urn:uuid:1236c829-7e7e-11f0-6216-020000000000"/>
      <resource>
         <Observation>
            <meta>
               <profile value="http://nictiz.nl/fhir/StructureDefinition/nl-core-LaboratoryTestResult"/>
            </meta>
            <extension url="http://nictiz.nl/fhir/StructureDefinition/ext-CopyIndicator">
               <valueBoolean value="true"/>
            </extension>
            <extension url="http://nictiz.nl/fhir/StructureDefinition/ext-EdifactReferenceNumber">
               <valueString value="111333"/>
            </extension>
            <identifier>
               <system value="urn:oid:2.16.840.1.113883.2.4.3.11.999.25.4298.1"/>
               <value value="555551"/>
            </identifier>
            <status value="final"/>
            <category>
               <coding>
                  <system value="http://terminology.hl7.org/CodeSystem/observation-category"/>
                  <code value="laboratory"/>
                  <display value="Laboratory"/>
               </coding>
            </category>
            <code>
               <coding>
                  <system value="https://referentiemodel.nhg.org/tabellen/nhg-tabel-45-diagnostische-bepalingen"/>
                  <code value="509"/>
                  <display value="international normalised ratio (PT-INR)"/>
               </coding>
            </code>
            <subject>
               <reference value="urn:uuid:1236c7c5-7e7e-11f0-6216-020000000000"/>
               <type value="Patient"/>
               <display value="Patient, E. XXX_Doppen"/>
            </subject>
            <performer>
               <reference value="urn:uuid:1236c801-7e7e-11f0-6216-020000000000"/>
               <type value="Organization"/>
               <display value="Healthcare provider (organization), Trombosedienst Ons Dorp"/>
            </performer>
            <valueQuantity>
               <value value="2.9"/>
               <unit value="{INR}"/>
               <system value="http://unitsofmeasure.org"/>
               <code value="{INR}"/>
            </valueQuantity>
            <interpretation>
               <text value="Hoog"/>
            </interpretation>
            <specimen>
               <reference value="urn:uuid:1236c851-7e7e-11f0-6216-020000000000"/>
               <type value="Specimen"/>
               <display value="monster"/>
            </specimen>
            <referenceRange>
               <low>
                  <value value="0.9"/>
                  <unit value="{INR}"/>
                  <system value="http://unitsofmeasure.org"/>
                  <code value="{INR}"/>
               </low>
               <high>
                  <value value="1.1"/>
                  <unit value="{INR}"/>
                  <system value="http://unitsofmeasure.org"/>
                  <code value="{INR}"/>
               </high>
            </referenceRange>
            <component>
               <code>
                  <coding>
                     <system value="http://snomed.info/sct"/>
                     <code value="405262001"/>
                     <display value="point-of-care testing (verrichting)"/>
                  </coding>
               </code>
               <valueBoolean value="true"/>
            </component>
         </Observation>
      </resource>
      <request>
         <method value="POST"/>
         <url value="Observation"/>
      </request>
   </entry>
   <entry>
      <fullUrl value="urn:uuid:1236c851-7e7e-11f0-6216-020000000000"/>
      <resource>
         <Specimen>
            <meta>
               <profile value="http://nictiz.nl/fhir/StructureDefinition/nl-core-LaboratoryTestResult.Specimen"/>
            </meta>
            <identifier>
               <system value="urn:oid:2.16.840.1.113883.2.4.3.11.999.25.4267.1"/>
               <value value="1122"/>
            </identifier>
            <type>
               <coding>
                  <system value="http://snomed.info/sct"/>
                  <code value="87612001"/>
                  <display value="Bloed"/>
               </coding>
            </type>
            <subject>
               <reference value="urn:uuid:1236c7c5-7e7e-11f0-6216-020000000000"/>
               <type value="Patient"/>
               <display value="Patient, E. XXX_Doppen"/>
            </subject>
         </Specimen>
      </resource>
      <request>
         <method value="POST"/>
         <url value="Specimen"/>
      </request>
   </entry>
   <entry>
      <fullUrl value="urn:uuid:1236c801-7e7e-11f0-6216-020000000000"/>
      <resource>
         <Organization>
            <meta>
               <profile value="http://nictiz.nl/fhir/StructureDefinition/nl-core-HealthcareProvider-Organization"/>
            </meta>
            <identifier>
               <system value="http://fhir.nl/fhir/NamingSystem/ura"/>
               <value value="11112222"/>
            </identifier>
            <type>
               <coding>
                  <system value="http://nictiz.nl/fhir/NamingSystem/organization-type"/>
                  <version value="2023-04-14T00:00:00"/>
                  <code value="Z24"/>
                  <display value="Trombosedienst"/>
               </coding>
            </type>
            <name value="Trombosedienst Ons Dorp"/>
            <telecom>
               <system value="phone"/>
               <value value="06-11122266"/>
            </telecom>
            <address>
               <line value="Kerkstraat 28 d">
                  <extension url="http://hl7.org/fhir/StructureDefinition/iso21090-ADXP-streetName">
                     <valueString value="Kerkstraat"/>
                  </extension>
                  <extension url="http://hl7.org/fhir/StructureDefinition/iso21090-ADXP-houseNumber">
                     <valueString value="28"/>
                  </extension>
                  <extension url="http://hl7.org/fhir/StructureDefinition/iso21090-ADXP-buildingNumberSuffix">
                     <valueString value="d"/>
                  </extension>
               </line>
               <city value="Ons Dorp"/>
               <postalCode value="1332GH"/>
            </address>
         </Organization>
      </resource>
      <request>
         <method value="POST"/>
         <url value="Organization"/>
      </request>
   </entry>
   <entry>
      <fullUrl value="urn:uuid:1236c7c5-7e7e-11f0-6216-020000000000"/>
      <resource>
         <Patient>
            <meta>
               <profile value="http://nictiz.nl/fhir/StructureDefinition/nl-core-Patient"/>
            </meta>
            <identifier>
               <system value="http://fhir.nl/fhir/NamingSystem/bsn"/>
               <value value="999900511"/>
            </identifier>
            <name>
               <use value="official"/>
               <text value="E. XXX_Doppen"/>
               <family value="XXX_Doppen">
                  <extension url="http://hl7.org/fhir/StructureDefinition/humanname-own-name">
                     <valueString value="XXX_Doppen"/>
                  </extension>
               </family>
               <given value="E.">
                  <extension url="http://hl7.org/fhir/StructureDefinition/iso21090-EN-qualifier">
                     <valueCode value="IN"/>
                  </extension>
               </given>
            </name>
            <gender value="male">
               <extension url="http://nictiz.nl/fhir/StructureDefinition/ext-CodeSpecification">
                  <valueCodeableConcept>
                     <coding>
                        <system value="http://terminology.hl7.org/CodeSystem/v3-AdministrativeGender"/>
                        <code value="M"/>
                        <display value="Man"/>
                     </coding>
                  </valueCodeableConcept>
               </extension>
            </gender>
            <birthDate value="1963-10-24"/>
         </Patient>
      </resource>
      <request>
         <method value="POST"/>
         <url value="Patient"/>
      </request>
   </entry>
   <entry>
      <fullUrl value="urn:uuid:1236c7d9-7e7e-11f0-6216-020000000000"/>
      <resource>
         <Organization>
            <meta>
               <profile value="http://nictiz.nl/fhir/StructureDefinition/nl-core-HealthcareProvider-Organization"/>
            </meta>
            <identifier>
               <system value="http://fhir.nl/fhir/NamingSystem/ura"/>
               <value value="00003333"/>
            </identifier>
            <type>
               <coding>
                  <system value="http://nictiz.nl/fhir/NamingSystem/organization-type"/>
                  <version value="2023-04-14T00:00:00"/>
                  <code value="L1"/>
                  <display value="Laboratorium"/>
               </coding>
            </type>
            <name value="Klinisch chemisch Lab 't Proefje"/>
            <telecom>
               <system value="phone">
                  <extension url="http://nictiz.nl/fhir/StructureDefinition/ext-CodeSpecification">
                     <valueCodeableConcept>
                        <coding>
                           <system value="http://terminology.hl7.org/CodeSystem/v3-AddressUse"/>
                           <code value="MC"/>
                           <display value="Mobiel telefoonnummer"/>
                        </coding>
                     </valueCodeableConcept>
                  </extension>
               </system>
               <value value="06-11122233"/>
               <use value="work"/>
            </telecom>
            <telecom>
               <system value="email"/>
               <value value="tproefje@lab.nl"/>
               <use value="work"/>
            </telecom>
            <address>
               <extension url="http://nictiz.nl/fhir/StructureDefinition/ext-AddressInformation.AddressType">
                  <valueCodeableConcept>
                     <coding>
                        <system value="http://terminology.hl7.org/CodeSystem/v3-AddressUse"/>
                        <code value="WP"/>
                        <display value="Werkadres"/>
                     </coding>
                  </valueCodeableConcept>
               </extension>
               <use value="work"/>
               <line value="Hoofdstraat  23">
                  <extension url="http://hl7.org/fhir/StructureDefinition/iso21090-ADXP-streetName">
                     <valueString value="Hoofdstraat"/>
                  </extension>
                  <extension url="http://hl7.org/fhir/StructureDefinition/iso21090-ADXP-houseNumber">
                     <valueString value="23"/>
                  </extension>
               </line>
               <city value="Zorgstad"/>
               <postalCode value="1234AA"/>
               <country value="Nederland">
                  <extension url="http://nictiz.nl/fhir/StructureDefinition/ext-CodeSpecification">
                     <valueCodeableConcept>
                        <coding>
                           <system value="urn:iso:std:iso:3166"/>
                           <version value="2020-10-26T00:00:00"/>
                           <code value="NL"/>
                           <display value="Nederland"/>
                        </coding>
                     </valueCodeableConcept>
                  </extension>
               </country>
            </address>
         </Organization>
      </resource>
      <request>
         <method value="POST"/>
         <url value="Organization"/>
      </request>
   </entry>
</Bundle>