<?xml version="1.0" encoding="UTF-8"?>
<Bundle xmlns="http://hl7.org/fhir">
   <type value="searchset"/>
   <total value="1"/>
   <entry>
      <fullUrl value="http://example.nictiz.nl/fhir/Observation/labtest-66666"/>
      <resource>
         <Observation>
            <id value="labtest-66666"/>
            <meta>
               <profile value="http://nictiz.nl/fhir/StructureDefinition/nl-core-LaboratoryTestResult"/>
            </meta>
            <extension url="http://nictiz.nl/fhir/StructureDefinition/ext-CopyIndicator">
               <valueBoolean value="true"/>
            </extension>
            <extension url="http://nictiz.nl/fhir/StructureDefinition/ext-EdifactReferenceNumber">
               <valueString value="111444"/>
            </extension>
            <identifier>
               <system value="urn:oid:2.16.840.1.113883.2.4.3.11.999.25.4298"/>
               <value value="66666"/>
            </identifier>
            <status value="final"/>
            <category>
               <coding>
                  <system value="http://terminology.hl7.org/CodeSystem/observation-category"/>
                  <code value="laboratory"/>
                  <display value="Laboratory"/>
               </coding>
            </category>
            <code>
               <coding>
                  <system value="https://referentiemodel.nhg.org/tabellen/nhg-tabel-45-diagnostische-bepalingen"/>
                  <code value="624"/>
                  <display value="Natrium"/>
               </coding>
            </code>
            <effectiveDateTime value="2021-10-29"/>
            <performer>
               <reference value="Location/locatie-"/>
               <type value="Location"/>
               <display value="Healthcare provider (location), Klinisch chemisch Lab 't Proefje"/>
            </performer>
            <valueQuantity>
               <value value="165"/>
               <unit value="mmol/l"/>
               <system value="http://unitsofmeasure.org"/>
               <code value="mmol/l"/>
            </valueQuantity>
            <interpretation>
               <coding>
                  <system value="http://snomed.info/sct"/>
                  <code value="281302008"/>
                  <display value="boven referentiebereik"/>
               </coding>
            </interpretation>
            <interpretation>
               <text value="Te hoog Natriumgehalte"/>
            </interpretation>
            <specimen>
               <reference value="Specimen/monster-3341"/>
               <type value="Specimen"/>
               <display value="monster"/>
            </specimen>
            <referenceRange>
               <low>
                  <value value="135"/>
                  <unit value="mmol/l"/>
                  <system value="http://unitsofmeasure.org"/>
                  <code value="mmol/l"/>
               </low>
               <high>
                  <value value="145"/>
                  <unit value="mmol/l"/>
                  <system value="http://unitsofmeasure.org"/>
                  <code value="mmol/l"/>
               </high>
            </referenceRange>
         </Observation>
      </resource>
      <search>
         <mode value="match"/>
      </search>
   </entry>
   <entry>
      <fullUrl value="http://example.nictiz.nl/fhir/Location/locatie-"/>
      <resource>
         <Location>
            <id value="locatie-"/>
            <meta>
               <profile value="http://nictiz.nl/fhir/StructureDefinition/nl-core-HealthcareProvider"/>
            </meta>
            <telecom>
               <system value="phone"/>
               <value value="06-11122233"/>
            </telecom>
            <address>
               <line value="Hoofdstraat 23">
                  <extension url="http://hl7.org/fhir/StructureDefinition/iso21090-ADXP-streetName">
                     <valueString value="Hoofdstraat"/>
                  </extension>
                  <extension url="http://hl7.org/fhir/StructureDefinition/iso21090-ADXP-houseNumber">
                     <valueString value="23"/>
                  </extension>
               </line>
               <city value="Zorgstad"/>
               <postalCode value="2143AA"/>
            </address>
            <managingOrganization>
               <reference value="Organization/locatie-00003333"/>
               <type value="Organization"/>
               <display value="Healthcare provider (organization), Klinisch chemisch Lab 't Proefje"/>
            </managingOrganization>
         </Location>
      </resource>
      <search>
         <mode value="include"/>
      </search>
   </entry>
   <entry>
      <fullUrl value="http://example.nictiz.nl/fhir/Organization/locatie-00003333"/>
      <resource>
         <Organization>
            <id value="locatie-00003333"/>
            <meta>
               <profile value="http://nictiz.nl/fhir/StructureDefinition/nl-core-HealthcareProvider-Organization"/>
            </meta>
            <identifier>
               <system value="http://fhir.nl/fhir/NamingSystem/ura"/>
               <value value="00003333"/>
            </identifier>
            <name value="Klinisch chemisch Lab 't Proefje"/>
            <telecom>
               <system value="phone"/>
               <value value="06-11122233"/>
            </telecom>
            <address>
               <line value="Hoofdstraat 23">
                  <extension url="http://hl7.org/fhir/StructureDefinition/iso21090-ADXP-streetName">
                     <valueString value="Hoofdstraat"/>
                  </extension>
                  <extension url="http://hl7.org/fhir/StructureDefinition/iso21090-ADXP-houseNumber">
                     <valueString value="23"/>
                  </extension>
               </line>
               <city value="Zorgstad"/>
               <postalCode value="2143AA"/>
            </address>
         </Organization>
      </resource>
      <search>
         <mode value="include"/>
      </search>
   </entry>
   <entry>
      <fullUrl value="http://example.nictiz.nl/fhir/Patient/patient"/>
      <resource>
         <Patient>
            <id value="patient"/>
            <meta>
               <profile value="http://nictiz.nl/fhir/StructureDefinition/nl-core-Patient"/>
            </meta>
            <identifier>
               <system value="http://fhir.nl/fhir/NamingSystem/bsn"/>
               <value value="999999114"/>
            </identifier>
            <name>
               <use value="official"/>
               <text value="Elise Erelies"/>
               <family value="Erelies">
                  <extension url="http://hl7.org/fhir/StructureDefinition/humanname-own-name">
                     <valueString value="Erelies"/>
                  </extension>
               </family>
               <given value="Elise">
                  <extension url="http://hl7.org/fhir/StructureDefinition/iso21090-EN-qualifier">
                     <valueCode value="BR"/>
                  </extension>
               </given>
            </name>
            <gender value="female">
               <extension url="http://nictiz.nl/fhir/StructureDefinition/ext-CodeSpecification">
                  <valueCodeableConcept>
                     <coding>
                        <system value="http://terminology.hl7.org/CodeSystem/v3-AdministrativeGender"/>
                        <code value="F"/>
                        <display value="Vrouw"/>
                     </coding>
                  </valueCodeableConcept>
               </extension>
            </gender>
            <birthDate value="1950-11-01"/>
         </Patient>
      </resource>
      <search>
         <mode value="include"/>
      </search>
   </entry>
   <entry>
      <fullUrl value="http://example.nictiz.nl/fhir/Specimen/monster-3341"/>
      <resource>
         <Specimen>
            <id value="monster-3341"/>
            <meta>
               <profile value="http://nictiz.nl/fhir/StructureDefinition/nl-core-LaboratoryTestResult.Specimen"/>
            </meta>
            <identifier>
               <value value="334"/>
            </identifier>
            <collection>
               <collectedDateTime value="2021-10-28"/>
               <method>
                  <coding>
                     <system value="http://snomed.info/sct"/>
                     <code value="713143008"/>
                     <display value="afname van arterieel bloed"/>
                  </coding>
               </method>
            </collection>
            <container>
               <extension url="http://hl7.org/fhir/StructureDefinition/specimen-sequenceNumber">
                  <valueInteger value="1"/>
               </extension>
            </container>
         </Specimen>
      </resource>
      <search>
         <mode value="include"/>
      </search>
   </entry>
</Bundle>
<Bundle xmlns="http://hl7.org/fhir">
   <type value="searchset"/>
   <total value="1"/>
   <entry>
      <fullUrl value="http://example.nictiz.nl/fhir/Observation/labtest-55555"/>
      <resource>
         <Observation>
            <id value="labtest-55555"/>
            <meta>
               <profile value="http://nictiz.nl/fhir/StructureDefinition/nl-core-LaboratoryTestResult"/>
            </meta>
            <extension url="http://nictiz.nl/fhir/StructureDefinition/ext-CopyIndicator">
               <valueBoolean value="true"/>
            </extension>
            <extension url="http://nictiz.nl/fhir/StructureDefinition/ext-EdifactReferenceNumber">
               <valueString value="111333"/>
            </extension>
            <identifier>
               <system value="urn:oid:2.16.840.1.113883.2.4.3.11.999.25.4298"/>
               <value value="55555"/>
            </identifier>
            <status value="final"/>
            <category>
               <coding>
                  <system value="http://terminology.hl7.org/CodeSystem/observation-category"/>
                  <code value="laboratory"/>
                  <display value="Laboratory"/>
               </coding>
            </category>
            <code>
               <coding>
                  <system value="https://referentiemodel.nhg.org/tabellen/nhg-tabel-45-diagnostische-bepalingen"/>
                  <code value="509"/>
                  <display value="international normalised ratio (PT-INR)"/>
               </coding>
            </code>
            <effectiveDateTime value="2021-12-22"/>
            <performer>
               <reference value="Location/locatie-3400"/>
               <type value="Location"/>
               <display value="Healthcare provider (location), Trombosedienst Ons Dorp"/>
            </performer>
            <valueQuantity>
               <value value="2.9"/>
            </valueQuantity>
            <interpretation>
               <coding>
                  <system value="http://snomed.info/sct"/>
                  <code value="281302008"/>
                  <display value="boven referentiebereik"/>
               </coding>
            </interpretation>
            <interpretation>
               <text value="Te hoog let op."/>
            </interpretation>
            <specimen>
               <reference value="Specimen/monster-1122"/>
               <type value="Specimen"/>
               <display value="monster"/>
            </specimen>
         </Observation>
      </resource>
      <search>
         <mode value="match"/>
      </search>
   </entry>
   <entry>
      <fullUrl value="http://example.nictiz.nl/fhir/Location/locatie-3400"/>
      <resource>
         <Location>
            <id value="locatie-3400"/>
            <meta>
               <profile value="http://nictiz.nl/fhir/StructureDefinition/nl-core-HealthcareProvider"/>
            </meta>
            <address>
               <line value="Kerkstraat 28 d">
                  <extension url="http://hl7.org/fhir/StructureDefinition/iso21090-ADXP-streetName">
                     <valueString value="Kerkstraat"/>
                  </extension>
                  <extension url="http://hl7.org/fhir/StructureDefinition/iso21090-ADXP-houseNumber">
                     <valueString value="28"/>
                  </extension>
                  <extension url="http://hl7.org/fhir/StructureDefinition/iso21090-ADXP-buildingNumberSuffix">
                     <valueString value="d "/>
                  </extension>
               </line>
               <city value="Ons Dorp"/>
               <postalCode value="1332GH"/>
            </address>
            <managingOrganization>
               <reference value="Organization/locatie-11112222"/>
               <type value="Organization"/>
               <display value="Healthcare provider (organization), Trombosedienst Ons Dorp"/>
            </managingOrganization>
         </Location>
      </resource>
      <search>
         <mode value="include"/>
      </search>
   </entry>
   <entry>
      <fullUrl value="http://example.nictiz.nl/fhir/Organization/locatie-11112222"/>
      <resource>
         <Organization>
            <id value="locatie-11112222"/>
            <meta>
               <profile value="http://nictiz.nl/fhir/StructureDefinition/nl-core-HealthcareProvider-Organization"/>
            </meta>
            <identifier>
               <system value="http://fhir.nl/fhir/NamingSystem/ura"/>
               <value value="11112222"/>
            </identifier>
            <type>
               <coding>
                  <system value="urn:oid:2.16.840.1.113883.2.4.6.7"/>
                  <version value="2020-10-23T00:00:00"/>
                  <code value="3400"/>
                  <display value="Trombosediensten"/>
               </coding>
            </type>
            <name value="Trombosedienst Ons Dorp"/>
            <address>
               <line value="Kerkstraat 28 d">
                  <extension url="http://hl7.org/fhir/StructureDefinition/iso21090-ADXP-streetName">
                     <valueString value="Kerkstraat"/>
                  </extension>
                  <extension url="http://hl7.org/fhir/StructureDefinition/iso21090-ADXP-houseNumber">
                     <valueString value="28"/>
                  </extension>
                  <extension url="http://hl7.org/fhir/StructureDefinition/iso21090-ADXP-buildingNumberSuffix">
                     <valueString value="d "/>
                  </extension>
               </line>
               <city value="Ons Dorp"/>
               <postalCode value="1332GH"/>
            </address>
         </Organization>
      </resource>
      <search>
         <mode value="include"/>
      </search>
   </entry>
   <entry>
      <fullUrl value="http://example.nictiz.nl/fhir/Patient/patient"/>
      <resource>
         <Patient>
            <id value="patient"/>
            <meta>
               <profile value="http://nictiz.nl/fhir/StructureDefinition/nl-core-Patient"/>
            </meta>
            <identifier>
               <system value="http://fhir.nl/fhir/NamingSystem/bsn"/>
               <value value="999999114"/>
            </identifier>
            <name>
               <use value="official"/>
               <text value="Elise Erelies"/>
               <family value="Erelies">
                  <extension url="http://hl7.org/fhir/StructureDefinition/humanname-own-name">
                     <valueString value="Erelies"/>
                  </extension>
               </family>
               <given value="Elise">
                  <extension url="http://hl7.org/fhir/StructureDefinition/iso21090-EN-qualifier">
                     <valueCode value="BR"/>
                  </extension>
               </given>
            </name>
            <gender value="female">
               <extension url="http://nictiz.nl/fhir/StructureDefinition/ext-CodeSpecification">
                  <valueCodeableConcept>
                     <coding>
                        <system value="http://terminology.hl7.org/CodeSystem/v3-AdministrativeGender"/>
                        <code value="F"/>
                        <display value="Vrouw"/>
                     </coding>
                  </valueCodeableConcept>
               </extension>
            </gender>
            <birthDate value="1950-11-01"/>
         </Patient>
      </resource>
      <search>
         <mode value="include"/>
      </search>
   </entry>
   <entry>
      <fullUrl value="http://example.nictiz.nl/fhir/Specimen/monster-1122"/>
      <resource>
         <Specimen>
            <id value="monster-1122"/>
            <meta>
               <profile value="http://nictiz.nl/fhir/StructureDefinition/nl-core-LaboratoryTestResult.Specimen"/>
            </meta>
            <identifier>
               <value value="1122"/>
            </identifier>
            <collection>
               <collectedDateTime value="2021-12-21"/>
            </collection>
            <container>
               <type>
                  <coding>
                     <system value="http://snomed.info/sct"/>
                     <code value="767387006"/>
                     <display value="vacuümbuis voor bloedafname met citraat, theofylline, adenosine en dipyramidol (fysiek object)"/>
                  </coding>
               </type>
            </container>
         </Specimen>
      </resource>
      <search>
         <mode value="include"/>
      </search>
   </entry>
</Bundle>
<Bundle xmlns="http://hl7.org/fhir">
   <type value="searchset"/>
   <total value="1"/>
   <entry>
      <fullUrl value="http://example.nictiz.nl/fhir/Observation/labtest-77777"/>
      <resource>
         <Observation>
            <id value="labtest-77777"/>
            <meta>
               <profile value="http://nictiz.nl/fhir/StructureDefinition/nl-core-LaboratoryTestResult"/>
            </meta>
            <extension url="http://nictiz.nl/fhir/StructureDefinition/ext-CopyIndicator">
               <valueBoolean value="true"/>
            </extension>
            <extension url="http://nictiz.nl/fhir/StructureDefinition/ext-EdifactReferenceNumber">
               <valueString value="111555"/>
            </extension>
            <identifier>
               <system value="urn:oid:2.16.840.1.113883.2.4.3.11.999.25.4298"/>
               <value value="77777"/>
            </identifier>
            <status value="final"/>
            <category>
               <coding>
                  <system value="http://terminology.hl7.org/CodeSystem/observation-category"/>
                  <code value="laboratory"/>
                  <display value="Laboratory"/>
               </coding>
            </category>
            <code>
               <coding>
                  <system value="https://referentiemodel.nhg.org/tabellen/nhg-tabel-45-diagnostische-bepalingen"/>
                  <code value="513"/>
                  <display value="Kalium"/>
               </coding>
            </code>
            <effectiveDateTime value="2021-12-01"/>
            <performer>
               <reference value="Location/locatie-5000"/>
               <type value="Location"/>
               <display value="Healthcare provider (location), Klinisch chemisch Lab de Erlenmeyer"/>
            </performer>
            <valueQuantity>
               <value value="4.0"/>
               <unit value="mmol/l"/>
               <system value="http://unitsofmeasure.org"/>
               <code value="mmol/l"/>
            </valueQuantity>
            <specimen>
               <reference value="Specimen/monster-3342"/>
               <type value="Specimen"/>
               <display value="monster"/>
            </specimen>
            <referenceRange>
               <low>
                  <value value="3.5"/>
                  <unit value="mmol/l"/>
                  <system value="http://unitsofmeasure.org"/>
                  <code value="mmol/l"/>
               </low>
               <high>
                  <value value="5.0"/>
                  <unit value="mmol/l"/>
                  <system value="http://unitsofmeasure.org"/>
                  <code value="mmol/l"/>
               </high>
            </referenceRange>
         </Observation>
      </resource>
      <search>
         <mode value="match"/>
      </search>
   </entry>
   <entry>
      <fullUrl value="http://example.nictiz.nl/fhir/Location/locatie-5000"/>
      <resource>
         <Location>
            <id value="locatie-5000"/>
            <meta>
               <profile value="http://nictiz.nl/fhir/StructureDefinition/nl-core-HealthcareProvider"/>
            </meta>
            <telecom>
               <system value="phone"/>
               <value value="06-11122255"/>
            </telecom>
            <address>
               <extension url="http://nictiz.nl/fhir/StructureDefinition/ext-AddressInformation.AddressType">
                  <valueCodeableConcept>
                     <coding>
                        <system value="http://terminology.hl7.org/CodeSystem/v3-AddressUse"/>
                        <code value="WP"/>
                        <display value="Werkadres"/>
                     </coding>
                  </valueCodeableConcept>
               </extension>
               <use value="work"/>
               <line value="Kerkstraat 101 A">
                  <extension url="http://hl7.org/fhir/StructureDefinition/iso21090-ADXP-streetName">
                     <valueString value="Kerkstraat"/>
                  </extension>
                  <extension url="http://hl7.org/fhir/StructureDefinition/iso21090-ADXP-houseNumber">
                     <valueString value="101"/>
                  </extension>
                  <extension url="http://hl7.org/fhir/StructureDefinition/iso21090-ADXP-buildingNumberSuffix">
                     <valueString value="A "/>
                  </extension>
               </line>
               <city value="Zorgstad"/>
               <postalCode value="2143BB"/>
            </address>
            <managingOrganization>
               <reference value="Organization/locatie-00003335"/>
               <type value="Organization"/>
               <display value="Healthcare provider (organization), Klinisch chemisch Lab de Erlenmeyer"/>
            </managingOrganization>
         </Location>
      </resource>
      <search>
         <mode value="include"/>
      </search>
   </entry>
   <entry>
      <fullUrl value="http://example.nictiz.nl/fhir/Organization/locatie-00003335"/>
      <resource>
         <Organization>
            <id value="locatie-00003335"/>
            <meta>
               <profile value="http://nictiz.nl/fhir/StructureDefinition/nl-core-HealthcareProvider-Organization"/>
            </meta>
            <identifier>
               <system value="http://fhir.nl/fhir/NamingSystem/ura"/>
               <value value="00003335"/>
            </identifier>
            <type>
               <coding>
                  <system value="urn:oid:2.16.840.1.113883.2.4.6.7"/>
                  <version value="2020-10-23T00:00:00"/>
                  <code value="5000"/>
                  <display value="Laboratoria"/>
               </coding>
            </type>
            <type>
               <coding>
                  <system value="http://nictiz.nl/fhir/NamingSystem/organization-type"/>
                  <code value="L1"/>
                  <display value="Laboratorium"/>
               </coding>
            </type>
            <name value="Klinisch chemisch Lab de Erlenmeyer"/>
            <telecom>
               <system value="phone"/>
               <value value="06-11122255"/>
            </telecom>
            <address>
               <extension url="http://nictiz.nl/fhir/StructureDefinition/ext-AddressInformation.AddressType">
                  <valueCodeableConcept>
                     <coding>
                        <system value="http://terminology.hl7.org/CodeSystem/v3-AddressUse"/>
                        <code value="WP"/>
                        <display value="Werkadres"/>
                     </coding>
                  </valueCodeableConcept>
               </extension>
               <use value="work"/>
               <line value="Kerkstraat 101 A">
                  <extension url="http://hl7.org/fhir/StructureDefinition/iso21090-ADXP-streetName">
                     <valueString value="Kerkstraat"/>
                  </extension>
                  <extension url="http://hl7.org/fhir/StructureDefinition/iso21090-ADXP-houseNumber">
                     <valueString value="101"/>
                  </extension>
                  <extension url="http://hl7.org/fhir/StructureDefinition/iso21090-ADXP-buildingNumberSuffix">
                     <valueString value="A "/>
                  </extension>
               </line>
               <city value="Zorgstad"/>
               <postalCode value="2143BB"/>
            </address>
         </Organization>
      </resource>
      <search>
         <mode value="include"/>
      </search>
   </entry>
   <entry>
      <fullUrl value="http://example.nictiz.nl/fhir/Patient/patient"/>
      <resource>
         <Patient>
            <id value="patient"/>
            <meta>
               <profile value="http://nictiz.nl/fhir/StructureDefinition/nl-core-Patient"/>
            </meta>
            <identifier>
               <system value="http://fhir.nl/fhir/NamingSystem/bsn"/>
               <value value="999999114"/>
            </identifier>
            <name>
               <use value="official"/>
               <text value="Elise Erelies"/>
               <family value="Erelies">
                  <extension url="http://hl7.org/fhir/StructureDefinition/humanname-own-name">
                     <valueString value="Erelies"/>
                  </extension>
               </family>
               <given value="Elise">
                  <extension url="http://hl7.org/fhir/StructureDefinition/iso21090-EN-qualifier">
                     <valueCode value="BR"/>
                  </extension>
               </given>
            </name>
            <gender value="female">
               <extension url="http://nictiz.nl/fhir/StructureDefinition/ext-CodeSpecification">
                  <valueCodeableConcept>
                     <coding>
                        <system value="http://terminology.hl7.org/CodeSystem/v3-AdministrativeGender"/>
                        <code value="F"/>
                        <display value="Vrouw"/>
                     </coding>
                  </valueCodeableConcept>
               </extension>
            </gender>
            <birthDate value="1950-11-01"/>
         </Patient>
      </resource>
      <search>
         <mode value="include"/>
      </search>
   </entry>
   <entry>
      <fullUrl value="http://example.nictiz.nl/fhir/Specimen/monster-3342"/>
      <resource>
         <Specimen>
            <id value="monster-3342"/>
            <meta>
               <profile value="http://nictiz.nl/fhir/StructureDefinition/nl-core-LaboratoryTestResult.Specimen"/>
            </meta>
            <identifier>
               <value value="334"/>
            </identifier>
            <collection>
               <collectedDateTime value="2021-12-01"/>
               <method>
                  <coding>
                     <system value="http://snomed.info/sct"/>
                     <code value="713143008"/>
                     <display value="afname van arterieel bloed"/>
                  </coding>
               </method>
            </collection>
            <container>
               <extension url="http://hl7.org/fhir/StructureDefinition/specimen-sequenceNumber">
                  <valueInteger value="2"/>
               </extension>
            </container>
         </Specimen>
      </resource>
      <search>
         <mode value="include"/>
      </search>
   </entry>
</Bundle>
