<?xml version="1.0" encoding="UTF-8"?>
<Bundle xmlns="http://hl7.org/fhir">
   <type value="searchset"/>
   <entry>
      <fullUrl value="http://example.nictiz.nl/fhir/Observation/laboratorium_uitslag"/>
      <resource>
         <Observation>
            <id value="laboratorium_uitslag"/>
            <meta>
               <profile value="http://nictiz.nl/fhir/StructureDefinition/nl-core-LaboratoryTestResult"/>
            </meta>
            <extension url="http://nictiz.nl/fhir/StructureDefinition/ext-CopyIndicator">
               <valueBoolean value="true"/>
            </extension>
            <extension url="http://nictiz.nl/fhir/StructureDefinition/ext-EdifactReferenceNumber">
               <valueString value="111222"/>
            </extension>
            <identifier>
               <value value="LAR_NierfunctiePanelNHG"/>
            </identifier>
            <status value="final"/>
            <category>
               <coding>
                  <system value="http://terminology.hl7.org/CodeSystem/observation-category"/>
                  <code value="laboratory"/>
                  <display value="Laboratory"/>
               </coding>
            </category>
            <code>
               <coding>
                  <system value="http://loinc.org"/>
                  <code value="72"/>
                  <display value="CVRM nierfunctie en kalium"/>
               </coding>
            </code>
            <subject>
               <reference value="Patient/patient"/>
               <type value="Patient"/>
               <display value="Patient, Elise Erelies"/>
            </subject>
            <performer>
               <reference value="Organization/zorgaanbieder"/>
               <type value="Organization"/>
               <display value="Healthcare provider (organization), Klinisch chemisch Lab 't Proefje"/>
            </performer>
            <specimen>
               <reference value="Specimen/monster"/>
               <type value="Specimen"/>
               <display value="monster"/>
            </specimen>
            <hasMember>
               <reference value="Observation/LaboratoryTest-01"/>
               <type value="Observation"/>
               <display value="laboratorium_test"/>
            </hasMember>
            <hasMember>
               <reference value="Observation/LaboratoryTest-02"/>
               <type value="Observation"/>
               <display value="laboratorium_test"/>
            </hasMember>
            <hasMember>
               <reference value="Observation/LaboratoryTest-03"/>
               <type value="Observation"/>
               <display value="laboratorium_test"/>
            </hasMember>
            <hasMember>
               <reference value="Observation/LaboratoryTest-04"/>
               <type value="Observation"/>
               <display value="laboratorium_test"/>
            </hasMember>
         </Observation>
      </resource>
      <search>
         <mode value="match"/>
      </search>
   </entry>
   <entry>
      <fullUrl value="http://example.nictiz.nl/fhir/Observation/LaboratoryTest-01"/>
      <resource>
         <Observation>
            <id value="LaboratoryTest-01"/>
            <meta>
               <profile value="http://nictiz.nl/fhir/StructureDefinition/nl-core-LaboratoryTestResult"/>
            </meta>
            <extension url="http://nictiz.nl/fhir/StructureDefinition/ext-CopyIndicator">
               <valueBoolean value="true"/>
            </extension>
            <extension url="http://nictiz.nl/fhir/StructureDefinition/ext-EdifactReferenceNumber">
               <valueString value="111222"/>
            </extension>
            <identifier>
               <value value="11111"/>
            </identifier>
            <status value="final"/>
            <category>
               <coding>
                  <system value="http://terminology.hl7.org/CodeSystem/observation-category"/>
                  <code value="laboratory"/>
                  <display value="Laboratory"/>
               </coding>
            </category>
            <code>
               <coding>
                  <system value="https://referentiemodel.nhg.org/tabellen/nhg-tabel-45-diagnostische-bepalingen"/>
                  <code value="3583"/>
                  <display value="eGFR volgens CKD-EPI formule"/>
               </coding>
            </code>
            <subject>
               <reference value="Patient/patient"/>
               <type value="Patient"/>
               <display value="Patient, Elise Erelies"/>
            </subject>
            <effectiveDateTime value="${DATE, T, D, -30}"/>
            <performer>
               <reference value="Location/zorgaanbieder"/>
               <type value="Location"/>
               <display value="Healthcare provider (location), Klinisch chemisch Lab 't Proefje"/>
            </performer>
            <valueQuantity>
               <value value="97"/>
               <unit value="ml/min/1.73m2"/>
               <system value="http://unitsofmeasure.org"/>
               <code value="ml/min/1.73m2"/>
            </valueQuantity>
            <interpretation>
               <text value="Waarde is goed."/>
            </interpretation>
            <specimen>
               <reference value="Specimen/monster"/>
               <type value="Specimen"/>
               <display value="monster"/>
            </specimen>
            <referenceRange>
               <low>
                  <value value="90"/>
                  <unit value="ml/min/1.73m2"/>
                  <system value="http://unitsofmeasure.org"/>
                  <code value="ml/min/1.73m2"/>
               </low>
            </referenceRange>
         </Observation>
      </resource>
      <search>
         <mode value="match"/>
      </search>
   </entry>
   <entry>
      <fullUrl value="http://example.nictiz.nl/fhir/Observation/LaboratoryTest-02"/>
      <resource>
         <Observation>
            <id value="LaboratoryTest-02"/>
            <meta>
               <profile value="http://nictiz.nl/fhir/StructureDefinition/nl-core-LaboratoryTestResult"/>
            </meta>
            <extension url="http://nictiz.nl/fhir/StructureDefinition/ext-CopyIndicator">
               <valueBoolean value="true"/>
            </extension>
            <extension url="http://nictiz.nl/fhir/StructureDefinition/ext-EdifactReferenceNumber">
               <valueString value="111222"/>
            </extension>
            <identifier>
               <value value="22222"/>
            </identifier>
            <status value="final"/>
            <category>
               <coding>
                  <system value="http://terminology.hl7.org/CodeSystem/observation-category"/>
                  <code value="laboratory"/>
                  <display value="Laboratory"/>
               </coding>
            </category>
            <code>
               <coding>
                  <system value="https://referentiemodel.nhg.org/tabellen/nhg-tabel-45-diagnostische-bepalingen"/>
                  <code value="523"/>
                  <display value="creatinine"/>
               </coding>
            </code>
            <subject>
               <reference value="Patient/patient"/>
               <type value="Patient"/>
               <display value="Patient, Elise Erelies"/>
            </subject>
            <effectiveDateTime value="${DATE, T, D, -30}"/>
            <performer>
               <reference value="Location/zorgaanbieder"/>
               <type value="Location"/>
               <display value="Healthcare provider (location), Klinisch chemisch Lab 't Proefje"/>
            </performer>
            <valueQuantity>
               <value value="135"/>
               <unit value="micromol/l"/>
               <system value="http://unitsofmeasure.org"/>
               <code value="{micromol/l}"/>
            </valueQuantity>
            <interpretation>
               <coding>
                  <system value="http://snomed.info/sct"/>
                  <code value="281302008"/>
                  <display value="boven referentiebereik"/>
               </coding>
            </interpretation>
            <interpretation>
               <text value="Creatinine iets hoger dan normaal."/>
            </interpretation>
            <method>
               <coding>
                  <system value="http://snomed.info/sct"/>
                  <code value="258026004"/>
                  <display value="enzyme method"/>
               </coding>
            </method>
            <specimen>
               <reference value="Specimen/monster"/>
               <type value="Specimen"/>
               <display value="monster"/>
            </specimen>
            <referenceRange>
               <low>
                  <value value="62"/>
                  <unit value="micromol/l"/>
                  <system value="http://unitsofmeasure.org"/>
                  <code value="{micromol/l}"/>
               </low>
               <high>
                  <value value="134"/>
                  <unit value="micromol/l"/>
                  <system value="http://unitsofmeasure.org"/>
                  <code value="{micromol/l}"/>
               </high>
            </referenceRange>
         </Observation>
      </resource>
      <search>
         <mode value="match"/>
      </search>
   </entry>
   <entry>
      <fullUrl value="http://example.nictiz.nl/fhir/Observation/LaboratoryTest-03"/>
      <resource>
         <Observation>
            <id value="LaboratoryTest-03"/>
            <meta>
               <profile value="http://nictiz.nl/fhir/StructureDefinition/nl-core-LaboratoryTestResult"/>
            </meta>
            <extension url="http://nictiz.nl/fhir/StructureDefinition/ext-CopyIndicator">
               <valueBoolean value="true"/>
            </extension>
            <extension url="http://nictiz.nl/fhir/StructureDefinition/ext-EdifactReferenceNumber">
               <valueString value="111222"/>
            </extension>
            <identifier>
               <value value="33333"/>
            </identifier>
            <status value="final"/>
            <category>
               <coding>
                  <system value="http://terminology.hl7.org/CodeSystem/observation-category"/>
                  <code value="laboratory"/>
                  <display value="Laboratory"/>
               </coding>
            </category>
            <code>
               <coding>
                  <system value="https://referentiemodel.nhg.org/tabellen/nhg-tabel-45-diagnostische-bepalingen"/>
                  <code value="40"/>
                  <display value="albumine/creatinine ratio urine (ACR)"/>
               </coding>
            </code>
            <subject>
               <reference value="Patient/patient"/>
               <type value="Patient"/>
               <display value="Patient, Elise Erelies"/>
            </subject>
            <effectiveDateTime value="${DATE, T, D, -30}"/>
            <performer>
               <reference value="Location/zorgaanbieder"/>
               <type value="Location"/>
               <display value="Healthcare provider (location), Klinisch chemisch Lab 't Proefje"/>
            </performer>
            <valueQuantity>
               <value value="2"/>
               <unit value="mg albumine/mmol creatinine"/>
               <system value="http://unitsofmeasure.org"/>
               <code value="{mg albumine/mmol creatinine}"/>
            </valueQuantity>
            <interpretation>
               <text value="Goede uitslag voor een patient van 75 jaar."/>
            </interpretation>
            <method>
               <coding>
                  <system value="http://snomed.info/sct"/>
                  <code value="258026004"/>
                  <display value="enzyme method"/>
               </coding>
            </method>
            <specimen>
               <reference value="Specimen/monster"/>
               <type value="Specimen"/>
               <display value="monster"/>
            </specimen>
            <referenceRange>
               <high>
                  <value value="3"/>
                  <unit value="mg albumine/mmol creatinine"/>
                  <system value="http://unitsofmeasure.org"/>
                  <code value="{mg albumine/mmol creatinine}"/>
               </high>
            </referenceRange>
         </Observation>
      </resource>
      <search>
         <mode value="match"/>
      </search>
   </entry>
   <entry>
      <fullUrl value="http://example.nictiz.nl/fhir/Observation/LaboratoryTest-04"/>
      <resource>
         <Observation>
            <id value="LaboratoryTest-04"/>
            <meta>
               <profile value="http://nictiz.nl/fhir/StructureDefinition/nl-core-LaboratoryTestResult"/>
            </meta>
            <extension url="http://nictiz.nl/fhir/StructureDefinition/ext-CopyIndicator">
               <valueBoolean value="true"/>
            </extension>
            <extension url="http://nictiz.nl/fhir/StructureDefinition/ext-EdifactReferenceNumber">
               <valueString value="111222"/>
            </extension>
            <identifier>
               <value value="44444"/>
            </identifier>
            <status value="final"/>
            <category>
               <coding>
                  <system value="http://terminology.hl7.org/CodeSystem/observation-category"/>
                  <code value="laboratory"/>
                  <display value="Laboratory"/>
               </coding>
            </category>
            <code>
               <coding>
                  <system value="https://referentiemodel.nhg.org/tabellen/nhg-tabel-45-diagnostische-bepalingen"/>
                  <code value="38"/>
                  <display value="albumine urine portie"/>
               </coding>
            </code>
            <subject>
               <reference value="Patient/patient"/>
               <type value="Patient"/>
               <display value="Patient, Elise Erelies"/>
            </subject>
            <effectiveDateTime value="${DATE, T, D, -30}"/>
            <performer>
               <reference value="Location/zorgaanbieder"/>
               <type value="Location"/>
               <display value="Healthcare provider (location), Klinisch chemisch Lab 't Proefje"/>
            </performer>
            <valueQuantity>
               <value value="0"/>
               <unit value="mg/L"/>
               <system value="http://unitsofmeasure.org"/>
               <code value="mg/L"/>
            </valueQuantity>
            <interpretation>
               <text value="Zie ratio voor interpretatie."/>
            </interpretation>
            <specimen>
               <reference value="Specimen/monster"/>
               <type value="Specimen"/>
               <display value="monster"/>
            </specimen>
         </Observation>
      </resource>
      <search>
         <mode value="match"/>
      </search>
   </entry>
   <entry>
      <fullUrl value="http://example.nictiz.nl/fhir/Patient/patient"/>
      <resource>
         <Patient>
            <id value="patient"/>
            <meta>
               <profile value="http://nictiz.nl/fhir/StructureDefinition/nl-core-Patient"/>
            </meta>
            <identifier>
               <system value="http://fhir.nl/fhir/NamingSystem/bsn"/>
               <value value="999999114"/>
            </identifier>
            <name>
               <use value="official"/>
               <text value="Elise Erelies"/>
               <family value="Erelies">
                  <extension url="http://hl7.org/fhir/StructureDefinition/humanname-own-name">
                     <valueString value="Erelies"/>
                  </extension>
               </family>
               <given value="Elise">
                  <extension url="http://hl7.org/fhir/StructureDefinition/iso21090-EN-qualifier">
                     <valueCode value="BR"/>
                  </extension>
               </given>
            </name>
            <gender value="female">
               <extension url="http://nictiz.nl/fhir/StructureDefinition/ext-CodeSpecification">
                  <valueCodeableConcept>
                     <coding>
                        <system value="http://terminology.hl7.org/CodeSystem/v3-AdministrativeGender"/>
                        <code value="F"/>
                        <display value="Vrouw"/>
                     </coding>
                  </valueCodeableConcept>
               </extension>
            </gender>
            <birthDate value="1950-11-01"/>
         </Patient>
      </resource>
      <search>
         <mode value="include"/>
      </search>
   </entry>
</Bundle>
