<Bundle xmlns="http://hl7.org/fhir">
   <id value="mg-mp-mg-kwal-WDS-script0-v30"/>
   <type value="transaction"/>
   <link>
      <relation value="self"/>
      <url value="http://dummy.nictiz.nl/dummyquery"/>
   </link>
   <entry>
      <fullUrl value="urn:uuid:0d93ad6d-6a9d-11ec-0000-020000000000"/>
      <resource>
         <MedicationRequest>
            <meta>
               <profile value="http://nictiz.nl/fhir/StructureDefinition/mp-VariableDosingRegimen"/>
            </meta>
            <extension url="http://nictiz.nl/fhir/StructureDefinition/ext-PharmaceuticalTreatment.Identifier">
               <valueIdentifier>
                  <system value="urn:oid:2.16.840.1.113883.2.4.3.11.999.77.1.1"/>
                  <value value="MBH_300_script0_QA3"/>
               </valueIdentifier>
            </extension>
            <extension url="http://nictiz.nl/fhir/StructureDefinition/ext-RegistrationDateTime">
               <valueDateTime value="${DATE, T, D, -25}T10:11:00+02:00"/>
            </extension>
            <extension url="http://nictiz.nl/fhir/StructureDefinition/ext-RenderedDosageInstruction">
               <valueString value="eerst gedurende 1 dag elke dag om 18:00 2 stuks, dan gedurende 1 dag elke dag om 18:00 3 stuks, dan gedurende 1 dag elke dag om 18:00 3 stuks, dan gedurende 1 dag elke dag om 18:00 3 stuks, dan gedurende 1 dag elke dag om 18:00 2 stuks, dan gedurende 1 dag elke dag om 18:00 3 stuks, Oraal"/>
            </extension>
            <extension url="http://nictiz.nl/fhir/StructureDefinition/ext-TimeInterval.Period">
               <valuePeriod>
                  <extension url="http://nictiz.nl/fhir/StructureDefinition/ext-TimeInterval.Duration">
                     <valueDuration>
                        <value value="6"/>
                        <unit value="dag"/>
                        <system value="http://unitsofmeasure.org"/>
                        <code value="d"/>
                     </valueDuration>
                  </extension>
                  <start value="${DATE, T, D, -25}T00:00:00+02:00"/>
               </valuePeriod>
            </extension>
            <identifier>
               <system value="urn:oid:2.16.840.1.113883.2.4.3.11.999.77.632.1"/>
               <value value="MBH_300_script0_QA3_WDS1"/>
            </identifier>
            <status value="unknown"/>
            <intent value="order"/>
            <category>
               <coding>
                  <system value="http://snomed.info/sct"/>
                  <code value="395067002"/>
                  <display value="optimaliseren van dosering van medicatie"/>
               </coding>
            </category>
            <medicationReference>
               <reference value="urn:uuid:ca0c3ae9-6aff-11ec-0000-020000000000"/>
               <type value="Medication"/>
               <display value="ACENOCOUMAROL TABLET 1MG"/>
            </medicationReference>
            <subject>
               <reference value="urn:uuid:921e6ff8-6b68-11ec-0000-020000000000"/>
               <type value="Patient"/>
               <display value="Patient, G. XXX_Groot"/>
            </subject>
            <requester>
               <reference value="urn:uuid:8d3d1824-6aeb-11ec-0000-020000000000"/>
               <type value="PractitionerRole"/>
               <display value="Healthcare professional (role), Tanja de Bakker, Trombosediensten, Trombosedienst Ons Dorp"/>
            </requester>
            <basedOn>
               <type value="MedicationRequest"/>
               <identifier>
                  <system value="urn:oid:2.16.840.1.113883.2.4.3.11.999.77.16076005.1"/>
                  <value value="MBH_300_script0_QA3_MA"/>
               </identifier>
               <display value="relatie naar medicatieafspraak met identificatie: MBH_300_script0_QA3_MA || 2.16.840.1.113883.2.4.3.11.999.77.16076005.1"/>
            </basedOn>
            <note>
               <text value="gemeten INR waarde: 2,3"/>
            </note>
            <dosageInstruction>
               <sequence value="1"/>
               <timing>
                  <repeat>
                     <extension url="http://hl7.org/fhir/StructureDefinition/timing-exact">
                        <valueBoolean value="false"/>
                     </extension>
                     <boundsDuration>
                        <value value="1"/>
                        <unit value="dag"/>
                        <system value="http://unitsofmeasure.org"/>
                        <code value="d"/>
                     </boundsDuration>
                     <timeOfDay value="18:00:00"/>
                  </repeat>
               </timing>
               <route>
                  <coding>
                     <system value="urn:oid:2.16.840.1.113883.2.4.4.9"/>
                     <code value="9"/>
                     <display value="Oraal"/>
                  </coding>
               </route>
               <doseAndRate>
                  <doseQuantity>
                     <extension url="http://hl7.org/fhir/StructureDefinition/iso21090-PQ-translation">
                        <valueQuantity>
                           <value value="2"/>
                           <unit value="stuk"/>
                           <system value="urn:oid:2.16.840.1.113883.2.4.4.1.900.2"/>
                           <code value="245"/>
                        </valueQuantity>
                     </extension>
                     <value value="2"/>
                     <unit value="stuk"/>
                     <system value="http://unitsofmeasure.org"/>
                     <code value="1"/>
                  </doseQuantity>
               </doseAndRate>
            </dosageInstruction>
            <dosageInstruction>
               <sequence value="2"/>
               <timing>
                  <repeat>
                     <extension url="http://hl7.org/fhir/StructureDefinition/timing-exact">
                        <valueBoolean value="false"/>
                     </extension>
                     <boundsDuration>
                        <value value="1"/>
                        <unit value="dag"/>
                        <system value="http://unitsofmeasure.org"/>
                        <code value="d"/>
                     </boundsDuration>
                     <timeOfDay value="18:00:00"/>
                  </repeat>
               </timing>
               <route>
                  <coding>
                     <system value="urn:oid:2.16.840.1.113883.2.4.4.9"/>
                     <code value="9"/>
                     <display value="Oraal"/>
                  </coding>
               </route>
               <doseAndRate>
                  <doseQuantity>
                     <extension url="http://hl7.org/fhir/StructureDefinition/iso21090-PQ-translation">
                        <valueQuantity>
                           <value value="3"/>
                           <unit value="stuk"/>
                           <system value="urn:oid:2.16.840.1.113883.2.4.4.1.900.2"/>
                           <code value="245"/>
                        </valueQuantity>
                     </extension>
                     <value value="3"/>
                     <unit value="stuk"/>
                     <system value="http://unitsofmeasure.org"/>
                     <code value="1"/>
                  </doseQuantity>
               </doseAndRate>
            </dosageInstruction>
            <dosageInstruction>
               <sequence value="3"/>
               <timing>
                  <repeat>
                     <extension url="http://hl7.org/fhir/StructureDefinition/timing-exact">
                        <valueBoolean value="false"/>
                     </extension>
                     <boundsDuration>
                        <value value="1"/>
                        <unit value="dag"/>
                        <system value="http://unitsofmeasure.org"/>
                        <code value="d"/>
                     </boundsDuration>
                     <timeOfDay value="18:00:00"/>
                  </repeat>
               </timing>
               <route>
                  <coding>
                     <system value="urn:oid:2.16.840.1.113883.2.4.4.9"/>
                     <code value="9"/>
                     <display value="Oraal"/>
                  </coding>
               </route>
               <doseAndRate>
                  <doseQuantity>
                     <extension url="http://hl7.org/fhir/StructureDefinition/iso21090-PQ-translation">
                        <valueQuantity>
                           <value value="3"/>
                           <unit value="stuk"/>
                           <system value="urn:oid:2.16.840.1.113883.2.4.4.1.900.2"/>
                           <code value="245"/>
                        </valueQuantity>
                     </extension>
                     <value value="3"/>
                     <unit value="stuk"/>
                     <system value="http://unitsofmeasure.org"/>
                     <code value="1"/>
                  </doseQuantity>
               </doseAndRate>
            </dosageInstruction>
            <dosageInstruction>
               <sequence value="4"/>
               <timing>
                  <repeat>
                     <extension url="http://hl7.org/fhir/StructureDefinition/timing-exact">
                        <valueBoolean value="false"/>
                     </extension>
                     <boundsDuration>
                        <value value="1"/>
                        <unit value="dag"/>
                        <system value="http://unitsofmeasure.org"/>
                        <code value="d"/>
                     </boundsDuration>
                     <timeOfDay value="18:00:00"/>
                  </repeat>
               </timing>
               <route>
                  <coding>
                     <system value="urn:oid:2.16.840.1.113883.2.4.4.9"/>
                     <code value="9"/>
                     <display value="Oraal"/>
                  </coding>
               </route>
               <doseAndRate>
                  <doseQuantity>
                     <extension url="http://hl7.org/fhir/StructureDefinition/iso21090-PQ-translation">
                        <valueQuantity>
                           <value value="3"/>
                           <unit value="stuk"/>
                           <system value="urn:oid:2.16.840.1.113883.2.4.4.1.900.2"/>
                           <code value="245"/>
                        </valueQuantity>
                     </extension>
                     <value value="3"/>
                     <unit value="stuk"/>
                     <system value="http://unitsofmeasure.org"/>
                     <code value="1"/>
                  </doseQuantity>
               </doseAndRate>
            </dosageInstruction>
            <dosageInstruction>
               <sequence value="5"/>
               <timing>
                  <repeat>
                     <extension url="http://hl7.org/fhir/StructureDefinition/timing-exact">
                        <valueBoolean value="false"/>
                     </extension>
                     <boundsDuration>
                        <value value="1"/>
                        <unit value="dag"/>
                        <system value="http://unitsofmeasure.org"/>
                        <code value="d"/>
                     </boundsDuration>
                     <timeOfDay value="18:00:00"/>
                  </repeat>
               </timing>
               <route>
                  <coding>
                     <system value="urn:oid:2.16.840.1.113883.2.4.4.9"/>
                     <code value="9"/>
                     <display value="Oraal"/>
                  </coding>
               </route>
               <doseAndRate>
                  <doseQuantity>
                     <extension url="http://hl7.org/fhir/StructureDefinition/iso21090-PQ-translation">
                        <valueQuantity>
                           <value value="2"/>
                           <unit value="stuk"/>
                           <system value="urn:oid:2.16.840.1.113883.2.4.4.1.900.2"/>
                           <code value="245"/>
                        </valueQuantity>
                     </extension>
                     <value value="2"/>
                     <unit value="stuk"/>
                     <system value="http://unitsofmeasure.org"/>
                     <code value="1"/>
                  </doseQuantity>
               </doseAndRate>
            </dosageInstruction>
            <dosageInstruction>
               <sequence value="6"/>
               <timing>
                  <repeat>
                     <extension url="http://hl7.org/fhir/StructureDefinition/timing-exact">
                        <valueBoolean value="false"/>
                     </extension>
                     <boundsDuration>
                        <value value="1"/>
                        <unit value="dag"/>
                        <system value="http://unitsofmeasure.org"/>
                        <code value="d"/>
                     </boundsDuration>
                     <timeOfDay value="18:00:00"/>
                  </repeat>
               </timing>
               <route>
                  <coding>
                     <system value="urn:oid:2.16.840.1.113883.2.4.4.9"/>
                     <code value="9"/>
                     <display value="Oraal"/>
                  </coding>
               </route>
               <doseAndRate>
                  <doseQuantity>
                     <extension url="http://hl7.org/fhir/StructureDefinition/iso21090-PQ-translation">
                        <valueQuantity>
                           <value value="3"/>
                           <unit value="stuk"/>
                           <system value="urn:oid:2.16.840.1.113883.2.4.4.1.900.2"/>
                           <code value="245"/>
                        </valueQuantity>
                     </extension>
                     <value value="3"/>
                     <unit value="stuk"/>
                     <system value="http://unitsofmeasure.org"/>
                     <code value="1"/>
                  </doseQuantity>
               </doseAndRate>
            </dosageInstruction>
         </MedicationRequest>
      </resource>
      <request>
         <method value="POST"/>
         <url value="MedicationRequest"/>
      </request>
   </entry>
   <entry>
      <fullUrl value="urn:uuid:96e2806d-6b37-11ec-0000-020000000000"/>
      <resource>
         <MedicationRequest>
            <meta>
               <profile value="http://nictiz.nl/fhir/StructureDefinition/mp-VariableDosingRegimen"/>
            </meta>
            <extension url="http://nictiz.nl/fhir/StructureDefinition/ext-PharmaceuticalTreatment.Identifier">
               <valueIdentifier>
                  <system value="urn:oid:2.16.840.1.113883.2.4.3.11.999.77.1.1"/>
                  <value value="MBH_300_script0_QA3"/>
               </valueIdentifier>
            </extension>
            <extension url="http://nictiz.nl/fhir/StructureDefinition/ext-RegistrationDateTime">
               <valueDateTime value="${DATE, T, D, -18}T09:10:00+02:00"/>
            </extension>
            <extension url="http://nictiz.nl/fhir/StructureDefinition/ext-RenderedDosageInstruction">
               <valueString value="eerst gedurende 1 dag 2 stuks 's avonds, dan gedurende 1 dag 3 stuks 's avonds, dan gedurende 1 dag 2 stuks 's avonds, dan gedurende 1 dag 3 stuks 's avonds, dan gedurende 1 dag 3 stuks 's avonds, dan gedurende 1 dag 2 stuks 's avonds, dan gedurende 1 dag 3 stuks 's avonds, oraal"/>
            </extension>
            <extension url="http://nictiz.nl/fhir/StructureDefinition/ext-TimeInterval.Period">
               <valuePeriod>
                  <extension url="http://nictiz.nl/fhir/StructureDefinition/ext-TimeInterval.Duration">
                     <valueDuration>
                        <value value="7"/>
                        <unit value="dag"/>
                        <system value="http://unitsofmeasure.org"/>
                        <code value="d"/>
                     </valueDuration>
                  </extension>
                  <start value="${DATE, T, D, -18}T00:00:00+02:00"/>
               </valuePeriod>
            </extension>
            <identifier>
               <system value="urn:oid:2.16.840.1.113883.2.4.3.11.999.77.632.1"/>
               <value value="MBH_300_script0_QA3_WDS2"/>
            </identifier>
            <status value="unknown"/>
            <intent value="order"/>
            <category>
               <coding>
                  <system value="http://snomed.info/sct"/>
                  <code value="395067002"/>
                  <display value="optimaliseren van dosering van medicatie"/>
               </coding>
            </category>
            <medicationReference>
               <reference value="urn:uuid:ca0c3ae9-6aff-11ec-0000-020000000000"/>
               <type value="Medication"/>
               <display value="ACENOCOUMAROL TABLET 1MG"/>
            </medicationReference>
            <subject>
               <reference value="urn:uuid:921e6ff8-6b68-11ec-0000-020000000000"/>
               <type value="Patient"/>
               <display value="Patient, G. XXX_Groot"/>
            </subject>
            <requester>
               <reference value="urn:uuid:8d3d1824-6aeb-11ec-0000-020000000000"/>
               <type value="PractitionerRole"/>
               <display value="Healthcare professional (role), Tanja de Bakker, Trombosediensten, Trombosedienst Ons Dorp"/>
            </requester>
            <basedOn>
               <type value="MedicationRequest"/>
               <identifier>
                  <system value="urn:oid:2.16.840.1.113883.2.4.3.11.999.77.16076005.1"/>
                  <value value="MBH_300_script0_QA3_MA"/>
               </identifier>
               <display value="relatie naar medicatieafspraak met identificatie: MBH_300_script0_QA3_MA || 2.16.840.1.113883.2.4.3.11.999.77.16076005.1"/>
            </basedOn>
            <note>
               <text value="Gemeten INR-waarde: 2.2"/>
            </note>
            <dosageInstruction>
               <sequence value="1"/>
               <timing>
                  <repeat>
                     <extension url="http://hl7.org/fhir/StructureDefinition/timing-exact">
                        <valueBoolean value="false"/>
                     </extension>
                     <boundsDuration>
                        <value value="1"/>
                        <unit value="dag"/>
                        <system value="http://unitsofmeasure.org"/>
                        <code value="d"/>
                     </boundsDuration>
                     <when value="EVE"/>
                  </repeat>
               </timing>
               <route>
                  <coding>
                     <system value="urn:oid:2.16.840.1.113883.2.4.4.9"/>
                     <code value="9"/>
                     <display value="oraal"/>
                  </coding>
               </route>
               <doseAndRate>
                  <doseQuantity>
                     <extension url="http://hl7.org/fhir/StructureDefinition/iso21090-PQ-translation">
                        <valueQuantity>
                           <value value="2"/>
                           <unit value="stuk"/>
                           <system value="urn:oid:2.16.840.1.113883.2.4.4.1.900.2"/>
                           <code value="245"/>
                        </valueQuantity>
                     </extension>
                     <value value="2"/>
                     <unit value="stuk"/>
                     <system value="http://unitsofmeasure.org"/>
                     <code value="1"/>
                  </doseQuantity>
               </doseAndRate>
            </dosageInstruction>
            <dosageInstruction>
               <sequence value="2"/>
               <timing>
                  <repeat>
                     <extension url="http://hl7.org/fhir/StructureDefinition/timing-exact">
                        <valueBoolean value="false"/>
                     </extension>
                     <boundsDuration>
                        <value value="1"/>
                        <unit value="dag"/>
                        <system value="http://unitsofmeasure.org"/>
                        <code value="d"/>
                     </boundsDuration>
                     <when value="EVE"/>
                  </repeat>
               </timing>
               <route>
                  <coding>
                     <system value="urn:oid:2.16.840.1.113883.2.4.4.9"/>
                     <code value="9"/>
                     <display value="oraal"/>
                  </coding>
               </route>
               <doseAndRate>
                  <doseQuantity>
                     <extension url="http://hl7.org/fhir/StructureDefinition/iso21090-PQ-translation">
                        <valueQuantity>
                           <value value="3"/>
                           <unit value="stuk"/>
                           <system value="urn:oid:2.16.840.1.113883.2.4.4.1.900.2"/>
                           <code value="245"/>
                        </valueQuantity>
                     </extension>
                     <value value="3"/>
                     <unit value="stuk"/>
                     <system value="http://unitsofmeasure.org"/>
                     <code value="1"/>
                  </doseQuantity>
               </doseAndRate>
            </dosageInstruction>
            <dosageInstruction>
               <sequence value="3"/>
               <timing>
                  <repeat>
                     <extension url="http://hl7.org/fhir/StructureDefinition/timing-exact">
                        <valueBoolean value="false"/>
                     </extension>
                     <boundsDuration>
                        <value value="1"/>
                        <unit value="dag"/>
                        <system value="http://unitsofmeasure.org"/>
                        <code value="d"/>
                     </boundsDuration>
                     <when value="EVE"/>
                  </repeat>
               </timing>
               <route>
                  <coding>
                     <system value="urn:oid:2.16.840.1.113883.2.4.4.9"/>
                     <code value="9"/>
                     <display value="oraal"/>
                  </coding>
               </route>
               <doseAndRate>
                  <doseQuantity>
                     <extension url="http://hl7.org/fhir/StructureDefinition/iso21090-PQ-translation">
                        <valueQuantity>
                           <value value="2"/>
                           <unit value="stuk"/>
                           <system value="urn:oid:2.16.840.1.113883.2.4.4.1.900.2"/>
                           <code value="245"/>
                        </valueQuantity>
                     </extension>
                     <value value="2"/>
                     <unit value="stuk"/>
                     <system value="http://unitsofmeasure.org"/>
                     <code value="1"/>
                  </doseQuantity>
               </doseAndRate>
            </dosageInstruction>
            <dosageInstruction>
               <sequence value="4"/>
               <timing>
                  <repeat>
                     <extension url="http://hl7.org/fhir/StructureDefinition/timing-exact">
                        <valueBoolean value="false"/>
                     </extension>
                     <boundsDuration>
                        <value value="1"/>
                        <unit value="dag"/>
                        <system value="http://unitsofmeasure.org"/>
                        <code value="d"/>
                     </boundsDuration>
                     <when value="EVE"/>
                  </repeat>
               </timing>
               <route>
                  <coding>
                     <system value="urn:oid:2.16.840.1.113883.2.4.4.9"/>
                     <code value="9"/>
                     <display value="oraal"/>
                  </coding>
               </route>
               <doseAndRate>
                  <doseQuantity>
                     <extension url="http://hl7.org/fhir/StructureDefinition/iso21090-PQ-translation">
                        <valueQuantity>
                           <value value="3"/>
                           <unit value="stuk"/>
                           <system value="urn:oid:2.16.840.1.113883.2.4.4.1.900.2"/>
                           <code value="245"/>
                        </valueQuantity>
                     </extension>
                     <value value="3"/>
                     <unit value="stuk"/>
                     <system value="http://unitsofmeasure.org"/>
                     <code value="1"/>
                  </doseQuantity>
               </doseAndRate>
            </dosageInstruction>
            <dosageInstruction>
               <sequence value="5"/>
               <timing>
                  <repeat>
                     <boundsDuration>
                        <value value="1"/>
                        <unit value="dag"/>
                        <system value="http://unitsofmeasure.org"/>
                        <code value="d"/>
                     </boundsDuration>
                     <when value="EVE"/>
                  </repeat>
               </timing>
               <route>
                  <coding>
                     <system value="urn:oid:2.16.840.1.113883.2.4.4.9"/>
                     <code value="9"/>
                     <display value="oraal"/>
                  </coding>
               </route>
               <doseAndRate>
                  <doseQuantity>
                     <extension url="http://hl7.org/fhir/StructureDefinition/iso21090-PQ-translation">
                        <valueQuantity>
                           <value value="3"/>
                           <unit value="stuk"/>
                           <system value="urn:oid:2.16.840.1.113883.2.4.4.1.900.2"/>
                           <code value="245"/>
                        </valueQuantity>
                     </extension>
                     <value value="3"/>
                     <unit value="stuk"/>
                     <system value="http://unitsofmeasure.org"/>
                     <code value="1"/>
                  </doseQuantity>
               </doseAndRate>
            </dosageInstruction>
            <dosageInstruction>
               <sequence value="6"/>
               <timing>
                  <repeat>
                     <extension url="http://hl7.org/fhir/StructureDefinition/timing-exact">
                        <valueBoolean value="false"/>
                     </extension>
                     <boundsDuration>
                        <value value="1"/>
                        <unit value="dag"/>
                        <system value="http://unitsofmeasure.org"/>
                        <code value="d"/>
                     </boundsDuration>
                     <when value="EVE"/>
                  </repeat>
               </timing>
               <route>
                  <coding>
                     <system value="urn:oid:2.16.840.1.113883.2.4.4.9"/>
                     <code value="9"/>
                     <display value="oraal"/>
                  </coding>
               </route>
               <doseAndRate>
                  <doseQuantity>
                     <extension url="http://hl7.org/fhir/StructureDefinition/iso21090-PQ-translation">
                        <valueQuantity>
                           <value value="2"/>
                           <unit value="stuk"/>
                           <system value="urn:oid:2.16.840.1.113883.2.4.4.1.900.2"/>
                           <code value="245"/>
                        </valueQuantity>
                     </extension>
                     <value value="2"/>
                     <unit value="stuk"/>
                     <system value="http://unitsofmeasure.org"/>
                     <code value="1"/>
                  </doseQuantity>
               </doseAndRate>
            </dosageInstruction>
            <dosageInstruction>
               <sequence value="7"/>
               <timing>
                  <repeat>
                     <extension url="http://hl7.org/fhir/StructureDefinition/timing-exact">
                        <valueBoolean value="false"/>
                     </extension>
                     <boundsDuration>
                        <value value="1"/>
                        <unit value="dag"/>
                        <system value="http://unitsofmeasure.org"/>
                        <code value="d"/>
                     </boundsDuration>
                     <when value="EVE"/>
                  </repeat>
               </timing>
               <route>
                  <coding>
                     <system value="urn:oid:2.16.840.1.113883.2.4.4.9"/>
                     <code value="9"/>
                     <display value="oraal"/>
                  </coding>
               </route>
               <doseAndRate>
                  <doseQuantity>
                     <extension url="http://hl7.org/fhir/StructureDefinition/iso21090-PQ-translation">
                        <valueQuantity>
                           <value value="3"/>
                           <unit value="stuk"/>
                           <system value="urn:oid:2.16.840.1.113883.2.4.4.1.900.2"/>
                           <code value="245"/>
                        </valueQuantity>
                     </extension>
                     <value value="3"/>
                     <unit value="stuk"/>
                     <system value="http://unitsofmeasure.org"/>
                     <code value="1"/>
                  </doseQuantity>
               </doseAndRate>
            </dosageInstruction>
         </MedicationRequest>
      </resource>
      <request>
         <method value="POST"/>
         <url value="MedicationRequest"/>
      </request>
   </entry>
   <entry>
      <fullUrl value="urn:uuid:0ce7766d-6b21-11ec-0000-020000000000"/>
      <resource>
         <MedicationRequest>
            <meta>
               <profile value="http://nictiz.nl/fhir/StructureDefinition/mp-VariableDosingRegimen"/>
            </meta>
            <extension url="http://nictiz.nl/fhir/StructureDefinition/ext-PharmaceuticalTreatment.Identifier">
               <valueIdentifier>
                  <system value="urn:oid:2.16.840.1.113883.2.4.3.11.999.77.1.1"/>
                  <value value="MBH_300_script0_QA4"/>
               </valueIdentifier>
            </extension>
            <extension url="http://nictiz.nl/fhir/StructureDefinition/ext-RegistrationDateTime">
               <valueDateTime value="${DATE, T, D, -12}T09:50:00+02:00"/>
            </extension>
            <extension url="http://nictiz.nl/fhir/StructureDefinition/ext-RenderedDosageInstruction">
               <valueString value="eerst gedurende 1 dag 1 maal per dag 0 stuks, dan gedurende 1 dag 1 maal per dag 1 stuk, dan gedurende 1 dag 1 maal per dag 1 stuk, dan gedurende 1 dag 1 maal per dag 1 stuk, Oraal"/>
            </extension>
            <extension url="http://nictiz.nl/fhir/StructureDefinition/ext-TimeInterval.Period">
               <valuePeriod>
                  <extension url="http://nictiz.nl/fhir/StructureDefinition/ext-TimeInterval.Duration">
                     <valueDuration>
                        <value value="4"/>
                        <unit value="dag"/>
                        <system value="http://unitsofmeasure.org"/>
                        <code value="d"/>
                     </valueDuration>
                  </extension>
                  <start value="${DATE, T, D, -12}T00:00:00+02:00"/>
               </valuePeriod>
            </extension>
            <identifier>
               <system value="urn:oid:2.16.840.1.113883.2.4.3.11.999.77.632.1"/>
               <value value="MBH_300_script0_QA4_WDS1"/>
            </identifier>
            <status value="unknown"/>
            <intent value="order"/>
            <category>
               <coding>
                  <system value="http://snomed.info/sct"/>
                  <code value="395067002"/>
                  <display value="optimaliseren van dosering van medicatie"/>
               </coding>
            </category>
            <medicationReference>
               <reference value="urn:uuid:4c6ca204-6b1b-11ec-0000-020000000000"/>
               <type value="Medication"/>
               <display value="FENPROCOUMON TABLET 3MG"/>
            </medicationReference>
            <subject>
               <reference value="urn:uuid:921e6ff8-6b68-11ec-0000-020000000000"/>
               <type value="Patient"/>
               <display value="Patient, G. XXX_Groot"/>
            </subject>
            <requester>
               <reference value="urn:uuid:8d3d1824-6aeb-11ec-0000-020000000000"/>
               <type value="PractitionerRole"/>
               <display value="Healthcare professional (role), Tanja de Bakker, Trombosediensten, Trombosedienst Ons Dorp"/>
            </requester>
            <basedOn>
               <type value="MedicationRequest"/>
               <identifier>
                  <system value="urn:oid:2.16.840.1.113883.2.4.3.11.999.77.16076005.1"/>
                  <value value="MBH_300_script0_QA4_MA"/>
               </identifier>
               <display value="relatie naar medicatieafspraak met identificatie: MBH_300_script0_QA4_MA || 2.16.840.1.113883.2.4.3.11.999.77.16076005.1"/>
            </basedOn>
            <note>
               <text value="gemeten INR waarde: 2,1"/>
            </note>
            <dosageInstruction>
               <sequence value="1"/>
               <timing>
                  <repeat>
                     <boundsDuration>
                        <value value="1"/>
                        <unit value="dag"/>
                        <system value="http://unitsofmeasure.org"/>
                        <code value="d"/>
                     </boundsDuration>
                     <frequency value="1"/>
                     <period value="1"/>
                     <periodUnit value="d"/>
                  </repeat>
               </timing>
               <route>
                  <coding>
                     <system value="urn:oid:2.16.840.1.113883.2.4.4.9"/>
                     <code value="9"/>
                     <display value="Oraal"/>
                  </coding>
               </route>
               <doseAndRate>
                  <doseQuantity>
                     <extension url="http://hl7.org/fhir/StructureDefinition/iso21090-PQ-translation">
                        <valueQuantity>
                           <value value="0"/>
                           <unit value="stuk"/>
                           <system value="urn:oid:2.16.840.1.113883.2.4.4.1.900.2"/>
                           <code value="245"/>
                        </valueQuantity>
                     </extension>
                     <value value="0"/>
                     <unit value="stuk"/>
                     <system value="http://unitsofmeasure.org"/>
                     <code value="1"/>
                  </doseQuantity>
               </doseAndRate>
            </dosageInstruction>
            <dosageInstruction>
               <sequence value="2"/>
               <timing>
                  <repeat>
                     <boundsDuration>
                        <value value="1"/>
                        <unit value="dag"/>
                        <system value="http://unitsofmeasure.org"/>
                        <code value="d"/>
                     </boundsDuration>
                     <frequency value="1"/>
                     <period value="1"/>
                     <periodUnit value="d"/>
                  </repeat>
               </timing>
               <route>
                  <coding>
                     <system value="urn:oid:2.16.840.1.113883.2.4.4.9"/>
                     <code value="9"/>
                     <display value="Oraal"/>
                  </coding>
               </route>
               <doseAndRate>
                  <doseQuantity>
                     <extension url="http://hl7.org/fhir/StructureDefinition/iso21090-PQ-translation">
                        <valueQuantity>
                           <value value="1"/>
                           <unit value="stuk"/>
                           <system value="urn:oid:2.16.840.1.113883.2.4.4.1.900.2"/>
                           <code value="245"/>
                        </valueQuantity>
                     </extension>
                     <value value="1"/>
                     <unit value="stuk"/>
                     <system value="http://unitsofmeasure.org"/>
                     <code value="1"/>
                  </doseQuantity>
               </doseAndRate>
            </dosageInstruction>
            <dosageInstruction>
               <sequence value="3"/>
               <timing>
                  <repeat>
                     <boundsDuration>
                        <value value="1"/>
                        <unit value="dag"/>
                        <system value="http://unitsofmeasure.org"/>
                        <code value="d"/>
                     </boundsDuration>
                     <frequency value="1"/>
                     <period value="1"/>
                     <periodUnit value="d"/>
                  </repeat>
               </timing>
               <route>
                  <coding>
                     <system value="urn:oid:2.16.840.1.113883.2.4.4.9"/>
                     <code value="9"/>
                     <display value="Oraal"/>
                  </coding>
               </route>
               <doseAndRate>
                  <doseQuantity>
                     <extension url="http://hl7.org/fhir/StructureDefinition/iso21090-PQ-translation">
                        <valueQuantity>
                           <value value="1"/>
                           <unit value="stuk"/>
                           <system value="urn:oid:2.16.840.1.113883.2.4.4.1.900.2"/>
                           <code value="245"/>
                        </valueQuantity>
                     </extension>
                     <value value="1"/>
                     <unit value="stuk"/>
                     <system value="http://unitsofmeasure.org"/>
                     <code value="1"/>
                  </doseQuantity>
               </doseAndRate>
            </dosageInstruction>
            <dosageInstruction>
               <sequence value="4"/>
               <timing>
                  <repeat>
                     <boundsDuration>
                        <value value="1"/>
                        <unit value="dag"/>
                        <system value="http://unitsofmeasure.org"/>
                        <code value="d"/>
                     </boundsDuration>
                     <frequency value="1"/>
                     <period value="1"/>
                     <periodUnit value="d"/>
                  </repeat>
               </timing>
               <route>
                  <coding>
                     <system value="urn:oid:2.16.840.1.113883.2.4.4.9"/>
                     <code value="9"/>
                     <display value="Oraal"/>
                  </coding>
               </route>
               <doseAndRate>
                  <doseQuantity>
                     <extension url="http://hl7.org/fhir/StructureDefinition/iso21090-PQ-translation">
                        <valueQuantity>
                           <value value="1"/>
                           <unit value="stuk"/>
                           <system value="urn:oid:2.16.840.1.113883.2.4.4.1.900.2"/>
                           <code value="245"/>
                        </valueQuantity>
                     </extension>
                     <value value="1"/>
                     <unit value="stuk"/>
                     <system value="http://unitsofmeasure.org"/>
                     <code value="1"/>
                  </doseQuantity>
               </doseAndRate>
            </dosageInstruction>
         </MedicationRequest>
      </resource>
      <request>
         <method value="POST"/>
         <url value="MedicationRequest"/>
      </request>
   </entry>
   <entry>
      <fullUrl value="urn:uuid:9fea1af5-6b22-11ec-0000-020000000000"/>
      <resource>
         <MedicationRequest>
            <meta>
               <profile value="http://nictiz.nl/fhir/StructureDefinition/mp-VariableDosingRegimen"/>
            </meta>
            <extension url="http://nictiz.nl/fhir/StructureDefinition/ext-PharmaceuticalTreatment.Identifier">
               <valueIdentifier>
                  <system value="urn:oid:2.16.840.1.113883.2.4.3.11.999.77.1.1"/>
                  <value value="MBH_300_script0_QA4"/>
               </valueIdentifier>
            </extension>
            <extension url="http://nictiz.nl/fhir/StructureDefinition/ext-RegistrationDateTime">
               <valueDateTime value="${DATE, T, D, -4}T09:45:00+02:00"/>
            </extension>
            <extension url="http://nictiz.nl/fhir/StructureDefinition/ext-RenderedDosageInstruction">
               <valueString value="eerst gedurende 1 dag 1 maal per dag 1 stuk, dan gedurende 1 dag 1 maal per dag 1 stuk, Oraal"/>
            </extension>
            <extension url="http://nictiz.nl/fhir/StructureDefinition/ext-TimeInterval.Period">
               <valuePeriod>
                  <extension url="http://nictiz.nl/fhir/StructureDefinition/ext-TimeInterval.Duration">
                     <valueDuration>
                        <value value="2"/>
                        <unit value="dag"/>
                        <system value="http://unitsofmeasure.org"/>
                        <code value="d"/>
                     </valueDuration>
                  </extension>
                  <start value="${DATE, T, D, -4}T00:00:00+02:00"/>
               </valuePeriod>
            </extension>
            <identifier>
               <system value="urn:oid:2.16.840.1.113883.2.4.3.11.999.77.632.1"/>
               <value value="MBH_300_script0_QA4_WDS2"/>
            </identifier>
            <status value="unknown"/>
            <intent value="order"/>
            <category>
               <coding>
                  <system value="http://snomed.info/sct"/>
                  <code value="395067002"/>
                  <display value="optimaliseren van dosering van medicatie"/>
               </coding>
            </category>
            <medicationReference>
               <reference value="urn:uuid:4c6ca204-6b1b-11ec-0000-020000000000"/>
               <type value="Medication"/>
               <display value="FENPROCOUMON TABLET 3MG"/>
            </medicationReference>
            <subject>
               <reference value="urn:uuid:921e6ff8-6b68-11ec-0000-020000000000"/>
               <type value="Patient"/>
               <display value="Patient, G. XXX_Groot"/>
            </subject>
            <requester>
               <reference value="urn:uuid:8d3d1824-6aeb-11ec-0000-020000000000"/>
               <type value="PractitionerRole"/>
               <display value="Healthcare professional (role), Tanja de Bakker, Trombosediensten, Trombosedienst Ons Dorp"/>
            </requester>
            <basedOn>
               <type value="MedicationRequest"/>
               <identifier>
                  <system value="urn:oid:2.16.840.1.113883.2.4.3.11.999.77.16076005.1"/>
                  <value value="MBH_300_script0_QA4_MA"/>
               </identifier>
               <display value="relatie naar medicatieafspraak met identificatie: MBH_300_script0_QA4_MA || 2.16.840.1.113883.2.4.3.11.999.77.16076005.1"/>
            </basedOn>
            <note>
               <text value="Gemeten INR waarde: 2.4"/>
            </note>
            <dosageInstruction>
               <sequence value="1"/>
               <timing>
                  <repeat>
                     <boundsDuration>
                        <value value="1"/>
                        <unit value="dag"/>
                        <system value="http://unitsofmeasure.org"/>
                        <code value="d"/>
                     </boundsDuration>
                     <frequency value="1"/>
                     <period value="1"/>
                     <periodUnit value="d"/>
                  </repeat>
               </timing>
               <route>
                  <coding>
                     <system value="urn:oid:2.16.840.1.113883.2.4.4.9"/>
                     <code value="9"/>
                     <display value="Oraal"/>
                  </coding>
               </route>
               <doseAndRate>
                  <doseQuantity>
                     <extension url="http://hl7.org/fhir/StructureDefinition/iso21090-PQ-translation">
                        <valueQuantity>
                           <value value="1"/>
                           <unit value="stuk"/>
                           <system value="urn:oid:2.16.840.1.113883.2.4.4.1.900.2"/>
                           <code value="245"/>
                        </valueQuantity>
                     </extension>
                     <value value="1"/>
                     <unit value="stuk"/>
                     <system value="http://unitsofmeasure.org"/>
                     <code value="1"/>
                  </doseQuantity>
               </doseAndRate>
            </dosageInstruction>
            <dosageInstruction>
               <sequence value="2"/>
               <timing>
                  <repeat>
                     <boundsDuration>
                        <value value="1"/>
                        <unit value="dag"/>
                        <system value="http://unitsofmeasure.org"/>
                        <code value="d"/>
                     </boundsDuration>
                     <frequency value="1"/>
                     <period value="1"/>
                     <periodUnit value="d"/>
                  </repeat>
               </timing>
               <route>
                  <coding>
                     <system value="urn:oid:2.16.840.1.113883.2.4.4.9"/>
                     <code value="9"/>
                     <display value="Oraal"/>
                  </coding>
               </route>
               <doseAndRate>
                  <doseQuantity>
                     <extension url="http://hl7.org/fhir/StructureDefinition/iso21090-PQ-translation">
                        <valueQuantity>
                           <value value="1"/>
                           <unit value="stuk"/>
                           <system value="urn:oid:2.16.840.1.113883.2.4.4.1.900.2"/>
                           <code value="245"/>
                        </valueQuantity>
                     </extension>
                     <value value="1"/>
                     <unit value="stuk"/>
                     <system value="http://unitsofmeasure.org"/>
                     <code value="1"/>
                  </doseQuantity>
               </doseAndRate>
            </dosageInstruction>
         </MedicationRequest>
      </resource>
      <request>
         <method value="POST"/>
         <url value="MedicationRequest"/>
      </request>
   </entry>
   <entry>
      <fullUrl value="urn:uuid:921e6ff8-6b68-11ec-0000-020000000000"/>
      <resource>
         <Patient>
            <meta>
               <profile value="http://nictiz.nl/fhir/StructureDefinition/nl-core-Patient"/>
            </meta>
            <identifier>
               <system value="http://fhir.nl/fhir/NamingSystem/bsn"/>
               <value value="999900596"/>
            </identifier>
            <name>
               <extension url="http://hl7.org/fhir/StructureDefinition/humanname-assembly-order">
                  <valueCode value="NL1"/>
               </extension>
               <use value="official"/>
               <text value="G. XXX_Groot"/>
               <family value="XXX_Groot">
                  <extension url="http://hl7.org/fhir/StructureDefinition/humanname-own-name">
                     <valueString value="XXX_Groot"/>
                  </extension>
               </family>
               <given value="G.">
                  <extension url="http://hl7.org/fhir/StructureDefinition/iso21090-EN-qualifier">
                     <valueCode value="IN"/>
                  </extension>
               </given>
            </name>
            <gender value="male">
               <extension url="http://nictiz.nl/fhir/StructureDefinition/ext-CodeSpecification">
                  <valueCodeableConcept>
                     <coding>
                        <system value="http://terminology.hl7.org/CodeSystem/v3-AdministrativeGender"/>
                        <code value="M"/>
                        <display value="Man"/>
                     </coding>
                  </valueCodeableConcept>
               </extension>
            </gender>
            <birthDate value="1963-11-01"/>
         </Patient>
      </resource>
      <request>
         <method value="POST"/>
         <url value="Patient"/>
      </request>
   </entry>
   <entry>
      <fullUrl value="urn:uuid:8d3d1824-6aeb-11ec-0000-020000000000"/>
      <resource>
         <PractitionerRole>
            <meta>
               <profile value="http://nictiz.nl/fhir/StructureDefinition/nl-core-HealthProfessional-PractitionerRole"/>
            </meta>
            <practitioner>
               <reference value="urn:uuid:7cac7558-6b5d-11ec-0000-020000000000"/>
               <type value="Practitioner"/>
               <display value="Healthcare professional (person), Tanja de Bakker"/>
            </practitioner>
            <organization>
               <reference value="urn:uuid:5bc4856e-6b7b-11ec-0000-020000000000"/>
               <type value="Organization"/>
               <display value="Healthcare provider (organization), Trombosedienst Ons Dorp"/>
            </organization>
            <specialty>
               <coding>
                  <system value="urn:oid:2.16.840.1.113883.2.4.6.7"/>
                  <version value="2020-10-23T00:00:00"/>
                  <code value="3400"/>
                  <display value="Trombosediensten"/>
               </coding>
            </specialty>
         </PractitionerRole>
      </resource>
      <request>
         <method value="POST"/>
         <url value="PractitionerRole"/>
      </request>
   </entry>
   <entry>
      <fullUrl value="urn:uuid:7cac7558-6b5d-11ec-0000-020000000000"/>
      <resource>
         <Practitioner>
            <meta>
               <profile value="http://nictiz.nl/fhir/StructureDefinition/nl-core-HealthProfessional-Practitioner"/>
            </meta>
            <identifier>
               <system value="http://fhir.nl/fhir/NamingSystem/uzi-nr-pers"/>
               <value value="222221111"/>
            </identifier>
            <name>
               <use value="official"/>
               <text value="Tanja de Bakker"/>
               <family value="de Bakker">
                  <extension url="http://hl7.org/fhir/StructureDefinition/humanname-own-prefix">
                     <valueString value="de"/>
                  </extension>
                  <extension url="http://hl7.org/fhir/StructureDefinition/humanname-own-name">
                     <valueString value="Bakker"/>
                  </extension>
               </family>
               <given value="Tanja">
                  <extension url="http://hl7.org/fhir/StructureDefinition/iso21090-EN-qualifier">
                     <valueCode value="BR"/>
                  </extension>
               </given>
            </name>
         </Practitioner>
      </resource>
      <request>
         <method value="POST"/>
         <url value="Practitioner"/>
      </request>
   </entry>
   <entry>
      <fullUrl value="urn:uuid:5bc4856e-6b7b-11ec-0000-020000000000"/>
      <resource>
         <Organization>
            <meta>
               <profile value="http://nictiz.nl/fhir/StructureDefinition/nl-core-HealthcareProvider-Organization"/>
            </meta>
            <identifier>
               <system value="http://fhir.nl/fhir/NamingSystem/ura"/>
               <value value="11112222"/>
            </identifier>
            <type>
               <coding>
                  <system value="urn:oid:2.16.840.1.113883.2.4.6.7"/>
                  <version value="2020-10-23T00:00:00"/>
                  <code value="3400"/>
                  <display value="Trombosediensten"/>
               </coding>
            </type>
            <name value="Trombosedienst Ons Dorp"/>
            <address>
               <extension url="http://nictiz.nl/fhir/StructureDefinition/ext-AddressInformation.AddressType">
                  <valueCodeableConcept>
                     <coding>
                        <system value="http://terminology.hl7.org/CodeSystem/v3-AddressUse"/>
                        <code value="WP"/>
                        <display value="Werkadres"/>
                     </coding>
                  </valueCodeableConcept>
               </extension>
               <use value="work"/>
               <line value="Kerkstraat 28 d">
                  <extension url="http://hl7.org/fhir/StructureDefinition/iso21090-ADXP-streetName">
                     <valueString value="Kerkstraat"/>
                  </extension>
                  <extension url="http://hl7.org/fhir/StructureDefinition/iso21090-ADXP-houseNumber">
                     <valueString value="28"/>
                  </extension>
                  <extension url="http://hl7.org/fhir/StructureDefinition/iso21090-ADXP-buildingNumberSuffix">
                     <valueString value="d"/>
                  </extension>
               </line>
               <city value="Ons Dorp"/>
               <postalCode value="1332GH"/>
            </address>
         </Organization>
      </resource>
      <request>
         <method value="POST"/>
         <url value="Organization"/>
      </request>
   </entry>
   <entry>
      <fullUrl value="urn:uuid:ca0c3ae9-6aff-11ec-0000-020000000000"/>
      <resource>
         <Medication>
            <meta>
               <profile value="http://nictiz.nl/fhir/StructureDefinition/mp-PharmaceuticalProduct"/>
            </meta>
            <code>
               <coding>
                  <system value="urn:oid:2.16.840.1.113883.2.4.4.10"/>
                  <code value="7323"/>
                  <display value="ACENOCOUMAROL TABLET 1MG"/>
                  <userSelected value="true"/>
               </coding>
               <coding>
                  <system value="urn:oid:2.16.840.1.113883.2.4.4.1"/>
                  <code value="20303"/>
                  <display value="ACENOCOUMAROL TABLET 1MG"/>
               </coding>
               <text value="ACENOCOUMAROL TABLET 1MG"/>
            </code>
         </Medication>
      </resource>
      <request>
         <method value="POST"/>
         <url value="Medication"/>
      </request>
   </entry>
   <entry>
      <fullUrl value="urn:uuid:4c6ca204-6b1b-11ec-0000-020000000000"/>
      <resource>
         <Medication>
            <meta>
               <profile value="http://nictiz.nl/fhir/StructureDefinition/mp-PharmaceuticalProduct"/>
            </meta>
            <code>
               <coding>
                  <system value="urn:oid:2.16.840.1.113883.2.4.4.10"/>
                  <code value="1783"/>
                  <display value="FENPROCOUMON TABLET 3MG"/>
                  <userSelected value="true"/>
               </coding>
               <coding>
                  <system value="urn:oid:2.16.840.1.113883.2.4.4.1"/>
                  <code value="6637"/>
                  <display value="FENPROCOUMON TABLET 3MG"/>
               </coding>
               <text value="FENPROCOUMON TABLET 3MG"/>
            </code>
         </Medication>
      </resource>
      <request>
         <method value="POST"/>
         <url value="Medication"/>
      </request>
   </entry>
</Bundle>