<?xml-model href="http://hl7.org/fhir/STU3/bundle.sch" type="application/xml" schematypens="http://purl.oclc.org/dsdl/schematron"?><Bundle xmlns="http://hl7.org/fhir"
        xmlns:xsi="http://www.w3.org/2001/XMLSchema-instance"
        xsi:schemaLocation="http://hl7.org/fhir http://hl7.org/fhir/STU3/bundle.xsd">
   <id value="Bundle-MedicationOverview-c83e05fd-8d8f-11ec-2127-020000000000"/>
   <meta>
      <profile value="http://nictiz.nl/fhir/StructureDefinition/Bundle-MedicationOverview"/>
   </meta>
   <type value="searchset"/>
   <total value="1"/>
   <entry>
      <fullUrl value="urn:uuid:c83e0a58-8d8f-11ec-2127-020000000000"/>
      <resource>
         <List>
            <id value="d46e1576"/>
            <meta>
               <profile value="http://nictiz.nl/fhir/StructureDefinition/MedicationOverview"/>
            </meta>
            <extension url="http://nictiz.nl/fhir/StructureDefinition/MedicationOverview-Verification">
               <extension url="VerificationPatient">
                  <valueBoolean value="false"/>
               </extension>
               <extension url="VerificationHealthProfessional">
                  <valueBoolean value="false"/>
               </extension>
            </extension>
            <status value="current"/>
            <mode value="snapshot"/>
            <code>
               <coding>
                  <system value="http://snomed.info/sct"/>
                  <code value="11181000146103"/>
                  <display value="Actual medication overview (record artifact)"/>
               </coding>
               <text value="Medicatieoverzicht"/>
            </code>
            <subject>
               <reference value="Patient/XXX-JANGI"/>
               <display value="I. XXX_Jangi"/>
            </subject>
            <date value="${DATE, T, D, +0}T00:00:00+02:00"/>
            <source>
               <extension url="http://nictiz.nl/fhir/StructureDefinition/MedicationOverview-SourceOrganization">
                  <valueReference>
                     <reference value="Organization/nl-core-organization-mp9-c83e0a60-8d8f-11ec-2127-020000000000"/>
                     <display value="Apotheek de Gulle Gaper"/>
                  </valueReference>
               </extension>
               <display value="Apotheek de Gulle Gaper"/>
            </source>
            <entry>
               <item>
                  <reference value="MedicationRequest/zib-MedicationAgreement-mp9-MBH-MO-123-3-MA-1"/>
                  <display value="Medicatieafspraak identifier: value='MBH_MO_123_3_MA_1', system='urn:oid:2.16.840.1.113883.2.4.3.11.999.77.16076005.1'"/>
               </item>
            </entry>
            <entry>
               <item>
                  <reference value="MedicationRequest/zib-MedicationAgreement-mp9-MBH-MO-123-4-MA-1"/>
                  <display value="Medicatieafspraak identifier: value='MBH_MO_123_4_MA_1', system='urn:oid:2.16.840.1.113883.2.4.3.11.999.77.16076005.1'"/>
               </item>
            </entry>
            <entry>
               <item>
                  <reference value="MedicationRequest/zib-MedicationAgreement-mp9-MBH-MO-123-6-MA-1"/>
                  <display value="Medicatieafspraak identifier: value='MBH_MO_123_6_MA_1', system='urn:oid:2.16.840.1.113883.2.4.3.11.999.77.16076005.1'"/>
               </item>
            </entry>
            <entry>
               <item>
                  <reference value="MedicationRequest/zib-MedicationAgreement-mp9-MBH-MO-123-7-MA-1"/>
                  <display value="Medicatieafspraak identifier: value='MBH_MO_123_7_MA_1', system='urn:oid:2.16.840.1.113883.2.4.3.11.999.77.16076005.1'"/>
               </item>
            </entry>
            <entry>
               <item>
                  <reference value="MedicationRequest/zib-MedicationAgreement-mp9-MBH-MO-123-9-MA-1"/>
                  <display value="Medicatieafspraak identifier: value='MBH_MO_123_9_MA_1', system='urn:oid:2.16.840.1.113883.2.4.3.11.999.77.16076005.1'"/>
               </item>
            </entry>
            <entry>
               <item>
                  <reference value="MedicationDispense/zib-AdministrationAgreement-mp9-MBH-MO-123-2-TA-1"/>
                  <display value="Toedieningsafspraak identifier: value='MBH_MO_123_2_TA_1', system='urn:oid:2.16.840.1.113883.2.4.3.11.999.77.422037009.1'"/>
               </item>
            </entry>
            <entry>
               <item>
                  <reference value="MedicationDispense/zib-AdministrationAgreement-mp9-MBH-MO-123-3-TA-1"/>
                  <display value="Toedieningsafspraak identifier: value='MBH_MO_123_3_TA_1', system='urn:oid:2.16.840.1.113883.2.4.3.11.999.77.422037009.1'"/>
               </item>
            </entry>
            <entry>
               <item>
                  <reference value="MedicationDispense/zib-AdministrationAgreement-mp9-MBH-MO-123-4-TA-1"/>
                  <display value="Toedieningsafspraak identifier: value='MBH_MO_123_4_TA_1', system='urn:oid:2.16.840.1.113883.2.4.3.11.999.77.422037009.1'"/>
               </item>
            </entry>
            <entry>
               <item>
                  <reference value="MedicationDispense/zib-AdministrationAgreement-mp9-MBH-MO-123-5-TA-1"/>
                  <display value="Toedieningsafspraak identifier: value='MBH_MO_123_5_TA_1', system='urn:oid:2.16.840.1.113883.2.4.3.11.999.77.422037009.1'"/>
               </item>
            </entry>
            <entry>
               <item>
                  <reference value="MedicationDispense/zib-AdministrationAgreement-mp9-MBH-MO-123-6-TA-1"/>
                  <display value="Toedieningsafspraak identifier: value='MBH_MO_123_6_TA_1', system='urn:oid:2.16.840.1.113883.2.4.3.11.999.77.422037009.1'"/>
               </item>
            </entry>
            <entry>
               <item>
                  <reference value="MedicationDispense/zib-AdministrationAgreement-mp9-MBH-MO-123-8-TA-2"/>
                  <display value="Toedieningsafspraak identifier: value='MBH_MO_123_8_TA_2', system='urn:oid:2.16.840.1.113883.2.4.3.11.999.77.422037009.1'"/>
               </item>
            </entry>
            <entry>
               <item>
                  <reference value="MedicationDispense/zib-AdministrationAgreement-mp9-MBH-MO-123-10-TA-2"/>
                  <display value="Toedieningsafspraak identifier: value='MBH_MO_123_10_TA_2', system='urn:oid:2.16.840.1.113883.2.4.3.11.999.77.422037009.1'"/>
               </item>
            </entry>
            <entry>
               <item>
                  <reference value="MedicationStatement/zib-MedicationUse-mp9-MBH-MO-123-1-MGB-1"/>
                  <display value="Medicatiegebruik identifier: value='MBH_MO_123_1_MGB_1', system='urn:oid:2.16.840.1.113883.2.4.3.11.999.77.6.1'"/>
               </item>
            </entry>
            <entry>
               <item>
                  <reference value="MedicationStatement/zib-MedicationUse-mp9-MBH-MO-123-3-MGB-1"/>
                  <display value="Medicatiegebruik identifier: value='MBH_MO_123_3_MGB_1', system='urn:oid:2.16.840.1.113883.2.4.3.11.999.77.6.1'"/>
               </item>
            </entry>
            <entry>
               <item>
                  <reference value="MedicationStatement/zib-MedicationUse-mp9-MBH-MO-123-5-MGB-1"/>
                  <display value="Medicatiegebruik identifier: value='MBH_MO_123_5_MGB_1', system='urn:oid:2.16.840.1.113883.2.4.3.11.999.77.6.1'"/>
               </item>
            </entry>
            <entry>
               <item>
                  <reference value="MedicationStatement/zib-MedicationUse-mp9-MBH-MO-123-6-MGB-1"/>
                  <display value="Medicatiegebruik identifier: value='MBH_MO_123_6_MGB_1', system='urn:oid:2.16.840.1.113883.2.4.3.11.999.77.6.1'"/>
               </item>
            </entry>
            <entry>
               <item>
                  <reference value="MedicationStatement/zib-MedicationUse-mp9-MBH-MO-123-6-MGB-2"/>
                  <display value="Medicatiegebruik identifier: value='MBH_MO_123_6_MGB_2', system='urn:oid:2.16.840.1.113883.2.4.3.11.999.77.6.1'"/>
               </item>
            </entry>
         </List>
      </resource>
      <search>
         <mode value="match"/>
      </search>
   </entry>
   <entry>
      <fullUrl value="urn:uuid:c83e1ca1-8d8f-11ec-2127-020000000000"/>
      <resource>
         <MedicationRequest>
            <id value="zib-MedicationAgreement-mp9-MBH-MO-123-3-MA-1"/>
            <meta>
               <profile value="http://nictiz.nl/fhir/StructureDefinition/zib-MedicationAgreement"/>
            </meta>
            <text>
               <status value="extensions"/>
               <div xmlns="http://www.w3.org/1999/xhtml">
                  <table>
                     <caption>Medicatieafspraak. Subject: I. XXX_Jangi. Id: MBH_MO_123_3_MA_1 (urn:oid:2.16.840.1.113883.2.4.3.11.999.77.16076005.1), Categorie: <span title="Prescription (procedure) (16076005 - SNOMED CT)">Prescription (procedure)</span>, <span style="display: block;">Intentie: aanvraag</span>
                        <span style="display: block;">Aangevraagd door: John de Vries || Huisartsen, niet nader gespecificeerd || Huisartsenpraktijk Pulver &amp; Partners</span>
                     </caption>
                     <tfoot>
                        <tr>
                           <td colspan="2">Exact 4 weken</td>
                        </tr>
                     </tfoot>
                     <tbody>
                        <tr>
                           <th colspan="2">Deze informatie is gekopieerd van een derde partij</th>
                        </tr>
                        <tr>
                           <th>Medicamenteuze behandel-id</th>
                           <td>MBH_MO_123_3 (urn:oid:2.16.840.1.113883.2.4.3.11.999.77.1.1)</td>
                        </tr>
                        <tr>
                           <th>Medicatie</th>
                           <td>GLIMEPIRIDE TABLET 3MG</td>
                        </tr>
                        <tr>
                           <th>Gemaakt</th>
                           <td>${DATE, T, D, -15}T09:13:00+02:00</td>
                        </tr>
                        <tr>
                           <th>Gebruiksduur</th>
                           <td>
                              <ul>
                                 <li>Vanaf ${DATE, T, D, -15}T00:00:00+02:00</li>
                                 <li>4 week</li>
                              </ul>
                           </td>
                        </tr>
                        <tr>
                           <th>Doseerinstructie</th>
                           <td>
                              <div>Volgnummer: 1</div>
                              <div>Tekst: Vanaf T - 15 dagen, gedurende 4 weken, 1 maal per dag 2 stuks, oraal</div>
                              <div>Timing: <div>eenmalig per dag</div>
                              </div>
                              <div>Toedieningsweg: <span title="oraal (9 - G-Standaard thesaurus subtabel 0007)">oraal</span>
                              </div>
                              <div>Dosering: 2 stuk</div>
                           </td>
                        </tr>
                     </tbody>
                  </table>
               </div>
            </text>
            <extension url="http://nictiz.nl/fhir/StructureDefinition/zib-Medication-PeriodOfUse">
               <valuePeriod>
                  <start value="${DATE, T, D, -15}T00:00:00+02:00"/>
               </valuePeriod>
            </extension>
            <extension url="http://nictiz.nl/fhir/StructureDefinition/zib-MedicationUse-Duration">
               <valueDuration>
                  <value value="4"/>
                  <unit value="week"/>
                  <system value="http://unitsofmeasure.org"/>
                  <code value="wk"/>
               </valueDuration>
            </extension>
            <extension url="http://nictiz.nl/fhir/StructureDefinition/zib-Medication-MedicationTreatment">
               <valueIdentifier>
                  <system value="urn:oid:2.16.840.1.113883.2.4.3.11.999.77.1.1"/>
                  <value value="MBH_MO_123_3"/>
               </valueIdentifier>
            </extension>
            <extension url="http://nictiz.nl/fhir/StructureDefinition/zib-Medication-CopyIndicator">
               <valueBoolean value="true"/>
            </extension>
            <identifier>
               <system value="urn:oid:2.16.840.1.113883.2.4.3.11.999.77.16076005.1"/>
               <value value="MBH_MO_123_3_MA_1"/>
            </identifier>
            <intent value="order"/>
            <category>
               <coding>
                  <system value="http://snomed.info/sct"/>
                  <code value="16076005"/>
                  <display value="Prescription (procedure)"/>
               </coding>
               <text value="Medicatieafspraak"/>
            </category>
            <medicationReference>
               <reference value="Medication/zib-Product-mp9-2.16.840.1.113883.2.4.4.10-44458"/>
               <display value="GLIMEPIRIDE TABLET 3MG"/>
            </medicationReference>
            <subject>
               <reference value="Patient/XXX-JANGI"/>
               <display value="I. XXX_Jangi"/>
            </subject>
            <authoredOn value="${DATE, T, D, -15}T09:13:00+02:00"/>
            <requester>
               <agent>
                  <extension url="http://nictiz.nl/fhir/StructureDefinition/practitionerrole-reference">
                     <valueReference>
                        <reference value="PractitionerRole/nl-core-practitionerrole-mp9-010000001111"/>
                        <display value="John de Vries || Huisartsen, niet nader gespecificeerd || Huisartsenpraktijk Pulver &amp; Partners"/>
                     </valueReference>
                  </extension>
                  <reference value="Practitioner/nl-core-practitioner-mp9-c83e1452-8d8f-11ec-2127-020000000000"/>
                  <display value="John de Vries"/>
               </agent>
            </requester>
            <note>
               <text value="Exact 4 weken"/>
            </note>
            <dosageInstruction>
               <sequence value="1"/>
               <text value="Vanaf T - 15 dagen, gedurende 4 weken, 1 maal per dag 2 stuks, oraal"/>
               <timing>
                  <repeat>
                     <frequency value="1"/>
                     <period value="1"/>
                     <periodUnit value="d"/>
                  </repeat>
               </timing>
               <route>
                  <coding>
                     <system value="urn:oid:2.16.840.1.113883.2.4.4.9"/>
                     <code value="9"/>
                     <display value="oraal"/>
                  </coding>
               </route>
               <doseQuantity>
                  <value value="2"/>
                  <unit value="stuk"/>
                  <system value="urn:oid:2.16.840.1.113883.2.4.4.1.900.2"/>
                  <code value="245"/>
               </doseQuantity>
            </dosageInstruction>
         </MedicationRequest>
      </resource>
      <search>
         <mode value="include"/>
      </search>
   </entry>
   <entry>
      <fullUrl value="urn:uuid:c83e1da0-8d8f-11ec-2127-020000000000"/>
      <resource>
         <MedicationRequest>
            <id value="zib-MedicationAgreement-mp9-MBH-MO-123-4-MA-1"/>
            <meta>
               <profile value="http://nictiz.nl/fhir/StructureDefinition/zib-MedicationAgreement"/>
            </meta>
            <text>
               <status value="extensions"/>
               <div xmlns="http://www.w3.org/1999/xhtml">
                  <table>
                     <caption>Medicatieafspraak. Subject: I. XXX_Jangi. Id: MBH_MO_123_4_MA_1 (urn:oid:2.16.840.1.113883.2.4.3.11.999.77.16076005.1), Categorie: <span title="Prescription (procedure) (16076005 - SNOMED CT)">Prescription (procedure)</span>, <span style="display: block;">Intentie: aanvraag</span>
                        <span style="display: block;">Aangevraagd door: I. Ternist || Medisch specialisten, inwendige geneeskunde || Antonius</span>
                     </caption>
                     <tbody>
                        <tr>
                           <th colspan="2">Deze informatie is gekopieerd van een derde partij</th>
                        </tr>
                        <tr>
                           <th>Medicamenteuze behandel-id</th>
                           <td>MBH_MO_123_4 (urn:oid:2.16.840.1.113883.2.4.3.11.999.77.1.1)</td>
                        </tr>
                        <tr>
                           <th>Medicatie</th>
                           <td>INSULINE GLARGINE INJVLST 100E/ML</td>
                        </tr>
                        <tr>
                           <th>Gemaakt</th>
                           <td>${DATE, T, D, -60}T09:13:00+02:00</td>
                        </tr>
                        <tr>
                           <th>Gebruiksduur</th>
                           <td>Vanaf ${DATE, T, D, -60}T00:00:00+02:00</td>
                        </tr>
                        <tr>
                           <th>Doseerinstructie</th>
                           <td>
                              <div>Volgnummer: 1</div>
                              <div>Tekst: Vanaf T - 60 dagen, 1 maal per dag 10 internationale eenheid, subcutaan</div>
                              <div>Timing: <div>eenmalig per dag</div>
                              </div>
                              <div>Toedieningsweg: <span title="subcutaan (21 - G-Standaard thesaurus subtabel 0007)">subcutaan</span>
                              </div>
                              <div>Dosering: 10 internationale eenheid</div>
                           </td>
                        </tr>
                     </tbody>
                  </table>
               </div>
            </text>
            <extension url="http://nictiz.nl/fhir/StructureDefinition/zib-Medication-PeriodOfUse">
               <valuePeriod>
                  <start value="${DATE, T, D, -60}T00:00:00+02:00"/>
               </valuePeriod>
            </extension>
            <extension url="http://nictiz.nl/fhir/StructureDefinition/zib-Medication-MedicationTreatment">
               <valueIdentifier>
                  <system value="urn:oid:2.16.840.1.113883.2.4.3.11.999.77.1.1"/>
                  <value value="MBH_MO_123_4"/>
               </valueIdentifier>
            </extension>
            <extension url="http://nictiz.nl/fhir/StructureDefinition/zib-Medication-CopyIndicator">
               <valueBoolean value="true"/>
            </extension>
            <identifier>
               <system value="urn:oid:2.16.840.1.113883.2.4.3.11.999.77.16076005.1"/>
               <value value="MBH_MO_123_4_MA_1"/>
            </identifier>
            <intent value="order"/>
            <category>
               <coding>
                  <system value="http://snomed.info/sct"/>
                  <code value="16076005"/>
                  <display value="Prescription (procedure)"/>
               </coding>
               <text value="Medicatieafspraak"/>
            </category>
            <medicationReference>
               <reference value="Medication/zib-Product-mp9-2.16.840.1.113883.2.4.4.10-121312"/>
               <display value="INSULINE GLARGINE INJVLST 100E/ML"/>
            </medicationReference>
            <subject>
               <reference value="Patient/XXX-JANGI"/>
               <display value="I. XXX_Jangi"/>
            </subject>
            <authoredOn value="${DATE, T, D, -60}T09:13:00+02:00"/>
            <requester>
               <agent>
                  <extension url="http://nictiz.nl/fhir/StructureDefinition/practitionerrole-reference">
                     <valueReference>
                        <reference value="PractitionerRole/l-core-practitionerrole-mp9-c83e1da6-8d8f-11ec-2127-020000000000"/>
                        <display value="I. Ternist || Medisch specialisten, inwendige geneeskunde || Antonius"/>
                     </valueReference>
                  </extension>
                  <reference value="Practitioner/nl-core-practitioner-mp9-c83e147a-8d8f-11ec-2127-020000000000"/>
                  <display value="I. Ternist"/>
               </agent>
            </requester>
            <dosageInstruction>
               <sequence value="1"/>
               <text value="Vanaf T - 60 dagen, 1 maal per dag 10 internationale eenheid, subcutaan"/>
               <timing>
                  <repeat>
                     <frequency value="1"/>
                     <period value="1"/>
                     <periodUnit value="d"/>
                  </repeat>
               </timing>
               <route>
                  <coding>
                     <system value="urn:oid:2.16.840.1.113883.2.4.4.9"/>
                     <code value="21"/>
                     <display value="subcutaan"/>
                  </coding>
               </route>
               <doseQuantity>
                  <value value="10"/>
                  <unit value="internationale eenheid"/>
                  <system value="urn:oid:2.16.840.1.113883.2.4.4.1.900.2"/>
                  <code value="217"/>
               </doseQuantity>
            </dosageInstruction>
         </MedicationRequest>
      </resource>
      <search>
         <mode value="include"/>
      </search>
   </entry>
   <entry>
      <fullUrl value="urn:uuid:c83e1ed6-8d8f-11ec-2127-020000000000"/>
      <resource>
         <MedicationRequest>
            <id value="zib-MedicationAgreement-mp9-MBH-MO-123-6-MA-1"/>
            <meta>
               <profile value="http://nictiz.nl/fhir/StructureDefinition/zib-MedicationAgreement"/>
            </meta>
            <text>
               <status value="extensions"/>
               <div xmlns="http://www.w3.org/1999/xhtml">
                  <table>
                     <caption>Medicatieafspraak. Subject: I. XXX_Jangi. Id: MBH_MO_123_6_MA_1 (urn:oid:2.16.840.1.113883.2.4.3.11.999.77.16076005.1), Categorie: <span title="Prescription (procedure) (16076005 - SNOMED CT)">Prescription (procedure)</span>, <span style="display: block;">Intentie: aanvraag</span>
                        <span style="display: block;">Aangevraagd door: John de Vries || Huisartsen, niet nader gespecificeerd || Huisartsenpraktijk Pulver &amp; Partners</span>
                     </caption>
                     <tbody>
                        <tr>
                           <th colspan="2">Deze informatie is gekopieerd van een derde partij</th>
                        </tr>
                        <tr>
                           <th>Medicamenteuze behandel-id</th>
                           <td>MBH_MO_123_6 (urn:oid:2.16.840.1.113883.2.4.3.11.999.77.1.1)</td>
                        </tr>
                        <tr>
                           <th>Medicatie</th>
                           <td>Simvastine tablet fo 20 mg</td>
                        </tr>
                        <tr>
                           <th>Gemaakt</th>
                           <td>${DATE, T, D, -728}T09:13:00+02:00</td>
                        </tr>
                        <tr>
                           <th>Gebruiksduur</th>
                           <td>Vanaf ${DATE, T, D, -728}T00:00:00+02:00</td>
                        </tr>
                        <tr>
                           <th>Doseerinstructie</th>
                           <td>
                              <div>Volgnummer: 1</div>
                              <div>Tekst: Vanaf T - 728 dagen, 1 maal per dag 1 stuk 's avonds, oraal</div>
                              <div>Timing: <div>eenmalig per dag, EVE</div>
                              </div>
                              <div>Toedieningsweg: <span title="oraal (9 - G-Standaard thesaurus subtabel 0007)">oraal</span>
                              </div>
                              <div>Dosering: 1 stuk</div>
                           </td>
                        </tr>
                     </tbody>
                  </table>
               </div>
            </text>
            <extension url="http://nictiz.nl/fhir/StructureDefinition/zib-Medication-PeriodOfUse">
               <valuePeriod>
                  <start value="${DATE, T, D, -728}T00:00:00+02:00"/>
               </valuePeriod>
            </extension>
            <extension url="http://nictiz.nl/fhir/StructureDefinition/zib-Medication-MedicationTreatment">
               <valueIdentifier>
                  <system value="urn:oid:2.16.840.1.113883.2.4.3.11.999.77.1.1"/>
                  <value value="MBH_MO_123_6"/>
               </valueIdentifier>
            </extension>
            <extension url="http://nictiz.nl/fhir/StructureDefinition/zib-Medication-CopyIndicator">
               <valueBoolean value="true"/>
            </extension>
            <identifier>
               <system value="urn:oid:2.16.840.1.113883.2.4.3.11.999.77.16076005.1"/>
               <value value="MBH_MO_123_6_MA_1"/>
            </identifier>
            <intent value="order"/>
            <category>
               <coding>
                  <system value="http://snomed.info/sct"/>
                  <code value="16076005"/>
                  <display value="Prescription (procedure)"/>
               </coding>
               <text value="Medicatieafspraak"/>
            </category>
            <medicationReference>
               <reference value="Medication/zib-Product-mp9-2.16.840.1.113883.2.4.4.10-67814"/>
               <display value="Simvastine tablet fo 20 mg"/>
            </medicationReference>
            <subject>
               <reference value="Patient/XXX-JANGI"/>
               <display value="I. XXX_Jangi"/>
            </subject>
            <authoredOn value="${DATE, T, D, -728}T09:13:00+02:00"/>
            <requester>
               <agent>
                  <extension url="http://nictiz.nl/fhir/StructureDefinition/practitionerrole-reference">
                     <valueReference>
                        <reference value="PractitionerRole/nl-core-practitionerrole-mp9-010000001111"/>
                        <display value="John de Vries || Huisartsen, niet nader gespecificeerd || Huisartsenpraktijk Pulver &amp; Partners"/>
                     </valueReference>
                  </extension>
                  <reference value="Practitioner/nl-core-practitioner-mp9-c83e1452-8d8f-11ec-2127-020000000000"/>
                  <display value="John de Vries"/>
               </agent>
            </requester>
            <dosageInstruction>
               <sequence value="1"/>
               <text value="Vanaf T - 728 dagen, 1 maal per dag 1 stuk 's avonds, oraal"/>
               <timing>
                  <repeat>
                     <frequency value="1"/>
                     <period value="1"/>
                     <periodUnit value="d"/>
                     <when value="EVE"/>
                  </repeat>
               </timing>
               <route>
                  <coding>
                     <system value="urn:oid:2.16.840.1.113883.2.4.4.9"/>
                     <code value="9"/>
                     <display value="oraal"/>
                  </coding>
               </route>
               <doseQuantity>
                  <value value="1"/>
                  <unit value="stuk"/>
                  <system value="urn:oid:2.16.840.1.113883.2.4.4.1.900.2"/>
                  <code value="245"/>
               </doseQuantity>
            </dosageInstruction>
         </MedicationRequest>
      </resource>
      <search>
         <mode value="include"/>
      </search>
   </entry>
   <entry>
      <fullUrl value="urn:uuid:c83e08d9-8d8f-11ec-2127-020000000000"/>
      <resource>
         <MedicationRequest>
            <id value="zib-MedicationAgreement-mp9-MBH-MO-123-7-MA-1"/>
            <meta>
               <profile value="http://nictiz.nl/fhir/StructureDefinition/zib-MedicationAgreement"/>
            </meta>
            <text>
               <status value="extensions"/>
               <div xmlns="http://www.w3.org/1999/xhtml">
                  <table>
                     <caption>Medicatieafspraak. Subject: I. XXX_Jangi. Id: MBH_MO_123_7_MA_1 (urn:oid:2.16.840.1.113883.2.4.3.11.999.77.16076005.1), Categorie: <span title="Prescription (procedure) (16076005 - SNOMED CT)">Prescription (procedure)</span>, <span style="display: block;">Intentie: aanvraag</span>
                        <span style="display: block;">Aangevraagd door: John de Vries || Huisartsen, niet nader gespecificeerd || Huisartsenpraktijk Pulver &amp; Partners</span>
                     </caption>
                     <tbody>
                        <tr>
                           <th colspan="2">Deze informatie is gekopieerd van een derde partij</th>
                        </tr>
                        <tr>
                           <th>Medicamenteuze behandel-id</th>
                           <td>MBH_MO_123_7 (urn:oid:2.16.840.1.113883.2.4.3.11.999.77.1.1)</td>
                        </tr>
                        <tr>
                           <th>Medicatie</th>
                           <td>Flucloxacilline capsule 500mg</td>
                        </tr>
                        <tr>
                           <th>Gemaakt</th>
                           <td>${DATE, T, D, +3}T09:27:31+02:00</td>
                        </tr>
                        <tr>
                           <th>Gebruiksduur</th>
                           <td>${DATE, T, D, +3}T00:00:00+02:00 - ${DATE, T, D, +17}T23:59:59+02:00</td>
                        </tr>
                        <tr>
                           <th>Doseerinstructie</th>
                           <td>
                              <div>Volgnummer: 1</div>
                              <div>Tekst: Vanaf T + 3 dagen, tot en met T + 17 dagen, 1 maal per dag 1 stuk, oraal</div>
                              <div>Timing: <div>eenmalig per dag</div>
                              </div>
                              <div>Toedieningsweg: <span title="oraal (9 - G-Standaard thesaurus subtabel 0007)">oraal</span>
                              </div>
                              <div>Dosering: 1 stuk</div>
                           </td>
                        </tr>
                     </tbody>
                  </table>
               </div>
            </text>
            <extension url="http://nictiz.nl/fhir/StructureDefinition/zib-Medication-PeriodOfUse">
               <valuePeriod>
                  <start value="${DATE, T, D, +3}T00:00:00+02:00"/>
                  <end value="${DATE, T, D, +17}T23:59:59+02:00"/>
               </valuePeriod>
            </extension>
            <extension url="http://nictiz.nl/fhir/StructureDefinition/zib-Medication-MedicationTreatment">
               <valueIdentifier>
                  <system value="urn:oid:2.16.840.1.113883.2.4.3.11.999.77.1.1"/>
                  <value value="MBH_MO_123_7"/>
               </valueIdentifier>
            </extension>
            <extension url="http://nictiz.nl/fhir/StructureDefinition/zib-Medication-CopyIndicator">
               <valueBoolean value="true"/>
            </extension>
            <identifier>
               <system value="urn:oid:2.16.840.1.113883.2.4.3.11.999.77.16076005.1"/>
               <value value="MBH_MO_123_7_MA_1"/>
            </identifier>
            <intent value="order"/>
            <category>
               <coding>
                  <system value="http://snomed.info/sct"/>
                  <code value="16076005"/>
                  <display value="Prescription (procedure)"/>
               </coding>
               <text value="Medicatieafspraak"/>
            </category>
            <medicationReference>
               <reference value="Medication/zib-Product-mp9-2.16.840.1.113883.2.4.4.10-5274"/>
               <display value="Flucloxacilline capsule 500mg"/>
            </medicationReference>
            <subject>
               <reference value="Patient/XXX-JANGI"/>
               <display value="I. XXX_Jangi"/>
            </subject>
            <authoredOn value="${DATE, T, D, +3}T09:27:31+02:00"/>
            <requester>
               <agent>
                  <extension url="http://nictiz.nl/fhir/StructureDefinition/practitionerrole-reference">
                     <valueReference>
                        <reference value="PractitionerRole/nl-core-practitionerrole-mp9-010000001111"/>
                        <display value="John de Vries || Huisartsen, niet nader gespecificeerd || Huisartsenpraktijk Pulver &amp; Partners"/>
                     </valueReference>
                  </extension>
                  <reference value="Practitioner/nl-core-practitioner-mp9-c83e1452-8d8f-11ec-2127-020000000000"/>
                  <display value="John de Vries"/>
               </agent>
            </requester>
            <dosageInstruction>
               <sequence value="1"/>
               <text value="Vanaf T + 3 dagen, tot en met T + 17 dagen, 1 maal per dag 1 stuk, oraal"/>
               <timing>
                  <repeat>
                     <frequency value="1"/>
                     <period value="1"/>
                     <periodUnit value="d"/>
                  </repeat>
               </timing>
               <route>
                  <coding>
                     <system value="urn:oid:2.16.840.1.113883.2.4.4.9"/>
                     <code value="9"/>
                     <display value="oraal"/>
                  </coding>
               </route>
               <doseQuantity>
                  <value value="1"/>
                  <unit value="stuk"/>
                  <system value="urn:oid:2.16.840.1.113883.2.4.4.1.900.2"/>
                  <code value="245"/>
               </doseQuantity>
            </dosageInstruction>
         </MedicationRequest>
      </resource>
      <search>
         <mode value="include"/>
      </search>
   </entry>
   <entry>
      <fullUrl value="urn:uuid:c83e09a1-8d8f-11ec-2127-020000000000"/>
      <resource>
         <MedicationRequest>
            <id value="zib-MedicationAgreement-mp9-MBH-MO-123-9-MA-1"/>
            <meta>
               <profile value="http://nictiz.nl/fhir/StructureDefinition/zib-MedicationAgreement"/>
            </meta>
            <text>
               <status value="extensions"/>
               <div xmlns="http://www.w3.org/1999/xhtml">
                  <table>
                     <caption>Medicatieafspraak. Subject: I. XXX_Jangi. Id: MBH_MO_123_9_MA_1 (urn:oid:2.16.840.1.113883.2.4.3.11.999.77.16076005.1), Categorie: <span title="Prescription (procedure) (16076005 - SNOMED CT)">Prescription (procedure)</span>, <span style="display: block;">Intentie: aanvraag</span>
                        <span style="display: block;">Aangevraagd door: John de Vries || Huisartsen, niet nader gespecificeerd || Huisartsenpraktijk Pulver &amp; Partners</span>
                     </caption>
                     <tbody>
                        <tr>
                           <th colspan="2">Deze informatie is gekopieerd van een derde partij</th>
                        </tr>
                        <tr>
                           <th>Medicamenteuze behandel-id</th>
                           <td>MBH_MO_123_9 (urn:oid:2.16.840.1.113883.2.4.3.11.999.77.1.1)</td>
                        </tr>
                        <tr>
                           <th>Medicatie</th>
                           <td>FLUCLOXACILLINE CAPSULE 500MG</td>
                        </tr>
                        <tr>
                           <th>Gemaakt</th>
                           <td>${DATE, T, D, -45}T11:50:00+02:00</td>
                        </tr>
                        <tr>
                           <th>Gebruiksduur</th>
                           <td>${DATE, T, D, -45}T00:00:00+02:00 - ${DATE, T, D, -31}T23:59:00+02:00</td>
                        </tr>
                        <tr>
                           <th>Doseerinstructie</th>
                           <td>
                              <div>Volgnummer: 1</div>
                              <div>Tekst: Vanaf T - 45 dagen, tot en met T - 31 dagen, iedere 8 uur 1 stuk - let op, tijden exact aanhouden, oraal</div>
                              <div>Timing: <div>8 uren. Tijden zo precies mogelijk aanhouden</div>
                              </div>
                              <div>Toedieningsweg: <span title="oraal (9 - G-Standaard thesaurus subtabel 0007)">oraal</span>
                              </div>
                              <div>Dosering: 1 stuk</div>
                           </td>
                        </tr>
                     </tbody>
                  </table>
               </div>
            </text>
            <extension url="http://nictiz.nl/fhir/StructureDefinition/zib-Medication-PeriodOfUse">
               <valuePeriod>
                  <start value="${DATE, T, D, -45}T00:00:00+02:00"/>
                  <end value="${DATE, T, D, -31}T23:59:00+02:00"/>
               </valuePeriod>
            </extension>
            <extension url="http://nictiz.nl/fhir/StructureDefinition/zib-Medication-MedicationTreatment">
               <valueIdentifier>
                  <system value="urn:oid:2.16.840.1.113883.2.4.3.11.999.77.1.1"/>
                  <value value="MBH_MO_123_9"/>
               </valueIdentifier>
            </extension>
            <extension url="http://nictiz.nl/fhir/StructureDefinition/zib-Medication-CopyIndicator">
               <valueBoolean value="true"/>
            </extension>
            <identifier>
               <system value="urn:oid:2.16.840.1.113883.2.4.3.11.999.77.16076005.1"/>
               <value value="MBH_MO_123_9_MA_1"/>
            </identifier>
            <intent value="order"/>
            <category>
               <coding>
                  <system value="http://snomed.info/sct"/>
                  <code value="16076005"/>
                  <display value="Prescription (procedure)"/>
               </coding>
               <text value="Medicatieafspraak"/>
            </category>
            <medicationReference>
               <reference value="Medication/zib-Product-mp9-2.16.840.1.113883.2.4.4.10-5274"/>
               <display value="FLUCLOXACILLINE CAPSULE 500MG"/>
            </medicationReference>
            <subject>
               <reference value="Patient/XXX-JANGI"/>
               <display value="I. XXX_Jangi"/>
            </subject>
            <authoredOn value="${DATE, T, D, -45}T11:50:00+02:00"/>
            <requester>
               <agent>
                  <extension url="http://nictiz.nl/fhir/StructureDefinition/practitionerrole-reference">
                     <valueReference>
                        <reference value="PractitionerRole/nl-core-practitionerrole-mp9-010000001111"/>
                        <display value="John de Vries || Huisartsen, niet nader gespecificeerd || Huisartsenpraktijk Pulver &amp; Partners"/>
                     </valueReference>
                  </extension>
                  <reference value="Practitioner/nl-core-practitioner-mp9-c83e1452-8d8f-11ec-2127-020000000000"/>
                  <display value="John de Vries"/>
               </agent>
            </requester>
            <dosageInstruction>
               <sequence value="1"/>
               <text value="Vanaf T - 45 dagen, tot en met T - 31 dagen, iedere 8 uur 1 stuk - let op, tijden exact aanhouden, oraal"/>
               <timing>
                  <repeat>
                     <extension url="http://hl7.org/fhir/StructureDefinition/timing-exact">
                        <valueBoolean value="true"/>
                     </extension>
                     <period value="8"/>
                     <periodUnit value="h"/>
                  </repeat>
               </timing>
               <route>
                  <coding>
                     <system value="urn:oid:2.16.840.1.113883.2.4.4.9"/>
                     <code value="9"/>
                     <display value="oraal"/>
                  </coding>
               </route>
               <doseQuantity>
                  <value value="1"/>
                  <unit value="stuk"/>
                  <system value="urn:oid:2.16.840.1.113883.2.4.4.1.900.2"/>
                  <code value="245"/>
               </doseQuantity>
            </dosageInstruction>
         </MedicationRequest>
      </resource>
      <search>
         <mode value="include"/>
      </search>
   </entry>
   <entry>
      <fullUrl value="urn:uuid:c83e1c29-8d8f-11ec-2127-020000000000"/>
      <resource>
         <MedicationDispense>
            <id value="zib-AdministrationAgreement-mp9-MBH-MO-123-2-TA-1"/>
            <meta>
               <profile value="http://nictiz.nl/fhir/StructureDefinition/zib-AdministrationAgreement"/>
            </meta>
            <text>
               <status value="extensions"/>
               <div xmlns="http://www.w3.org/1999/xhtml">
                  <table>
                     <caption>Toedieningsafspraak. Subject: I. XXX_Jangi. Id: MBH_MO_123_2_TA_1 (urn:oid:2.16.840.1.113883.2.4.3.11.999.77.422037009.1), Categorie: <span title="Provider medication administration instructions (procedure) (422037009 - SNOMED CT)">Provider medication administration instructions (procedure)</span>
                        <span style="display: block;">Uitvoerende: Apotheek De Gulle Gaper</span>
                     </caption>
                     <tfoot>
                        <tr>
                           <td colspan="2">Eczeem oogleden</td>
                        </tr>
                     </tfoot>
                     <tbody>
                        <tr>
                           <th>Medicamenteuze behandel-id</th>
                           <td>MBH_MO_123_2 (urn:oid:2.16.840.1.113883.2.4.3.11.999.77.1.1)</td>
                        </tr>
                        <tr>
                           <th>Gemaakt</th>
                           <td>${DATE, T, D, -6}T11:55:00+02:00</td>
                        </tr>
                        <tr>
                           <th>Medicatie</th>
                           <td>Emovate zalf 0,5 mg/g</td>
                        </tr>
                        <tr>
                           <th>Gebruiksduur</th>
                           <td>Vanaf ${DATE, T, D, -6}T00:00:00+02:00</td>
                        </tr>
                        <tr>
                           <th>Doseerinstructie</th>
                           <td>
                              <div>Volgnummer: 1</div>
                              <div>Tekst: Vanaf T - 6 dagen, eerst gedurende 7 dagen 2 maal per dag, dan gedurende 7 dagen 1 maal per dag, dan gedurende 7 dagen 3 maal per week, cutaan</div>
                              <div>Timing: <div>7 dag, 2 maal per dag</div>
                              </div>
                              <div>Toedieningsweg: <span title="cutaan (53 - G-Standaard thesaurus subtabel 0007)">cutaan</span>
                              </div>
                           </td>
                        </tr>
                        <tr>
                           <th>Doseerinstructie</th>
                           <td>
                              <div>Volgnummer: 2</div>
                              <div>Tekst: Vanaf T - 6 dagen, eerst gedurende 7 dagen 2 maal per dag, dan gedurende 7 dagen 1 maal per dag, dan gedurende 7 dagen 3 maal per week, cutaan</div>
                              <div>Timing: <div>7 dag, eenmalig per dag</div>
                              </div>
                              <div>Toedieningsweg: <span title="cutaan (53 - G-Standaard thesaurus subtabel 0007)">cutaan</span>
                              </div>
                           </td>
                        </tr>
                        <tr>
                           <th>Doseerinstructie</th>
                           <td>
                              <div>Volgnummer: 3</div>
                              <div>Tekst: Vanaf T - 6 dagen, eerst gedurende 7 dagen 2 maal per dag, dan gedurende 7 dagen 1 maal per dag, dan gedurende 7 dagen 3 maal per week, cutaan</div>
                              <div>Timing: <div>7 dag, 3 maal per week</div>
                              </div>
                              <div>Toedieningsweg: <span title="cutaan (53 - G-Standaard thesaurus subtabel 0007)">cutaan</span>
                              </div>
                           </td>
                        </tr>
                     </tbody>
                  </table>
               </div>
            </text>
            <extension url="http://nictiz.nl/fhir/StructureDefinition/zib-AdministrationAgreement-AuthoredOn">
               <valueDateTime value="${DATE, T, D, -6}T11:55:00+02:00"/>
            </extension>
            <extension url="http://nictiz.nl/fhir/StructureDefinition/zib-Medication-PeriodOfUse">
               <valuePeriod>
                  <start value="${DATE, T, D, -6}T00:00:00+02:00"/>
               </valuePeriod>
            </extension>
            <extension url="http://nictiz.nl/fhir/StructureDefinition/zib-Medication-MedicationTreatment">
               <valueIdentifier>
                  <system value="urn:oid:2.16.840.1.113883.2.4.3.11.999.77.1.1"/>
                  <value value="MBH_MO_123_2"/>
               </valueIdentifier>
            </extension>
            <identifier>
               <system value="urn:oid:2.16.840.1.113883.2.4.3.11.999.77.422037009.1"/>
               <value value="MBH_MO_123_2_TA_1"/>
            </identifier>
            <category>
               <coding>
                  <system value="http://snomed.info/sct"/>
                  <code value="422037009"/>
                  <display value="Provider medication administration instructions (procedure)"/>
               </coding>
               <text value="Toedieningsafspraak"/>
            </category>
            <medicationReference>
               <reference value="Medication/zib-Product-mp9-2.16.840.1.113883.2.4.4.7-400629"/>
               <display value="Emovate zalf 0,5 mg/g"/>
            </medicationReference>
            <subject>
               <reference value="Patient/XXX-JANGI"/>
               <display value="I. XXX_Jangi"/>
            </subject>
            <performer>
               <actor>
                  <reference value="Organization/nl-core-organization-mp9-2.16.528.1.1007.3.3-01236578"/>
                  <display value="Apotheek De Gulle Gaper"/>
               </actor>
            </performer>
            <note>
               <text value="Eczeem oogleden"/>
            </note>
            <dosageInstruction>
               <sequence value="1"/>
               <text value="Vanaf T - 6 dagen, eerst gedurende 7 dagen 2 maal per dag, dan gedurende 7 dagen 1 maal per dag, dan gedurende 7 dagen 3 maal per week, cutaan"/>
               <timing>
                  <repeat>
                     <boundsDuration>
                        <value value="7"/>
                        <unit value="dag"/>
                        <system value="http://unitsofmeasure.org"/>
                        <code value="d"/>
                     </boundsDuration>
                     <frequency value="2"/>
                     <period value="1"/>
                     <periodUnit value="d"/>
                  </repeat>
               </timing>
               <route>
                  <coding>
                     <system value="urn:oid:2.16.840.1.113883.2.4.4.9"/>
                     <code value="53"/>
                     <display value="cutaan"/>
                  </coding>
               </route>
            </dosageInstruction>
            <dosageInstruction>
               <sequence value="2"/>
               <text value="Vanaf T - 6 dagen, eerst gedurende 7 dagen 2 maal per dag, dan gedurende 7 dagen 1 maal per dag, dan gedurende 7 dagen 3 maal per week, cutaan"/>
               <timing>
                  <repeat>
                     <boundsDuration>
                        <value value="7"/>
                        <unit value="dag"/>
                        <system value="http://unitsofmeasure.org"/>
                        <code value="d"/>
                     </boundsDuration>
                     <frequency value="1"/>
                     <period value="1"/>
                     <periodUnit value="d"/>
                  </repeat>
               </timing>
               <route>
                  <coding>
                     <system value="urn:oid:2.16.840.1.113883.2.4.4.9"/>
                     <code value="53"/>
                     <display value="cutaan"/>
                  </coding>
               </route>
            </dosageInstruction>
            <dosageInstruction>
               <sequence value="3"/>
               <text value="Vanaf T - 6 dagen, eerst gedurende 7 dagen 2 maal per dag, dan gedurende 7 dagen 1 maal per dag, dan gedurende 7 dagen 3 maal per week, cutaan"/>
               <timing>
                  <repeat>
                     <boundsDuration>
                        <value value="7"/>
                        <unit value="dag"/>
                        <system value="http://unitsofmeasure.org"/>
                        <code value="d"/>
                     </boundsDuration>
                     <frequency value="3"/>
                     <period value="1"/>
                     <periodUnit value="wk"/>
                  </repeat>
               </timing>
               <route>
                  <coding>
                     <system value="urn:oid:2.16.840.1.113883.2.4.4.9"/>
                     <code value="53"/>
                     <display value="cutaan"/>
                  </coding>
               </route>
            </dosageInstruction>
         </MedicationDispense>
      </resource>
      <search>
         <mode value="include"/>
      </search>
   </entry>
   <entry>
      <fullUrl value="urn:uuid:c83e1d0e-8d8f-11ec-2127-020000000000"/>
      <resource>
         <MedicationDispense>
            <id value="zib-AdministrationAgreement-mp9-MBH-MO-123-3-TA-1"/>
            <meta>
               <profile value="http://nictiz.nl/fhir/StructureDefinition/zib-AdministrationAgreement"/>
            </meta>
            <text>
               <status value="extensions"/>
               <div xmlns="http://www.w3.org/1999/xhtml">
                  <table>
                     <caption>Toedieningsafspraak. Subject: I. XXX_Jangi. Id: MBH_MO_123_3_TA_1 (urn:oid:2.16.840.1.113883.2.4.3.11.999.77.422037009.1), Categorie: <span title="Provider medication administration instructions (procedure) (422037009 - SNOMED CT)">Provider medication administration instructions (procedure)</span>
                        <span style="display: block;">Uitvoerende: Apotheek De Gulle Gaper</span>
                     </caption>
                     <tbody>
                        <tr>
                           <th>Medicamenteuze behandel-id</th>
                           <td>MBH_MO_123_3 (urn:oid:2.16.840.1.113883.2.4.3.11.999.77.1.1)</td>
                        </tr>
                        <tr>
                           <th>Gemaakt</th>
                           <td>${DATE, T, D, -14}T15:55:00+02:00</td>
                        </tr>
                        <tr>
                           <th>Gebaseerd op</th>
                           <td>relatie naar medicatieafspraak: MBH_MO_123_3_MA_1 || 2.16.840.1.113883.2.4.3.11.999.77.16076005.1 (Id: MBH_MO_123_3_MA_1 (urn:oid:2.16.840.1.113883.2.4.3.11.999.77.16076005.1))</td>
                        </tr>
                        <tr>
                           <th>Medicatie</th>
                           <td>Glimepiride activis tablet 3mg</td>
                        </tr>
                        <tr>
                           <th>Gebruiksduur</th>
                           <td>${DATE, T, D, -14}T00:00:00+02:00 - ${DATE, T, D, +13}T23:59:59+02:00</td>
                        </tr>
                        <tr>
                           <th>Doseerinstructie</th>
                           <td>
                              <div>Volgnummer: 1</div>
                              <div>Tekst: Vanaf T - 14 dagen, tot en met T + 13 dagen, 1 maal per dag 2 stuks, oraal</div>
                              <div>Timing: <div>eenmalig per dag</div>
                              </div>
                              <div>Toedieningsweg: <span title="oraal (9 - G-Standaard thesaurus subtabel 0007)">oraal</span>
                              </div>
                              <div>Dosering: 2 stuk</div>
                           </td>
                        </tr>
                     </tbody>
                  </table>
               </div>
            </text>
            <extension url="http://nictiz.nl/fhir/StructureDefinition/zib-AdministrationAgreement-AuthoredOn">
               <valueDateTime value="${DATE, T, D, -14}T15:55:00+02:00"/>
            </extension>
            <extension url="http://nictiz.nl/fhir/StructureDefinition/zib-Medication-PeriodOfUse">
               <valuePeriod>
                  <start value="${DATE, T, D, -14}T00:00:00+02:00"/>
                  <end value="${DATE, T, D, +13}T23:59:59+02:00"/>
               </valuePeriod>
            </extension>
            <extension url="http://nictiz.nl/fhir/StructureDefinition/zib-Medication-MedicationTreatment">
               <valueIdentifier>
                  <system value="urn:oid:2.16.840.1.113883.2.4.3.11.999.77.1.1"/>
                  <value value="MBH_MO_123_3"/>
               </valueIdentifier>
            </extension>
            <identifier>
               <system value="urn:oid:2.16.840.1.113883.2.4.3.11.999.77.422037009.1"/>
               <value value="MBH_MO_123_3_TA_1"/>
            </identifier>
            <category>
               <coding>
                  <system value="http://snomed.info/sct"/>
                  <code value="422037009"/>
                  <display value="Provider medication administration instructions (procedure)"/>
               </coding>
               <text value="Toedieningsafspraak"/>
            </category>
            <medicationReference>
               <reference value="Medication/zib-Product-mp9-2.16.840.1.113883.2.4.4.7-1753029"/>
               <display value="Glimepiride activis tablet 3mg"/>
            </medicationReference>
            <subject>
               <reference value="Patient/XXX-JANGI"/>
               <display value="I. XXX_Jangi"/>
            </subject>
            <performer>
               <actor>
                  <reference value="Organization/nl-core-organization-mp9-2.16.528.1.1007.3.3-01236578"/>
                  <display value="Apotheek De Gulle Gaper"/>
               </actor>
            </performer>
            <authorizingPrescription>
               <identifier>
                  <system value="urn:oid:2.16.840.1.113883.2.4.3.11.999.77.16076005.1"/>
                  <value value="MBH_MO_123_3_MA_1"/>
               </identifier>
               <display value="relatie naar medicatieafspraak: MBH_MO_123_3_MA_1 || 2.16.840.1.113883.2.4.3.11.999.77.16076005.1"/>
            </authorizingPrescription>
            <dosageInstruction>
               <sequence value="1"/>
               <text value="Vanaf T - 14 dagen, tot en met T + 13 dagen, 1 maal per dag 2 stuks, oraal"/>
               <timing>
                  <repeat>
                     <frequency value="1"/>
                     <period value="1"/>
                     <periodUnit value="d"/>
                  </repeat>
               </timing>
               <route>
                  <coding>
                     <system value="urn:oid:2.16.840.1.113883.2.4.4.9"/>
                     <code value="9"/>
                     <display value="oraal"/>
                  </coding>
               </route>
               <doseQuantity>
                  <value value="2"/>
                  <unit value="stuk"/>
                  <system value="urn:oid:2.16.840.1.113883.2.4.4.1.900.2"/>
                  <code value="245"/>
               </doseQuantity>
            </dosageInstruction>
         </MedicationDispense>
      </resource>
      <search>
         <mode value="include"/>
      </search>
   </entry>
   <entry>
      <fullUrl value="urn:uuid:c83e1e05-8d8f-11ec-2127-020000000000"/>
      <resource>
         <MedicationDispense>
            <id value="zib-AdministrationAgreement-mp9-MBH-MO-123-4-TA-1"/>
            <meta>
               <profile value="http://nictiz.nl/fhir/StructureDefinition/zib-AdministrationAgreement"/>
            </meta>
            <text>
               <status value="extensions"/>
               <div xmlns="http://www.w3.org/1999/xhtml">
                  <table>
                     <caption>Toedieningsafspraak. Subject: I. XXX_Jangi. Id: MBH_MO_123_4_TA_1 (urn:oid:2.16.840.1.113883.2.4.3.11.999.77.422037009.1), Categorie: <span title="Provider medication administration instructions (procedure) (422037009 - SNOMED CT)">Provider medication administration instructions (procedure)</span>
                        <span style="display: block;">Uitvoerende: Poliapotheek Antonius</span>
                     </caption>
                     <tbody>
                        <tr>
                           <th colspan="2">Deze informatie is gekopieerd van een derde partij</th>
                        </tr>
                        <tr>
                           <th>Medicamenteuze behandel-id</th>
                           <td>MBH_MO_123_4 (urn:oid:2.16.840.1.113883.2.4.3.11.999.77.1.1)</td>
                        </tr>
                        <tr>
                           <th>Gemaakt</th>
                           <td>${DATE, T, D, -60}T15:55:00+02:00</td>
                        </tr>
                        <tr>
                           <th>Gebaseerd op</th>
                           <td>relatie naar medicatieafspraak: MBH_MO_123_4_MA_1 || 2.16.840.1.113883.2.4.3.11.999.77.16076005.1 (Id: MBH_MO_123_4_MA_1 (urn:oid:2.16.840.1.113883.2.4.3.11.999.77.16076005.1))</td>
                        </tr>
                        <tr>
                           <th>Medicatie</th>
                           <td>LANTUS SOLOSTAR INJ 100E/ML PEN 3ML</td>
                        </tr>
                        <tr>
                           <th>Gebruiksduur</th>
                           <td>Vanaf ${DATE, T, D, -60}T00:00:00+02:00</td>
                        </tr>
                        <tr>
                           <th>Doseerinstructie</th>
                           <td>
                              <div>Volgnummer: 1</div>
                              <div>Tekst: Vanaf T - 60 dagen, elke dag om 09:00 10 internationale eenheid, subcutaan</div>
                              <div>Timing: <div>09:00:00</div>
                              </div>
                              <div>Toedieningsweg: <span title="subcutaan (21 - G-Standaard thesaurus subtabel 0007)">subcutaan</span>
                              </div>
                              <div>Dosering: 10 internationale eenheid</div>
                           </td>
                        </tr>
                     </tbody>
                  </table>
               </div>
            </text>
            <extension url="http://nictiz.nl/fhir/StructureDefinition/zib-AdministrationAgreement-AuthoredOn">
               <valueDateTime value="${DATE, T, D, -60}T15:55:00+02:00"/>
            </extension>
            <extension url="http://nictiz.nl/fhir/StructureDefinition/zib-Medication-PeriodOfUse">
               <valuePeriod>
                  <start value="${DATE, T, D, -60}T00:00:00+02:00"/>
               </valuePeriod>
            </extension>
            <extension url="http://nictiz.nl/fhir/StructureDefinition/zib-Medication-MedicationTreatment">
               <valueIdentifier>
                  <system value="urn:oid:2.16.840.1.113883.2.4.3.11.999.77.1.1"/>
                  <value value="MBH_MO_123_4"/>
               </valueIdentifier>
            </extension>
            <extension url="http://nictiz.nl/fhir/StructureDefinition/zib-Medication-CopyIndicator">
               <valueBoolean value="true"/>
            </extension>
            <identifier>
               <system value="urn:oid:2.16.840.1.113883.2.4.3.11.999.77.422037009.1"/>
               <value value="MBH_MO_123_4_TA_1"/>
            </identifier>
            <category>
               <coding>
                  <system value="http://snomed.info/sct"/>
                  <code value="422037009"/>
                  <display value="Provider medication administration instructions (procedure)"/>
               </coding>
               <text value="Toedieningsafspraak"/>
            </category>
            <medicationReference>
               <reference value="Medication/zib-Product-mp9-2.16.840.1.113883.2.4.4.7-1859226"/>
               <display value="LANTUS SOLOSTAR INJ 100E/ML PEN 3ML"/>
            </medicationReference>
            <subject>
               <reference value="Patient/XXX-JANGI"/>
               <display value="I. XXX_Jangi"/>
            </subject>
            <performer>
               <actor>
                  <reference value="Organization/nl-core-organization-mp9-2.16.528.1.1007.3.3-13336578"/>
                  <display value="Poliapotheek Antonius"/>
               </actor>
            </performer>
            <authorizingPrescription>
               <identifier>
                  <system value="urn:oid:2.16.840.1.113883.2.4.3.11.999.77.16076005.1"/>
                  <value value="MBH_MO_123_4_MA_1"/>
               </identifier>
               <display value="relatie naar medicatieafspraak: MBH_MO_123_4_MA_1 || 2.16.840.1.113883.2.4.3.11.999.77.16076005.1"/>
            </authorizingPrescription>
            <dosageInstruction>
               <sequence value="1"/>
               <text value="Vanaf T - 60 dagen, elke dag om 09:00 10 internationale eenheid, subcutaan"/>
               <timing>
                  <repeat>
                     <timeOfDay value="09:00:00"/>
                  </repeat>
               </timing>
               <route>
                  <coding>
                     <system value="urn:oid:2.16.840.1.113883.2.4.4.9"/>
                     <code value="21"/>
                     <display value="subcutaan"/>
                  </coding>
               </route>
               <doseQuantity>
                  <value value="10"/>
                  <unit value="internationale eenheid"/>
                  <system value="urn:oid:2.16.840.1.113883.2.4.4.1.900.2"/>
                  <code value="217"/>
               </doseQuantity>
            </dosageInstruction>
         </MedicationDispense>
      </resource>
      <search>
         <mode value="include"/>
      </search>
   </entry>
   <entry>
      <fullUrl value="urn:uuid:c83e1e50-8d8f-11ec-2127-020000000000"/>
      <resource>
         <MedicationDispense>
            <id value="zib-AdministrationAgreement-mp9-MBH-MO-123-5-TA-1"/>
            <meta>
               <profile value="http://nictiz.nl/fhir/StructureDefinition/zib-AdministrationAgreement"/>
            </meta>
            <text>
               <status value="extensions"/>
               <div xmlns="http://www.w3.org/1999/xhtml">
                  <table>
                     <caption>Toedieningsafspraak. Subject: I. XXX_Jangi. Id: MBH_MO_123_5_TA_1 (urn:oid:2.16.840.1.113883.2.4.3.11.999.77.422037009.1), Categorie: <span title="Provider medication administration instructions (procedure) (422037009 - SNOMED CT)">Provider medication administration instructions (procedure)</span>
                        <span style="display: block;">Uitvoerende: Poliapotheek Antonius</span>
                     </caption>
                     <tbody>
                        <tr>
                           <th colspan="2">Deze informatie is gekopieerd van een derde partij</th>
                        </tr>
                        <tr>
                           <th>Medicamenteuze behandel-id</th>
                           <td>MBH_MO_123_5 (urn:oid:2.16.840.1.113883.2.4.3.11.999.77.1.1)</td>
                        </tr>
                        <tr>
                           <th>Gemaakt</th>
                           <td>${DATE, T, D, -36}T15:55:00+02:00</td>
                        </tr>
                        <tr>
                           <th>Medicatie</th>
                           <td>PERINDOPRIL TERT-BUTYLAMINE GLENMARK TABLET 8MG</td>
                        </tr>
                        <tr>
                           <th>Gebruiksduur</th>
                           <td>
                              <ul>
                                 <li>Vanaf ${DATE, T, D, -36}T00:00:00+02:00</li>
                                 <li>90 dag</li>
                              </ul>
                           </td>
                        </tr>
                        <tr>
                           <th>Doseerinstructie</th>
                           <td>
                              <div>Volgnummer: 1</div>
                              <div>Tekst: Vanaf T - 36 dagen, gedurende 90 dagen, 1 maal per dag 1 stuk, oraal</div>
                              <div>Timing: <div>eenmalig per dag</div>
                              </div>
                              <div>Toedieningsweg: <span title="oraal (9 - G-Standaard thesaurus subtabel 0007)">oraal</span>
                              </div>
                              <div>Dosering: 1 stuk</div>
                           </td>
                        </tr>
                     </tbody>
                  </table>
               </div>
            </text>
            <extension url="http://nictiz.nl/fhir/StructureDefinition/zib-AdministrationAgreement-AuthoredOn">
               <valueDateTime value="${DATE, T, D, -36}T15:55:00+02:00"/>
            </extension>
            <extension url="http://nictiz.nl/fhir/StructureDefinition/zib-Medication-PeriodOfUse">
               <valuePeriod>
                  <start value="${DATE, T, D, -36}T00:00:00+02:00"/>
               </valuePeriod>
            </extension>
            <extension url="http://nictiz.nl/fhir/StructureDefinition/zib-MedicationUse-Duration">
               <valueDuration>
                  <value value="90"/>
                  <unit value="dag"/>
                  <system value="http://unitsofmeasure.org"/>
                  <code value="d"/>
               </valueDuration>
            </extension>
            <extension url="http://nictiz.nl/fhir/StructureDefinition/zib-Medication-MedicationTreatment">
               <valueIdentifier>
                  <system value="urn:oid:2.16.840.1.113883.2.4.3.11.999.77.1.1"/>
                  <value value="MBH_MO_123_5"/>
               </valueIdentifier>
            </extension>
            <extension url="http://nictiz.nl/fhir/StructureDefinition/zib-Medication-CopyIndicator">
               <valueBoolean value="true"/>
            </extension>
            <identifier>
               <system value="urn:oid:2.16.840.1.113883.2.4.3.11.999.77.422037009.1"/>
               <value value="MBH_MO_123_5_TA_1"/>
            </identifier>
            <category>
               <coding>
                  <system value="http://snomed.info/sct"/>
                  <code value="422037009"/>
                  <display value="Provider medication administration instructions (procedure)"/>
               </coding>
               <text value="Toedieningsafspraak"/>
            </category>
            <medicationReference>
               <reference value="Medication/zib-Product-mp9-2.16.840.1.113883.2.4.4.7-2105594"/>
               <display value="PERINDOPRIL TERT-BUTYLAMINE GLENMARK TABLET 8MG"/>
            </medicationReference>
            <subject>
               <reference value="Patient/XXX-JANGI"/>
               <display value="I. XXX_Jangi"/>
            </subject>
            <performer>
               <actor>
                  <reference value="Organization/nl-core-organization-mp9-2.16.528.1.1007.3.3-13336578"/>
                  <display value="Poliapotheek Antonius"/>
               </actor>
            </performer>
            <dosageInstruction>
               <sequence value="1"/>
               <text value="Vanaf T - 36 dagen, gedurende 90 dagen, 1 maal per dag 1 stuk, oraal"/>
               <timing>
                  <repeat>
                     <frequency value="1"/>
                     <period value="1"/>
                     <periodUnit value="d"/>
                  </repeat>
               </timing>
               <route>
                  <coding>
                     <system value="urn:oid:2.16.840.1.113883.2.4.4.9"/>
                     <code value="9"/>
                     <display value="oraal"/>
                  </coding>
               </route>
               <doseQuantity>
                  <value value="1"/>
                  <unit value="stuk"/>
                  <system value="urn:oid:2.16.840.1.113883.2.4.4.1.900.2"/>
                  <code value="245"/>
               </doseQuantity>
            </dosageInstruction>
         </MedicationDispense>
      </resource>
      <search>
         <mode value="include"/>
      </search>
   </entry>
   <entry>
      <fullUrl value="urn:uuid:c83e1f3f-8d8f-11ec-2127-020000000000"/>
      <resource>
         <MedicationDispense>
            <id value="zib-AdministrationAgreement-mp9-MBH-MO-123-6-TA-1"/>
            <meta>
               <profile value="http://nictiz.nl/fhir/StructureDefinition/zib-AdministrationAgreement"/>
            </meta>
            <text>
               <status value="extensions"/>
               <div xmlns="http://www.w3.org/1999/xhtml">
                  <table>
                     <caption>Toedieningsafspraak. Subject: I. XXX_Jangi. Id: MBH_MO_123_6_TA_1 (urn:oid:2.16.840.1.113883.2.4.3.11.999.77.422037009.1), Categorie: <span title="Provider medication administration instructions (procedure) (422037009 - SNOMED CT)">Provider medication administration instructions (procedure)</span>
                        <span style="display: block;">Uitvoerende: Poliapotheek Antonius</span>
                     </caption>
                     <tbody>
                        <tr>
                           <th colspan="2">Deze informatie is gekopieerd van een derde partij</th>
                        </tr>
                        <tr>
                           <th>Medicamenteuze behandel-id</th>
                           <td>MBH_MO_123_6 (urn:oid:2.16.840.1.113883.2.4.3.11.999.77.1.1)</td>
                        </tr>
                        <tr>
                           <th>Gemaakt</th>
                           <td>${DATE, T, D, -323}T15:55:00+02:00</td>
                        </tr>
                        <tr>
                           <th>Gebaseerd op</th>
                           <td>relatie naar medicatieafspraak: MBH_MO_123_6_MA_1 || 2.16.840.1.113883.2.4.3.11.999.77.16076005.1 (Id: MBH_MO_123_6_MA_1 (urn:oid:2.16.840.1.113883.2.4.3.11.999.77.16076005.1))</td>
                        </tr>
                        <tr>
                           <th>Medicatie</th>
                           <td>SIMVASTATINE APOTEX TABLET FILMOMHULD 10MG</td>
                        </tr>
                        <tr>
                           <th>Gebruiksduur</th>
                           <td>Vanaf ${DATE, T, D, -323}T00:00:00+02:00</td>
                        </tr>
                        <tr>
                           <th>Doseerinstructie</th>
                           <td>
                              <div>Volgnummer: 1</div>
                              <div>Tekst: Vanaf T - 323 dagen, 1 maal per dag 2 stuks 's avonds, oraal</div>
                              <div>Timing: <div>eenmalig per dag, EVE</div>
                              </div>
                              <div>Toedieningsweg: <span title="oraal (9 - G-Standaard thesaurus subtabel 0007)">oraal</span>
                              </div>
                              <div>Dosering: 2 stuk</div>
                           </td>
                        </tr>
                     </tbody>
                  </table>
               </div>
            </text>
            <extension url="http://nictiz.nl/fhir/StructureDefinition/zib-AdministrationAgreement-AuthoredOn">
               <valueDateTime value="${DATE, T, D, -323}T15:55:00+02:00"/>
            </extension>
            <extension url="http://nictiz.nl/fhir/StructureDefinition/zib-Medication-PeriodOfUse">
               <valuePeriod>
                  <start value="${DATE, T, D, -323}T00:00:00+02:00"/>
               </valuePeriod>
            </extension>
            <extension url="http://nictiz.nl/fhir/StructureDefinition/zib-Medication-MedicationTreatment">
               <valueIdentifier>
                  <system value="urn:oid:2.16.840.1.113883.2.4.3.11.999.77.1.1"/>
                  <value value="MBH_MO_123_6"/>
               </valueIdentifier>
            </extension>
            <extension url="http://nictiz.nl/fhir/StructureDefinition/zib-Medication-CopyIndicator">
               <valueBoolean value="true"/>
            </extension>
            <identifier>
               <system value="urn:oid:2.16.840.1.113883.2.4.3.11.999.77.422037009.1"/>
               <value value="MBH_MO_123_6_TA_1"/>
            </identifier>
            <category>
               <coding>
                  <system value="http://snomed.info/sct"/>
                  <code value="422037009"/>
                  <display value="Provider medication administration instructions (procedure)"/>
               </coding>
               <text value="Toedieningsafspraak"/>
            </category>
            <medicationReference>
               <reference value="Medication/zib-Product-mp9-2.16.840.1.113883.2.4.4.7-1537792"/>
               <display value="SIMVASTATINE APOTEX TABLET FILMOMHULD 10MG"/>
            </medicationReference>
            <subject>
               <reference value="Patient/XXX-JANGI"/>
               <display value="I. XXX_Jangi"/>
            </subject>
            <performer>
               <actor>
                  <reference value="Organization/nl-core-organization-mp9-2.16.528.1.1007.3.3-13336578"/>
                  <display value="Poliapotheek Antonius"/>
               </actor>
            </performer>
            <authorizingPrescription>
               <identifier>
                  <system value="urn:oid:2.16.840.1.113883.2.4.3.11.999.77.16076005.1"/>
                  <value value="MBH_MO_123_6_MA_1"/>
               </identifier>
               <display value="relatie naar medicatieafspraak: MBH_MO_123_6_MA_1 || 2.16.840.1.113883.2.4.3.11.999.77.16076005.1"/>
            </authorizingPrescription>
            <dosageInstruction>
               <sequence value="1"/>
               <text value="Vanaf T - 323 dagen, 1 maal per dag 2 stuks 's avonds, oraal"/>
               <timing>
                  <repeat>
                     <frequency value="1"/>
                     <period value="1"/>
                     <periodUnit value="d"/>
                     <when value="EVE"/>
                  </repeat>
               </timing>
               <route>
                  <coding>
                     <system value="urn:oid:2.16.840.1.113883.2.4.4.9"/>
                     <code value="9"/>
                     <display value="oraal"/>
                  </coding>
               </route>
               <doseQuantity>
                  <value value="2"/>
                  <unit value="stuk"/>
                  <system value="urn:oid:2.16.840.1.113883.2.4.4.1.900.2"/>
                  <code value="245"/>
               </doseQuantity>
            </dosageInstruction>
         </MedicationDispense>
      </resource>
      <search>
         <mode value="include"/>
      </search>
   </entry>
   <entry>
      <fullUrl value="urn:uuid:c83e0947-8d8f-11ec-2127-020000000000"/>
      <resource>
         <MedicationDispense>
            <id value="zib-AdministrationAgreement-mp9-MBH-MO-123-8-TA-2"/>
            <meta>
               <profile value="http://nictiz.nl/fhir/StructureDefinition/zib-AdministrationAgreement"/>
            </meta>
            <text>
               <status value="extensions"/>
               <div xmlns="http://www.w3.org/1999/xhtml">
                  <table>
                     <caption>Toedieningsafspraak. Subject: I. XXX_Jangi. Id: MBH_MO_123_8_TA_2 (urn:oid:2.16.840.1.113883.2.4.3.11.999.77.422037009.1), Categorie: <span title="Provider medication administration instructions (procedure) (422037009 - SNOMED CT)">Provider medication administration instructions (procedure)</span>
                        <span style="display: block;">Uitvoerende: Poliapotheek Antonius</span>
                     </caption>
                     <tbody>
                        <tr>
                           <th colspan="2">Deze informatie is gekopieerd van een derde partij</th>
                        </tr>
                        <tr>
                           <th colspan="2">Medicatie is gestopt: <span title="Tijdelijk (1 - 2.16.840.1.113883.2.4.3.11.60.20.77.5.2.1)">Tijdelijk</span>
                           </th>
                        </tr>
                        <tr>
                           <th>Medicamenteuze behandel-id</th>
                           <td>MBH_MO_123_8 (urn:oid:2.16.840.1.113883.2.4.3.11.999.77.1.1)</td>
                        </tr>
                        <tr>
                           <th>Gemaakt</th>
                           <td>${DATE, T, D, -28}T11:50:00+02:00</td>
                        </tr>
                        <tr>
                           <th>Gebaseerd op</th>
                           <td>relatie naar medicatieafspraak: MBH_MO_123_8_MA_3 || 2.16.840.1.113883.2.4.3.11.999.77.16076005.1 (Id: MBH_MO_123_8_MA_3 (urn:oid:2.16.840.1.113883.2.4.3.11.999.77.16076005.1))</td>
                        </tr>
                        <tr>
                           <th>Medicatie</th>
                           <td>Atorvastatine ranbaxy tablet filmomhuld 40 mg</td>
                        </tr>
                        <tr>
                           <th>Gebruiksduur</th>
                           <td>${DATE, T, D, -45}T00:00:00+02:00 - ${DATE, T, D, -29}T23:59:00+02:00</td>
                        </tr>
                        <tr>
                           <th>Doseerinstructie</th>
                           <td>
                              <div>Volgnummer: 1</div>
                              <div>Tekst: Vanaf T - 45 dagen, tot en met T - 29 dagen, 1 maal per dag 2 stuks 's avonds, oraal, tijdelijk gestopt</div>
                              <div>Timing: <div>eenmalig per dag, EVE</div>
                              </div>
                              <div>Toedieningsweg: <span title="oraal (9 - G-Standaard thesaurus subtabel 0007)">oraal</span>
                              </div>
                              <div>Dosering: 2 stuk</div>
                           </td>
                        </tr>
                     </tbody>
                  </table>
               </div>
            </text>
            <extension url="http://nictiz.nl/fhir/StructureDefinition/zib-AdministrationAgreement-AuthoredOn">
               <valueDateTime value="${DATE, T, D, -28}T11:50:00+02:00"/>
            </extension>
            <extension url="http://nictiz.nl/fhir/StructureDefinition/zib-AdministrationAgreement-AgreementReason">
               <valueString value="Beleidswijziging"/>
            </extension>
            <extension url="http://nictiz.nl/fhir/StructureDefinition/zib-Medication-PeriodOfUse">
               <valuePeriod>
                  <start value="${DATE, T, D, -45}T00:00:00+02:00"/>
                  <end value="${DATE, T, D, -29}T23:59:00+02:00"/>
               </valuePeriod>
            </extension>
            <extension url="http://nictiz.nl/fhir/StructureDefinition/zib-Medication-MedicationTreatment">
               <valueIdentifier>
                  <system value="urn:oid:2.16.840.1.113883.2.4.3.11.999.77.1.1"/>
                  <value value="MBH_MO_123_8"/>
               </valueIdentifier>
            </extension>
            <extension url="http://nictiz.nl/fhir/StructureDefinition/zib-Medication-CopyIndicator">
               <valueBoolean value="true"/>
            </extension>
            <modifierExtension url="http://nictiz.nl/fhir/StructureDefinition/zib-Medication-StopType">
               <valueCodeableConcept>
                  <coding>
                     <system value="urn:oid:2.16.840.1.113883.2.4.3.11.60.20.77.5.2.1"/>
                     <code value="1"/>
                     <display value="Tijdelijk"/>
                  </coding>
               </valueCodeableConcept>
            </modifierExtension>
            <identifier>
               <system value="urn:oid:2.16.840.1.113883.2.4.3.11.999.77.422037009.1"/>
               <value value="MBH_MO_123_8_TA_2"/>
            </identifier>
            <category>
               <coding>
                  <system value="http://snomed.info/sct"/>
                  <code value="422037009"/>
                  <display value="Provider medication administration instructions (procedure)"/>
               </coding>
               <text value="Toedieningsafspraak"/>
            </category>
            <medicationReference>
               <reference value="Medication/zib-Product-mp9-2.16.840.1.113883.2.4.4.7-2230879"/>
               <display value="Atorvastatine ranbaxy tablet filmomhuld 40 mg"/>
            </medicationReference>
            <subject>
               <reference value="Patient/XXX-JANGI"/>
               <display value="I. XXX_Jangi"/>
            </subject>
            <performer>
               <actor>
                  <reference value="Organization/nl-core-organization-mp9-2.16.528.1.1007.3.3-13336578"/>
                  <display value="Poliapotheek Antonius"/>
               </actor>
            </performer>
            <authorizingPrescription>
               <identifier>
                  <system value="urn:oid:2.16.840.1.113883.2.4.3.11.999.77.16076005.1"/>
                  <value value="MBH_MO_123_8_MA_3"/>
               </identifier>
               <display value="relatie naar medicatieafspraak: MBH_MO_123_8_MA_3 || 2.16.840.1.113883.2.4.3.11.999.77.16076005.1"/>
            </authorizingPrescription>
            <dosageInstruction>
               <sequence value="1"/>
               <text value="Vanaf T - 45 dagen, tot en met T - 29 dagen, 1 maal per dag 2 stuks 's avonds, oraal, tijdelijk gestopt"/>
               <timing>
                  <repeat>
                     <frequency value="1"/>
                     <period value="1"/>
                     <periodUnit value="d"/>
                     <when value="EVE"/>
                  </repeat>
               </timing>
               <route>
                  <coding>
                     <system value="urn:oid:2.16.840.1.113883.2.4.4.9"/>
                     <code value="9"/>
                     <display value="oraal"/>
                  </coding>
               </route>
               <doseQuantity>
                  <value value="2"/>
                  <unit value="stuk"/>
                  <system value="urn:oid:2.16.840.1.113883.2.4.4.1.900.2"/>
                  <code value="245"/>
               </doseQuantity>
            </dosageInstruction>
         </MedicationDispense>
      </resource>
      <search>
         <mode value="include"/>
      </search>
   </entry>
   <entry>
      <fullUrl value="urn:uuid:c83e0a07-8d8f-11ec-2127-020000000000"/>
      <resource>
         <MedicationDispense>
            <id value="zib-AdministrationAgreement-mp9-MBH-MO-123-10-TA-2"/>
            <meta>
               <profile value="http://nictiz.nl/fhir/StructureDefinition/zib-AdministrationAgreement"/>
            </meta>
            <text>
               <status value="extensions"/>
               <div xmlns="http://www.w3.org/1999/xhtml">
                  <table>
                     <caption>Toedieningsafspraak. Subject: I. XXX_Jangi. Id: MBH_MO_123_10_TA_2 (urn:oid:2.16.840.1.113883.2.4.3.11.999.77.422037009.1), Categorie: <span title="Provider medication administration instructions (procedure) (422037009 - SNOMED CT)">Provider medication administration instructions (procedure)</span>
                        <span style="display: block;">Uitvoerende: Poliapotheek Antonius</span>
                     </caption>
                     <tbody>
                        <tr>
                           <th colspan="2">Deze informatie is gekopieerd van een derde partij</th>
                        </tr>
                        <tr>
                           <th colspan="2">Medicatie is gestopt: <span title="Definitief (2 - 2.16.840.1.113883.2.4.3.11.60.20.77.5.2.1)">Definitief</span>
                           </th>
                        </tr>
                        <tr>
                           <th>Medicamenteuze behandel-id</th>
                           <td>MBH_MO_123_10 (urn:oid:2.16.840.1.113883.2.4.3.11.999.77.1.1)</td>
                        </tr>
                        <tr>
                           <th>Gemaakt</th>
                           <td>${DATE, T, D, -36}T15:50:00+02:00</td>
                        </tr>
                        <tr>
                           <th>Medicatie</th>
                           <td>PERINDOPRIL TERT-BUTYLAMINE GLENMARK TABLET 4MG</td>
                        </tr>
                        <tr>
                           <th>Gebruiksduur</th>
                           <td>${DATE, T, D, -56}T00:00:00+02:00 - ${DATE, T, D, -37}T23:59:00+02:00</td>
                        </tr>
                        <tr>
                           <th>Doseerinstructie</th>
                           <td>
                              <div>Volgnummer: 1</div>
                              <div>Tekst: Vanaf T - 56 dagen, tot en met T - 37 dagen, 1 maal per dag 1 stuk 's ochtends, oraal, definitief gestopt</div>
                              <div>Timing: <div>eenmalig per dag, MORN</div>
                              </div>
                              <div>Toedieningsweg: <span title="oraal (9 - G-Standaard thesaurus subtabel 0007)">oraal</span>
                              </div>
                              <div>Dosering: 1 stuk</div>
                           </td>
                        </tr>
                     </tbody>
                  </table>
               </div>
            </text>
            <extension url="http://nictiz.nl/fhir/StructureDefinition/zib-AdministrationAgreement-AuthoredOn">
               <valueDateTime value="${DATE, T, D, -36}T15:50:00+02:00"/>
            </extension>
            <extension url="http://nictiz.nl/fhir/StructureDefinition/zib-AdministrationAgreement-AgreementReason">
               <valueString value="Geen of onvoldoende effect"/>
            </extension>
            <extension url="http://nictiz.nl/fhir/StructureDefinition/zib-Medication-PeriodOfUse">
               <valuePeriod>
                  <start value="${DATE, T, D, -56}T00:00:00+02:00"/>
                  <end value="${DATE, T, D, -37}T23:59:00+02:00"/>
               </valuePeriod>
            </extension>
            <extension url="http://nictiz.nl/fhir/StructureDefinition/zib-Medication-MedicationTreatment">
               <valueIdentifier>
                  <system value="urn:oid:2.16.840.1.113883.2.4.3.11.999.77.1.1"/>
                  <value value="MBH_MO_123_10"/>
               </valueIdentifier>
            </extension>
            <extension url="http://nictiz.nl/fhir/StructureDefinition/zib-Medication-CopyIndicator">
               <valueBoolean value="true"/>
            </extension>
            <modifierExtension url="http://nictiz.nl/fhir/StructureDefinition/zib-Medication-StopType">
               <valueCodeableConcept>
                  <coding>
                     <system value="urn:oid:2.16.840.1.113883.2.4.3.11.60.20.77.5.2.1"/>
                     <code value="2"/>
                     <display value="Definitief"/>
                  </coding>
               </valueCodeableConcept>
            </modifierExtension>
            <identifier>
               <system value="urn:oid:2.16.840.1.113883.2.4.3.11.999.77.422037009.1"/>
               <value value="MBH_MO_123_10_TA_2"/>
            </identifier>
            <category>
               <coding>
                  <system value="http://snomed.info/sct"/>
                  <code value="422037009"/>
                  <display value="Provider medication administration instructions (procedure)"/>
               </coding>
               <text value="Toedieningsafspraak"/>
            </category>
            <medicationReference>
               <reference value="Medication/zib-Product-mp9-2.16.840.1.113883.2.4.4.7-2105586"/>
               <display value="PERINDOPRIL TERT-BUTYLAMINE GLENMARK TABLET 4MG"/>
            </medicationReference>
            <subject>
               <reference value="Patient/XXX-JANGI"/>
               <display value="I. XXX_Jangi"/>
            </subject>
            <performer>
               <actor>
                  <reference value="Organization/nl-core-organization-mp9-2.16.528.1.1007.3.3-13336578"/>
                  <display value="Poliapotheek Antonius"/>
               </actor>
            </performer>
            <dosageInstruction>
               <sequence value="1"/>
               <text value="Vanaf T - 56 dagen, tot en met T - 37 dagen, 1 maal per dag 1 stuk 's ochtends, oraal, definitief gestopt"/>
               <timing>
                  <repeat>
                     <frequency value="1"/>
                     <period value="1"/>
                     <periodUnit value="d"/>
                     <when value="MORN"/>
                  </repeat>
               </timing>
               <route>
                  <coding>
                     <system value="urn:oid:2.16.840.1.113883.2.4.4.9"/>
                     <code value="9"/>
                     <display value="oraal"/>
                  </coding>
               </route>
               <doseQuantity>
                  <value value="1"/>
                  <unit value="stuk"/>
                  <system value="urn:oid:2.16.840.1.113883.2.4.4.1.900.2"/>
                  <code value="245"/>
               </doseQuantity>
            </dosageInstruction>
         </MedicationDispense>
      </resource>
      <search>
         <mode value="include"/>
      </search>
   </entry>
   <entry>
      <fullUrl value="urn:uuid:c83e1662-8d8f-11ec-2127-020000000000"/>
      <resource>
         <MedicationStatement>
            <id value="zib-MedicationUse-mp9-MBH-MO-123-1-MGB-1"/>
            <meta>
               <profile value="http://nictiz.nl/fhir/StructureDefinition/zib-MedicationUse"/>
            </meta>
            <text>
               <status value="extensions"/>
               <div xmlns="http://www.w3.org/1999/xhtml">
                  <table>
                     <caption>MedicationStatement. Subject: I. XXX_Jangi. Id: MBH_MO_123_1_MGB_1 (urn:oid:2.16.840.1.113883.2.4.3.11.999.77.6.1), Categorie: <span title="Medicatiegebruik (6 - 2.16.840.1.113883.2.4.3.11.60.20.77.5.3)">Medicatiegebruik</span>, Status: <i>onbekend (ontbrekend gegeven)</i>
                        <span style="display: block;">Auteur: I. XXX_Jangi</span>
                     </caption>
                     <tfoot>
                        <tr>
                           <td colspan="2">Pijn</td>
                        </tr>
                     </tfoot>
                     <tbody>
                        <tr>
                           <th colspan="2">Deze informatie is gekopieerd van een derde partij</th>
                        </tr>
                        <tr>
                           <th>Medicamenteuze behandel-id</th>
                           <td>MBH_MO_123_1 (urn:oid:2.16.840.1.113883.2.4.3.11.999.77.1.1)</td>
                        </tr>
                        <tr>
                           <th>Medicatie</th>
                           <td>Ibuprofen</td>
                        </tr>
                        <tr>
                           <th>Datum/tijd</th>
                           <td>Vanaf ${DATE, T, D, -3}T00:00:00+02:00, 3 dag</td>
                        </tr>
                        <tr>
                           <th>Informant</th>
                           <td>${DATE, T, D, +0}T10:57:00+02:00</td>
                        </tr>
                        <tr>
                           <th>Dosering</th>
                           <td>
                              <div>Tekst: Vanaf T - 3 dagen, gedurende 3 dagen, 4 maal per dag 1 stuk, oraal</div>
                              <div>Timing: <div>4 maal per dag</div>
                              </div>
                              <div>Toedieningsweg: <span title="oraal (9 - G-Standaard thesaurus subtabel 0007)">oraal</span>
                              </div>
                              <div>Dosering: 1 stuk</div>
                           </td>
                        </tr>
                        <tr>
                           <th>Medicatie gebruikt</th>
                           <td>ja</td>
                        </tr>
                     </tbody>
                  </table>
               </div>
            </text>
            <extension url="http://nictiz.nl/fhir/StructureDefinition/zib-MedicationUse-Author">
               <valueReference>
                  <reference value="Patient/XXX-JANGI"/>
                  <display value="I. XXX_Jangi"/>
               </valueReference>
            </extension>
            <extension url="http://nictiz.nl/fhir/StructureDefinition/zib-Medication-MedicationTreatment">
               <valueIdentifier>
                  <system value="urn:oid:2.16.840.1.113883.2.4.3.11.999.77.1.1"/>
                  <value value="MBH_MO_123_1"/>
               </valueIdentifier>
            </extension>
            <extension url="http://nictiz.nl/fhir/StructureDefinition/zib-Medication-CopyIndicator">
               <valueBoolean value="true"/>
            </extension>
            <identifier>
               <system value="urn:oid:2.16.840.1.113883.2.4.3.11.999.77.6.1"/>
               <value value="MBH_MO_123_1_MGB_1"/>
            </identifier>
            <status>
               <extension url="http://hl7.org/fhir/StructureDefinition/data-absent-reason">
                  <valueCode value="unknown"/>
               </extension>
            </status>
            <category>
               <coding>
                  <system value="urn:oid:2.16.840.1.113883.2.4.3.11.60.20.77.5.3"/>
                  <code value="6"/>
                  <display value="Medicatiegebruik"/>
               </coding>
               <text value="Medicatiegebruik"/>
            </category>
            <medicationReference>
               <reference value="Medication/zib-Product-mp9-IBUPROFEN"/>
               <display value="Ibuprofen"/>
            </medicationReference>
            <effectivePeriod>
               <extension url="http://nictiz.nl/fhir/StructureDefinition/zib-MedicationUse-Duration">
                  <valueDuration>
                     <value value="3"/>
                     <unit value="dag"/>
                     <system value="http://unitsofmeasure.org"/>
                     <code value="d"/>
                  </valueDuration>
               </extension>
               <start value="${DATE, T, D, -3}T00:00:00+02:00"/>
            </effectivePeriod>
            <dateAsserted value="${DATE, T, D, +0}T10:57:00+02:00"/>
            <subject>
               <reference value="Patient/XXX-JANGI"/>
               <display value="I. XXX_Jangi"/>
            </subject>
            <taken value="y"/>
            <note>
               <text value="Pijn"/>
            </note>
            <dosage>
               <text value="Vanaf T - 3 dagen, gedurende 3 dagen, 4 maal per dag 1 stuk, oraal"/>
               <timing>
                  <repeat>
                     <frequency value="4"/>
                     <period value="1"/>
                     <periodUnit value="d"/>
                  </repeat>
               </timing>
               <route>
                  <coding>
                     <system value="urn:oid:2.16.840.1.113883.2.4.4.9"/>
                     <code value="9"/>
                     <display value="oraal"/>
                  </coding>
               </route>
               <doseQuantity>
                  <value value="1"/>
                  <unit value="stuk"/>
                  <system value="urn:oid:2.16.840.1.113883.2.4.4.1.900.2"/>
                  <code value="245"/>
               </doseQuantity>
            </dosage>
         </MedicationStatement>
      </resource>
      <search>
         <mode value="include"/>
      </search>
   </entry>
   <entry>
      <fullUrl value="urn:uuid:c83e1d55-8d8f-11ec-2127-020000000000"/>
      <resource>
         <MedicationStatement>
            <id value="zib-MedicationUse-mp9-MBH-MO-123-3-MGB-1"/>
            <meta>
               <profile value="http://nictiz.nl/fhir/StructureDefinition/zib-MedicationUse"/>
            </meta>
            <text>
               <status value="extensions"/>
               <div xmlns="http://www.w3.org/1999/xhtml">
                  <table>
                     <caption>MedicationStatement. Subject: I. XXX_Jangi. Id: MBH_MO_123_3_MGB_1 (urn:oid:2.16.840.1.113883.2.4.3.11.999.77.6.1), Categorie: <span title="Medicatiegebruik (6 - 2.16.840.1.113883.2.4.3.11.60.20.77.5.3)">Medicatiegebruik</span>, Status: <i>onbekend (ontbrekend gegeven)</i>
                        <span style="display: block;">Auteur: I. XXX_Jangi</span>
                     </caption>
                     <tbody>
                        <tr>
                           <th colspan="2">Deze informatie is gekopieerd van een derde partij</th>
                        </tr>
                        <tr>
                           <th>Medicamenteuze behandel-id</th>
                           <td>MBH_MO_123_3 (urn:oid:2.16.840.1.113883.2.4.3.11.999.77.1.1)</td>
                        </tr>
                        <tr>
                           <th>Medicatie</th>
                           <td>Glimepiride</td>
                        </tr>
                        <tr>
                           <th>Datum/tijd</th>
                           <td>${DATE, T, D, -10}T00:00:00+02:00 - ${DATE, T, D, +1}T23:59:59+02:00</td>
                        </tr>
                        <tr>
                           <th>Informant</th>
                           <td>${DATE, T, D, +0}T12:58:00+02:00</td>
                        </tr>
                        <tr>
                           <th>Dosering</th>
                           <td>
                              <div>Tekst: Vanaf T - 10 dagen, tot en met T + 1 dag, 1 maal per dag 1 stuk</div>
                              <div>Timing: <div>eenmalig per dag</div>
                              </div>
                              <div>Dosering: 1 stuk</div>
                           </td>
                        </tr>
                        <tr>
                           <th>Medicatie gebruikt</th>
                           <td>ja</td>
                        </tr>
                     </tbody>
                  </table>
               </div>
            </text>
            <extension url="http://nictiz.nl/fhir/StructureDefinition/zib-MedicationUse-Author">
               <valueReference>
                  <reference value="Patient/XXX-JANGI"/>
                  <display value="I. XXX_Jangi"/>
               </valueReference>
            </extension>
            <extension url="http://nictiz.nl/fhir/StructureDefinition/zib-Medication-MedicationTreatment">
               <valueIdentifier>
                  <system value="urn:oid:2.16.840.1.113883.2.4.3.11.999.77.1.1"/>
                  <value value="MBH_MO_123_3"/>
               </valueIdentifier>
            </extension>
            <extension url="http://nictiz.nl/fhir/StructureDefinition/zib-Medication-CopyIndicator">
               <valueBoolean value="true"/>
            </extension>
            <identifier>
               <system value="urn:oid:2.16.840.1.113883.2.4.3.11.999.77.6.1"/>
               <value value="MBH_MO_123_3_MGB_1"/>
            </identifier>
            <status>
               <extension url="http://hl7.org/fhir/StructureDefinition/data-absent-reason">
                  <valueCode value="unknown"/>
               </extension>
            </status>
            <category>
               <coding>
                  <system value="urn:oid:2.16.840.1.113883.2.4.3.11.60.20.77.5.3"/>
                  <code value="6"/>
                  <display value="Medicatiegebruik"/>
               </coding>
               <text value="Medicatiegebruik"/>
            </category>
            <medicationReference>
               <reference value="Medication/zib-Product-mp9-c83e1d64-8d8f-11ec-2127-020000000000"/>
               <display value="Glimepiride"/>
            </medicationReference>
            <effectivePeriod>
               <start value="${DATE, T, D, -10}T00:00:00+02:00"/>
               <end value="${DATE, T, D, +1}T23:59:59+02:00"/>
            </effectivePeriod>
            <dateAsserted value="${DATE, T, D, +0}T12:58:00+02:00"/>
            <subject>
               <reference value="Patient/XXX-JANGI"/>
               <display value="I. XXX_Jangi"/>
            </subject>
            <taken value="y"/>
            <dosage>
               <text value="Vanaf T - 10 dagen, tot en met T + 1 dag, 1 maal per dag 1 stuk"/>
               <timing>
                  <repeat>
                     <frequency value="1"/>
                     <period value="1"/>
                     <periodUnit value="d"/>
                  </repeat>
               </timing>
               <doseQuantity>
                  <value value="1"/>
                  <unit value="stuk"/>
                  <system value="urn:oid:2.16.840.1.113883.2.4.4.1.900.2"/>
                  <code value="245"/>
               </doseQuantity>
            </dosage>
         </MedicationStatement>
      </resource>
      <search>
         <mode value="include"/>
      </search>
   </entry>
   <entry>
      <fullUrl value="urn:uuid:c83e1e9b-8d8f-11ec-2127-020000000000"/>
      <resource>
         <MedicationStatement>
            <id value="zib-MedicationUse-mp9-MBH-MO-123-5-MGB-1"/>
            <meta>
               <profile value="http://nictiz.nl/fhir/StructureDefinition/zib-MedicationUse"/>
            </meta>
            <text>
               <status value="extensions"/>
               <div xmlns="http://www.w3.org/1999/xhtml">
                  <table>
                     <caption>MedicationStatement. Subject: I. XXX_Jangi. Id: MBH_MO_123_5_MGB_1 (urn:oid:2.16.840.1.113883.2.4.3.11.999.77.6.1), Categorie: <span title="Medicatiegebruik (6 - 2.16.840.1.113883.2.4.3.11.60.20.77.5.3)">Medicatiegebruik</span>, Status: gestopt<span style="display: block;">Auteur: I. XXX_Jangi</span>
                     </caption>
                     <tfoot>
                        <tr>
                           <td colspan="2">Gestopt vanwege bijwerkingen</td>
                        </tr>
                     </tfoot>
                     <tbody>
                        <tr>
                           <th colspan="2">Deze informatie is gekopieerd van een derde partij</th>
                        </tr>
                        <tr>
                           <th>Medicamenteuze behandel-id</th>
                           <td>MBH_MO_123_5 (urn:oid:2.16.840.1.113883.2.4.3.11.999.77.1.1)</td>
                        </tr>
                        <tr>
                           <th>Medicatie</th>
                           <td>PERINDOPRIL TERT-BUTYLAMINE GLENMARK TABLET 8MG</td>
                        </tr>
                        <tr>
                           <th>Datum/tijd</th>
                           <td>Vanaf ${DATE, T, D, -34}T00:00:00+02:00</td>
                        </tr>
                        <tr>
                           <th>Informant</th>
                           <td>${DATE, T, D, -33}T13:58:00+02:00</td>
                        </tr>
                        <tr>
                           <th>Ondersteunende informatie</th>
                           <td>relatie naar toedieningsafspraak (Id: MBH_MO_123_5_TA_1 (urn:oid:2.16.840.1.113883.2.4.3.11.999.77.422037009.1))</td>
                        </tr>
                        <tr>
                           <th>Dosering</th>
                           <td>
                              <div>Tekst: Vanaf T - 34 dagen, geneesmiddel niet in gebruik, definitief gestopt</div>
                           </td>
                        </tr>
                        <tr>
                           <th>Medicatie gebruikt</th>
                           <td>nee. Reden voor wijzigen of stoppen: <span title="Te sterk effect (6 - 2.16.840.1.113883.2.4.3.11.60.20.77.5.2.2)">Te sterk effect</span>
                           </td>
                        </tr>
                     </tbody>
                  </table>
               </div>
            </text>
            <extension url="http://nictiz.nl/fhir/StructureDefinition/zib-MedicationUse-AsAgreedIndicator">
               <valueBoolean value="false"/>
            </extension>
            <extension url="http://nictiz.nl/fhir/StructureDefinition/zib-MedicationUse-Author">
               <valueReference>
                  <reference value="Patient/XXX-JANGI"/>
                  <display value="I. XXX_Jangi"/>
               </valueReference>
            </extension>
            <extension url="http://nictiz.nl/fhir/StructureDefinition/zib-Medication-MedicationTreatment">
               <valueIdentifier>
                  <system value="urn:oid:2.16.840.1.113883.2.4.3.11.999.77.1.1"/>
                  <value value="MBH_MO_123_5"/>
               </valueIdentifier>
            </extension>
            <extension url="http://nictiz.nl/fhir/StructureDefinition/zib-Medication-CopyIndicator">
               <valueBoolean value="true"/>
            </extension>
            <extension url="http://nictiz.nl/fhir/StructureDefinition/zib-MedicationUse-ReasonForChangeOrDiscontinuationOfUse">
               <valueCodeableConcept>
                  <coding>
                     <system value="urn:oid:2.16.840.1.113883.2.4.3.11.60.20.77.5.2.2"/>
                     <code value="6"/>
                     <display value="Te sterk effect"/>
                  </coding>
               </valueCodeableConcept>
            </extension>
            <identifier>
               <system value="urn:oid:2.16.840.1.113883.2.4.3.11.999.77.6.1"/>
               <value value="MBH_MO_123_5_MGB_1"/>
            </identifier>
            <status value="stopped"/>
            <category>
               <coding>
                  <system value="urn:oid:2.16.840.1.113883.2.4.3.11.60.20.77.5.3"/>
                  <code value="6"/>
                  <display value="Medicatiegebruik"/>
               </coding>
               <text value="Medicatiegebruik"/>
            </category>
            <medicationReference>
               <reference value="Medication/zib-Product-mp9-2.16.840.1.113883.2.4.4.7-2105594"/>
               <display value="PERINDOPRIL TERT-BUTYLAMINE GLENMARK TABLET 8MG"/>
            </medicationReference>
            <effectivePeriod>
               <start value="${DATE, T, D, -34}T00:00:00+02:00"/>
            </effectivePeriod>
            <dateAsserted value="${DATE, T, D, -33}T13:58:00+02:00"/>
            <subject>
               <reference value="Patient/XXX-JANGI"/>
               <display value="I. XXX_Jangi"/>
            </subject>
            <derivedFrom>
               <identifier>
                  <system value="urn:oid:2.16.840.1.113883.2.4.3.11.999.77.422037009.1"/>
                  <value value="MBH_MO_123_5_TA_1"/>
               </identifier>
               <display value="relatie naar toedieningsafspraak"/>
            </derivedFrom>
            <taken value="n"/>
            <note>
               <text value="Gestopt vanwege bijwerkingen"/>
            </note>
            <dosage>
               <text value="Vanaf T - 34 dagen, geneesmiddel niet in gebruik, definitief gestopt"/>
            </dosage>
         </MedicationStatement>
      </resource>
      <search>
         <mode value="include"/>
      </search>
   </entry>
   <entry>
      <fullUrl value="urn:uuid:c83e081a-8d8f-11ec-2127-020000000000"/>
      <resource>
         <MedicationStatement>
            <id value="zib-MedicationUse-mp9-MBH-MO-123-6-MGB-1"/>
            <meta>
               <profile value="http://nictiz.nl/fhir/StructureDefinition/zib-MedicationUse"/>
            </meta>
            <text>
               <status value="extensions"/>
               <div xmlns="http://www.w3.org/1999/xhtml">
                  <table>
                     <caption>MedicationStatement. Subject: I. XXX_Jangi. Id: MBH_MO_123_6_MGB_1 (urn:oid:2.16.840.1.113883.2.4.3.11.999.77.6.1), Categorie: <span title="Medicatiegebruik (6 - 2.16.840.1.113883.2.4.3.11.60.20.77.5.3)">Medicatiegebruik</span>, Status: <i>onbekend (ontbrekend gegeven)</i>
                        <span style="display: block;">Auteur: I. Ternist || Medisch specialisten, inwendige geneeskunde || Antonius</span>
                     </caption>
                     <tfoot>
                        <tr>
                           <td colspan="2">Patint gebruikt niet volgens voorschrift</td>
                        </tr>
                     </tfoot>
                     <tbody>
                        <tr>
                           <th>Medicamenteuze behandel-id</th>
                           <td>MBH_MO_123_6 (urn:oid:2.16.840.1.113883.2.4.3.11.999.77.1.1)</td>
                        </tr>
                        <tr>
                           <th>Medicatie</th>
                           <td>SIMVASTATINE APOTEX TABLET FILMOMHULD 10MG</td>
                        </tr>
                        <tr>
                           <th>Datum/tijd</th>
                           <td>Vanaf ${DATE, T, D, -248}T00:00:00+02:00</td>
                        </tr>
                        <tr>
                           <th>Informant</th>
                           <td>${DATE, T, D, -248}T09:00:00+02:00</td>
                        </tr>
                        <tr>
                           <th>Dosering</th>
                           <td>
                              <div>Tekst: Vanaf T - 248 dagen, 1 maal per dag 1 stuk 's avonds, oraal</div>
                              <div>Timing: <div>eenmalig per dag, EVE</div>
                              </div>
                              <div>Toedieningsweg: <span title="oraal (9 - G-Standaard thesaurus subtabel 0007)">oraal</span>
                              </div>
                              <div>Dosering: 1 stuk</div>
                           </td>
                        </tr>
                        <tr>
                           <th>Medicatie gebruikt</th>
                           <td>ja</td>
                        </tr>
                     </tbody>
                  </table>
               </div>
            </text>
            <extension url="http://nictiz.nl/fhir/StructureDefinition/zib-MedicationUse-AsAgreedIndicator">
               <valueBoolean value="false"/>
            </extension>
            <extension url="http://nictiz.nl/fhir/StructureDefinition/zib-MedicationUse-Author">
               <valueReference>
                  <reference value="PractitionerRole/l-core-practitionerrole-mp9-c83e085d-8d8f-11ec-2127-020000000000"/>
                  <display value="I. Ternist || Medisch specialisten, inwendige geneeskunde || Antonius"/>
               </valueReference>
            </extension>
            <extension url="http://nictiz.nl/fhir/StructureDefinition/zib-Medication-MedicationTreatment">
               <valueIdentifier>
                  <system value="urn:oid:2.16.840.1.113883.2.4.3.11.999.77.1.1"/>
                  <value value="MBH_MO_123_6"/>
               </valueIdentifier>
            </extension>
            <extension url="http://nictiz.nl/fhir/StructureDefinition/zib-Medication-CopyIndicator">
               <valueBoolean value="false"/>
            </extension>
            <identifier>
               <system value="urn:oid:2.16.840.1.113883.2.4.3.11.999.77.6.1"/>
               <value value="MBH_MO_123_6_MGB_1"/>
            </identifier>
            <status>
               <extension url="http://hl7.org/fhir/StructureDefinition/data-absent-reason">
                  <valueCode value="unknown"/>
               </extension>
            </status>
            <category>
               <coding>
                  <system value="urn:oid:2.16.840.1.113883.2.4.3.11.60.20.77.5.3"/>
                  <code value="6"/>
                  <display value="Medicatiegebruik"/>
               </coding>
               <text value="Medicatiegebruik"/>
            </category>
            <medicationReference>
               <reference value="Medication/zib-Product-mp9-2.16.840.1.113883.2.4.4.7-1537792"/>
               <display value="SIMVASTATINE APOTEX TABLET FILMOMHULD 10MG"/>
            </medicationReference>
            <effectivePeriod>
               <start value="${DATE, T, D, -248}T00:00:00+02:00"/>
            </effectivePeriod>
            <dateAsserted value="${DATE, T, D, -248}T09:00:00+02:00"/>
            <subject>
               <reference value="Patient/XXX-JANGI"/>
               <display value="I. XXX_Jangi"/>
            </subject>
            <taken value="y"/>
            <note>
               <text value="Patint gebruikt niet volgens voorschrift"/>
            </note>
            <dosage>
               <text value="Vanaf T - 248 dagen, 1 maal per dag 1 stuk 's avonds, oraal"/>
               <timing>
                  <repeat>
                     <frequency value="1"/>
                     <period value="1"/>
                     <periodUnit value="d"/>
                     <when value="EVE"/>
                  </repeat>
               </timing>
               <route>
                  <coding>
                     <system value="urn:oid:2.16.840.1.113883.2.4.4.9"/>
                     <code value="9"/>
                     <display value="oraal"/>
                  </coding>
               </route>
               <doseQuantity>
                  <value value="1"/>
                  <unit value="stuk"/>
                  <system value="urn:oid:2.16.840.1.113883.2.4.4.1.900.2"/>
                  <code value="245"/>
               </doseQuantity>
            </dosage>
         </MedicationStatement>
      </resource>
      <search>
         <mode value="include"/>
      </search>
   </entry>
   <entry>
      <fullUrl value="urn:uuid:c83e0882-8d8f-11ec-2127-020000000000"/>
      <resource>
         <MedicationStatement>
            <id value="zib-MedicationUse-mp9-MBH-MO-123-6-MGB-2"/>
            <meta>
               <profile value="http://nictiz.nl/fhir/StructureDefinition/zib-MedicationUse"/>
            </meta>
            <text>
               <status value="extensions"/>
               <div xmlns="http://www.w3.org/1999/xhtml">
                  <table>
                     <caption>MedicationStatement. Subject: I. XXX_Jangi. Id: MBH_MO_123_6_MGB_2 (urn:oid:2.16.840.1.113883.2.4.3.11.999.77.6.1), Categorie: <span title="Medicatiegebruik (6 - 2.16.840.1.113883.2.4.3.11.60.20.77.5.3)">Medicatiegebruik</span>, Status: <i>onbekend (ontbrekend gegeven)</i>
                        <span style="display: block;">Auteur: I. XXX_Jangi</span>
                     </caption>
                     <tfoot>
                        <tr>
                           <td colspan="2">Veel last van jeuk</td>
                        </tr>
                     </tfoot>
                     <tbody>
                        <tr>
                           <th>Medicamenteuze behandel-id</th>
                           <td>MBH_MO_123_6 (urn:oid:2.16.840.1.113883.2.4.3.11.999.77.1.1)</td>
                        </tr>
                        <tr>
                           <th>Medicatie</th>
                           <td>Simvastine tablet fo 20 mg</td>
                        </tr>
                        <tr>
                           <th>Datum/tijd</th>
                           <td>${DATE, T, D, -248}T00:00:00+02:00 - ${DATE, T, D, -173}T23:59:00+02:00</td>
                        </tr>
                        <tr>
                           <th>Informant</th>
                           <td>${DATE, T, D, -172}T15:37:00+02:00</td>
                        </tr>
                        <tr>
                           <th>Ondersteunende informatie</th>
                           <td>relatie naar medicatieafspraak (Id: MBH_MO_123_6_MA_1 (urn:oid:2.16.840.1.113883.2.4.3.11.999.77.16076005.1))</td>
                        </tr>
                        <tr>
                           <th>Dosering</th>
                           <td>
                              <div>Tekst: Vanaf T - 248 dagen, tot en met T - 173 dagen, 1 maal per dag 1 stuk 's avonds, oraal</div>
                              <div>Timing: <div>eenmalig per dag, EVE</div>
                              </div>
                              <div>Toedieningsweg: <span title="oraal (9 - G-Standaard thesaurus subtabel 0007)">oraal</span>
                              </div>
                              <div>Dosering: 1 stuk</div>
                           </td>
                        </tr>
                        <tr>
                           <th>Medicatie gebruikt</th>
                           <td>ja</td>
                        </tr>
                     </tbody>
                  </table>
               </div>
            </text>
            <extension url="http://nictiz.nl/fhir/StructureDefinition/zib-MedicationUse-AsAgreedIndicator">
               <valueBoolean value="false"/>
            </extension>
            <extension url="http://nictiz.nl/fhir/StructureDefinition/zib-MedicationUse-Author">
               <valueReference>
                  <reference value="Patient/XXX-JANGI"/>
                  <display value="I. XXX_Jangi"/>
               </valueReference>
            </extension>
            <extension url="http://nictiz.nl/fhir/StructureDefinition/zib-Medication-MedicationTreatment">
               <valueIdentifier>
                  <system value="urn:oid:2.16.840.1.113883.2.4.3.11.999.77.1.1"/>
                  <value value="MBH_MO_123_6"/>
               </valueIdentifier>
            </extension>
            <identifier>
               <system value="urn:oid:2.16.840.1.113883.2.4.3.11.999.77.6.1"/>
               <value value="MBH_MO_123_6_MGB_2"/>
            </identifier>
            <status>
               <extension url="http://hl7.org/fhir/StructureDefinition/data-absent-reason">
                  <valueCode value="unknown"/>
               </extension>
            </status>
            <category>
               <coding>
                  <system value="urn:oid:2.16.840.1.113883.2.4.3.11.60.20.77.5.3"/>
                  <code value="6"/>
                  <display value="Medicatiegebruik"/>
               </coding>
               <text value="Medicatiegebruik"/>
            </category>
            <medicationReference>
               <reference value="Medication/zib-Product-mp9-2.16.840.1.113883.2.4.4.10-67814"/>
               <display value="Simvastine tablet fo 20 mg"/>
            </medicationReference>
            <effectivePeriod>
               <start value="${DATE, T, D, -248}T00:00:00+02:00"/>
               <end value="${DATE, T, D, -173}T23:59:00+02:00"/>
            </effectivePeriod>
            <dateAsserted value="${DATE, T, D, -172}T15:37:00+02:00"/>
            <subject>
               <reference value="Patient/XXX-JANGI"/>
               <display value="I. XXX_Jangi"/>
            </subject>
            <derivedFrom>
               <identifier>
                  <system value="urn:oid:2.16.840.1.113883.2.4.3.11.999.77.16076005.1"/>
                  <value value="MBH_MO_123_6_MA_1"/>
               </identifier>
               <display value="relatie naar medicatieafspraak"/>
            </derivedFrom>
            <taken value="y"/>
            <note>
               <text value="Veel last van jeuk"/>
            </note>
            <dosage>
               <text value="Vanaf T - 248 dagen, tot en met T - 173 dagen, 1 maal per dag 1 stuk 's avonds, oraal"/>
               <timing>
                  <repeat>
                     <frequency value="1"/>
                     <period value="1"/>
                     <periodUnit value="d"/>
                     <when value="EVE"/>
                  </repeat>
               </timing>
               <route>
                  <coding>
                     <system value="urn:oid:2.16.840.1.113883.2.4.4.9"/>
                     <code value="9"/>
                     <display value="oraal"/>
                  </coding>
               </route>
               <doseQuantity>
                  <value value="1"/>
                  <unit value="stuk"/>
                  <system value="urn:oid:2.16.840.1.113883.2.4.4.1.900.2"/>
                  <code value="245"/>
               </doseQuantity>
            </dosage>
         </MedicationStatement>
      </resource>
      <search>
         <mode value="include"/>
      </search>
   </entry>
   <entry>
      <fullUrl value="urn:uuid:c83e0605-8d8f-11ec-2127-020000000000"/>
      <resource>
         <Patient>
            <id value="XXX-JANGI"/>
            <meta>
               <profile value="http://fhir.nl/fhir/StructureDefinition/nl-core-patient"/>
            </meta>
            <text>
               <status value="extensions"/>
               <div xmlns="http://www.w3.org/1999/xhtml">
                  <div>Id <i>afgeschermd (ontbrekend gegeven)</i> (BSN), Id 10009 (urn:oid:2.16.840.1.113883.2.4.3.11.999.77.19829.1), I. XXX_Jangi, Man, 2 augustus 1964</div>
                  <div>
                     <a href="tel:+31612345678">+31612345678</a> (Tel)</div>
                  <div>Knolweg 1002, 9999ZZ Stitswerd (Bezoek)</div>
               </div>
            </text>
            <identifier>
               <system value="http://fhir.nl/fhir/NamingSystem/bsn"/>
               <value>
                  <extension url="http://hl7.org/fhir/StructureDefinition/data-absent-reason">
                     <valueCode value="masked"/>
                  </extension>
               </value>
            </identifier>
            <identifier>
               <system value="urn:oid:2.16.840.1.113883.2.4.3.11.999.77.19829.1"/>
               <value value="10009"/>
            </identifier>
            <name>
               <extension url="http://hl7.org/fhir/StructureDefinition/humanname-assembly-order">
                  <valueCode value="NL1"/>
               </extension>
               <family value="XXX_Jangi">
                  <extension url="http://hl7.org/fhir/StructureDefinition/humanname-own-name">
                     <valueString value="XXX_Jangi"/>
                  </extension>
               </family>
               <given value="I.">
                  <extension url="http://hl7.org/fhir/StructureDefinition/iso21090-EN-qualifier">
                     <valueCode value="IN"/>
                  </extension>
               </given>
            </name>
            <telecom>
               <system value="phone"/>
               <value value="+31612345678"/>
            </telecom>
            <gender value="male">
               <extension url="http://nictiz.nl/fhir/StructureDefinition/code-specification">
                  <valueCodeableConcept>
                     <coding>
                        <system value="http://hl7.org/fhir/v3/AdministrativeGender"/>
                        <code value="M"/>
                        <display value="Man"/>
                     </coding>
                  </valueCodeableConcept>
               </extension>
            </gender>
            <birthDate value="1964-08-02"/>
            <address>
               <extension url="http://nictiz.nl/fhir/StructureDefinition/zib-AddressInformation-AddressType">
                  <valueCodeableConcept>
                     <coding>
                        <system value="http://hl7.org/fhir/v3/AddressUse"/>
                        <code value="PHYS"/>
                        <display value="Woon-/verblijfadres"/>
                     </coding>
                  </valueCodeableConcept>
               </extension>
               <extension url="http://hl7.org/fhir/StructureDefinition/iso21090-AD-use">
                  <valueCode value="PHYS"/>
               </extension>
               <use value="home"/>
               <type value="physical"/>
               <line value="Knolweg 1002">
                  <extension url="http://hl7.org/fhir/StructureDefinition/iso21090-ADXP-streetName">
                     <valueString value="Knolweg"/>
                  </extension>
                  <extension url="http://hl7.org/fhir/StructureDefinition/iso21090-ADXP-houseNumber">
                     <valueString value="1002"/>
                  </extension>
               </line>
               <city value="Stitswerd"/>
               <postalCode value="9999ZZ"/>
            </address>
         </Patient>
      </resource>
      <search>
         <mode value="include"/>
      </search>
   </entry>
   <entry>
      <fullUrl value="urn:uuid:c83e1452-8d8f-11ec-2127-020000000000"/>
      <resource>
         <Practitioner>
            <id value="nl-core-practitioner-mp9-c83e1452-8d8f-11ec-2127-020000000000"/>
            <meta>
               <profile value="http://fhir.nl/fhir/StructureDefinition/nl-core-practitioner"/>
            </meta>
            <text>
               <status value="extensions"/>
               <div xmlns="http://www.w3.org/1999/xhtml">
                  <div>John de Vries</div>
               </div>
            </text>
            <name>
               <family value="de Vries">
                  <extension url="http://hl7.org/fhir/StructureDefinition/humanname-own-prefix">
                     <valueString value="de"/>
                  </extension>
                  <extension url="http://hl7.org/fhir/StructureDefinition/humanname-own-name">
                     <valueString value="Vries"/>
                  </extension>
               </family>
               <given value="John">
                  <extension url="http://hl7.org/fhir/StructureDefinition/iso21090-EN-qualifier">
                     <valueCode value="BR"/>
                  </extension>
               </given>
            </name>
         </Practitioner>
      </resource>
      <search>
         <mode value="include"/>
      </search>
   </entry>
   <entry>
      <fullUrl value="urn:uuid:c83e147a-8d8f-11ec-2127-020000000000"/>
      <resource>
         <Practitioner>
            <id value="nl-core-practitioner-mp9-c83e147a-8d8f-11ec-2127-020000000000"/>
            <meta>
               <profile value="http://fhir.nl/fhir/StructureDefinition/nl-core-practitioner"/>
            </meta>
            <text>
               <status value="extensions"/>
               <div xmlns="http://www.w3.org/1999/xhtml">
                  <div>I. Ternist</div>
               </div>
            </text>
            <name>
               <family value="Ternist">
                  <extension url="http://hl7.org/fhir/StructureDefinition/humanname-own-name">
                     <valueString value="Ternist"/>
                  </extension>
               </family>
               <given value="I.">
                  <extension url="http://hl7.org/fhir/StructureDefinition/iso21090-EN-qualifier">
                     <valueCode value="IN"/>
                  </extension>
               </given>
            </name>
         </Practitioner>
      </resource>
      <search>
         <mode value="include"/>
      </search>
   </entry>
   <entry>
      <fullUrl value="urn:oid:2.16.528.1.1007.3.3.1236578"/>
      <resource>
         <Organization>
            <id value="nl-core-organization-mp9-2.16.528.1.1007.3.3-01236578"/>
            <meta>
               <profile value="http://fhir.nl/fhir/StructureDefinition/nl-core-organization"/>
            </meta>
            <text>
               <status value="extensions"/>
               <div xmlns="http://www.w3.org/1999/xhtml">
                  <table>
                     <caption>Organisatie. Id: 01236578 (URA)</caption>
                     <tbody>
                        <tr>
                           <th>Naam</th>
                           <td>Apotheek De Gulle Gaper</td>
                        </tr>
                     </tbody>
                  </table>
               </div>
            </text>
            <identifier>
               <system value="http://fhir.nl/fhir/NamingSystem/ura"/>
               <value value="01236578"/>
            </identifier>
            <name value="Apotheek De Gulle Gaper"/>
         </Organization>
      </resource>
      <search>
         <mode value="include"/>
      </search>
   </entry>
   <entry>
      <fullUrl value="urn:oid:2.16.528.1.1007.3.3.1111"/>
      <resource>
         <Organization>
            <id value="nl-core-organization-mp9-2.16.528.1.1007.3.3-00001111"/>
            <meta>
               <profile value="http://fhir.nl/fhir/StructureDefinition/nl-core-organization"/>
            </meta>
            <text>
               <status value="extensions"/>
               <div xmlns="http://www.w3.org/1999/xhtml">
                  <table>
                     <caption>Organisatie. Id: 00001111 (URA)</caption>
                     <tbody>
                        <tr>
                           <th>Naam</th>
                           <td>Huisartsenpraktijk Pulver &amp; Partners</td>
                        </tr>
                        <tr>
                           <th>Adres</th>
                           <td>Dorpsstraat 1, 1234AA Ons Dorp (WP)</td>
                        </tr>
                     </tbody>
                  </table>
               </div>
            </text>
            <identifier>
               <system value="http://fhir.nl/fhir/NamingSystem/ura"/>
               <value value="00001111"/>
            </identifier>
            <name value="Huisartsenpraktijk Pulver &amp; Partners"/>
            <address>
               <extension url="http://nictiz.nl/fhir/StructureDefinition/zib-AddressInformation-AddressType">
                  <valueCodeableConcept>
                     <coding>
                        <system value="http://hl7.org/fhir/v3/AddressUse"/>
                        <code value="WP"/>
                        <display value="Werkadres"/>
                     </coding>
                  </valueCodeableConcept>
               </extension>
               <use value="work"/>
               <line value="Dorpsstraat 1">
                  <extension url="http://hl7.org/fhir/StructureDefinition/iso21090-ADXP-streetName">
                     <valueString value="Dorpsstraat"/>
                  </extension>
                  <extension url="http://hl7.org/fhir/StructureDefinition/iso21090-ADXP-houseNumber">
                     <valueString value="1"/>
                  </extension>
               </line>
               <city value="Ons Dorp"/>
               <postalCode value="1234AA"/>
            </address>
         </Organization>
      </resource>
      <search>
         <mode value="include"/>
      </search>
   </entry>
   <entry>
      <fullUrl value="urn:oid:2.16.528.1.1007.3.3.1113"/>
      <resource>
         <Organization>
            <id value="nl-core-organization-mp9-2.16.528.1.1007.3.3-00001113"/>
            <meta>
               <profile value="http://fhir.nl/fhir/StructureDefinition/nl-core-organization"/>
            </meta>
            <text>
               <status value="extensions"/>
               <div xmlns="http://www.w3.org/1999/xhtml">
                  <table>
                     <caption>Organisatie. Id: 00001113 (URA)</caption>
                     <tbody>
                        <tr>
                           <th>Naam</th>
                           <td>Antonius</td>
                        </tr>
                        <tr>
                           <th>Adres</th>
                           <td>Dorpsstraat 1, 1234AA Ons Dorp (WP)</td>
                        </tr>
                     </tbody>
                  </table>
               </div>
            </text>
            <identifier>
               <system value="http://fhir.nl/fhir/NamingSystem/ura"/>
               <value value="00001113"/>
            </identifier>
            <name value="Antonius"/>
            <address>
               <extension url="http://nictiz.nl/fhir/StructureDefinition/zib-AddressInformation-AddressType">
                  <valueCodeableConcept>
                     <coding>
                        <system value="http://hl7.org/fhir/v3/AddressUse"/>
                        <code value="WP"/>
                        <display value="Werkadres"/>
                     </coding>
                  </valueCodeableConcept>
               </extension>
               <use value="work"/>
               <line value="Dorpsstraat 1">
                  <extension url="http://hl7.org/fhir/StructureDefinition/iso21090-ADXP-streetName">
                     <valueString value="Dorpsstraat"/>
                  </extension>
                  <extension url="http://hl7.org/fhir/StructureDefinition/iso21090-ADXP-houseNumber">
                     <valueString value="1"/>
                  </extension>
               </line>
               <city value="Ons Dorp"/>
               <postalCode value="1234AA"/>
            </address>
         </Organization>
      </resource>
      <search>
         <mode value="include"/>
      </search>
   </entry>
   <entry>
      <fullUrl value="urn:uuid:c83e0872-8d8f-11ec-2127-020000000000"/>
      <resource>
         <Organization>
            <id value="nl-core-organization-mp9-c83e0872-8d8f-11ec-2127-020000000000"/>
            <meta>
               <profile value="http://fhir.nl/fhir/StructureDefinition/nl-core-organization"/>
            </meta>
            <text>
               <status value="extensions"/>
               <div xmlns="http://www.w3.org/1999/xhtml">
                  <table>
                     <caption>Organisatie. Id: 00001113 (URA)</caption>
                     <tbody>
                        <tr>
                           <th>Naam</th>
                           <td>Antonius</td>
                        </tr>
                     </tbody>
                  </table>
               </div>
            </text>
            <identifier>
               <system value="http://fhir.nl/fhir/NamingSystem/ura"/>
               <value value="00001113"/>
            </identifier>
            <name value="Antonius"/>
         </Organization>
      </resource>
      <search>
         <mode value="include"/>
      </search>
   </entry>
   <entry>
      <fullUrl value="urn:oid:2.16.528.1.1007.3.3.13336578"/>
      <resource>
         <Organization>
            <id value="nl-core-organization-mp9-2.16.528.1.1007.3.3-13336578"/>
            <meta>
               <profile value="http://fhir.nl/fhir/StructureDefinition/nl-core-organization"/>
            </meta>
            <text>
               <status value="extensions"/>
               <div xmlns="http://www.w3.org/1999/xhtml">
                  <table>
                     <caption>Organisatie. Id: 13336578 (URA)</caption>
                     <tbody>
                        <tr>
                           <th>Naam</th>
                           <td>Poliapotheek Antonius</td>
                        </tr>
                     </tbody>
                  </table>
               </div>
            </text>
            <identifier>
               <system value="http://fhir.nl/fhir/NamingSystem/ura"/>
               <value value="13336578"/>
            </identifier>
            <name value="Poliapotheek Antonius"/>
         </Organization>
      </resource>
      <search>
         <mode value="include"/>
      </search>
   </entry>
   <entry>
      <fullUrl value="urn:uuid:c83e0a60-8d8f-11ec-2127-020000000000"/>
      <resource>
         <Organization>
            <id value="nl-core-organization-mp9-c83e0a60-8d8f-11ec-2127-020000000000"/>
            <meta>
               <profile value="http://fhir.nl/fhir/StructureDefinition/nl-core-organization"/>
            </meta>
            <text>
               <status value="extensions"/>
               <div xmlns="http://www.w3.org/1999/xhtml">
                  <table>
                     <caption>Organisatie. </caption>
                     <tbody>
                        <tr>
                           <th>Naam</th>
                           <td>Apotheek de Gulle Gaper</td>
                        </tr>
                        <tr>
                           <th>Contactgegevens</th>
                           <td>
                              <a href="tel:+31703655424">+31703655424</a> (Tel)<br/>
                              <a href="mailto:info@apotheekgullegaper.com">info@apotheekgullegaper.com</a> (E-mail)<br/>
                           </td>
                        </tr>
                        <tr>
                           <th>Adres</th>
                           <td>Zalfstraat 6, 1235BB Ons Dorp (WP)</td>
                        </tr>
                     </tbody>
                  </table>
               </div>
            </text>
            <name value="Apotheek de Gulle Gaper"/>
            <telecom>
               <system value="phone"/>
               <value value="+31703655424"/>
            </telecom>
            <telecom>
               <system value="email"/>
               <value value="info@apotheekgullegaper.com"/>
            </telecom>
            <address>
               <extension url="http://nictiz.nl/fhir/StructureDefinition/zib-AddressInformation-AddressType">
                  <valueCodeableConcept>
                     <coding>
                        <system value="http://hl7.org/fhir/v3/AddressUse"/>
                        <code value="WP"/>
                        <display value="Werkadres"/>
                     </coding>
                  </valueCodeableConcept>
               </extension>
               <use value="work"/>
               <line value="Zalfstraat 6">
                  <extension url="http://hl7.org/fhir/StructureDefinition/iso21090-ADXP-streetName">
                     <valueString value="Zalfstraat"/>
                  </extension>
                  <extension url="http://hl7.org/fhir/StructureDefinition/iso21090-ADXP-houseNumber">
                     <valueString value="6"/>
                  </extension>
               </line>
               <city value="Ons Dorp"/>
               <postalCode value="1235BB"/>
            </address>
         </Organization>
      </resource>
      <search>
         <mode value="include"/>
      </search>
   </entry>
   <entry>
      <fullUrl value="urn:uuid:c83e1ca9-8d8f-11ec-2127-020000000000"/>
      <resource>
         <PractitionerRole>
            <id value="nl-core-practitionerrole-mp9-010000001111"/>
            <meta>
               <profile value="http://fhir.nl/fhir/StructureDefinition/nl-core-practitionerrole"/>
            </meta>
            <text>
               <status value="extensions"/>
               <div xmlns="http://www.w3.org/1999/xhtml">
                  <table>
                     <caption>Zorgverlenerrol. </caption>
                     <tbody>
                        <tr>
                           <th>Zorgverlener</th>
                           <td>
                              <div>John de Vries</div>
                              <div>Huisartsenpraktijk Pulver &amp; Partners</div>
                           </td>
                        </tr>
                        <tr>
                           <th>Specialisme</th>
                           <td>
                              <span title="Huisartsen, niet nader gespecificeerd (0100 - AGB-medisch specialisme)">Huisartsen, niet nader gespecificeerd</span>
                           </td>
                        </tr>
                     </tbody>
                  </table>
               </div>
            </text>
            <practitioner>
               <reference value="Practitioner/nl-core-practitioner-mp9-c83e1452-8d8f-11ec-2127-020000000000"/>
               <display value="John de Vries"/>
            </practitioner>
            <organization>
               <reference value="Organization/nl-core-organization-mp9-2.16.528.1.1007.3.3-00001111"/>
               <display value="Huisartsenpraktijk Pulver &amp; Partners"/>
            </organization>
            <specialty>
               <coding>
                  <system value="urn:oid:2.16.840.1.113883.2.4.6.7"/>
                  <version value="2017-12-14T00:00:00"/>
                  <code value="0100"/>
                  <display value="Huisartsen, niet nader gespecificeerd"/>
               </coding>
            </specialty>
         </PractitionerRole>
      </resource>
      <search>
         <mode value="include"/>
      </search>
   </entry>
   <entry>
      <fullUrl value="urn:uuid:c83e1da6-8d8f-11ec-2127-020000000000"/>
      <resource>
         <PractitionerRole>
            <id value="l-core-practitionerrole-mp9-c83e1da6-8d8f-11ec-2127-020000000000"/>
            <meta>
               <profile value="http://fhir.nl/fhir/StructureDefinition/nl-core-practitionerrole"/>
            </meta>
            <text>
               <status value="extensions"/>
               <div xmlns="http://www.w3.org/1999/xhtml">
                  <table>
                     <caption>Zorgverlenerrol. </caption>
                     <tbody>
                        <tr>
                           <th>Zorgverlener</th>
                           <td>
                              <div>I. Ternist</div>
                              <div>Antonius</div>
                           </td>
                        </tr>
                        <tr>
                           <th>Specialisme</th>
                           <td>
                              <span title="Medisch specialisten, inwendige geneeskunde (0313 - AGB-medisch specialisme)">Medisch specialisten, inwendige geneeskunde</span>
                           </td>
                        </tr>
                     </tbody>
                  </table>
               </div>
            </text>
            <practitioner>
               <reference value="Practitioner/nl-core-practitioner-mp9-c83e147a-8d8f-11ec-2127-020000000000"/>
               <display value="I. Ternist"/>
            </practitioner>
            <organization>
               <reference value="Organization/nl-core-organization-mp9-2.16.528.1.1007.3.3-00001113"/>
               <display value="Antonius"/>
            </organization>
            <specialty>
               <coding>
                  <system value="urn:oid:2.16.840.1.113883.2.4.6.7"/>
                  <version value="2017-12-14T00:00:00"/>
                  <code value="0313"/>
                  <display value="Medisch specialisten, inwendige geneeskunde"/>
               </coding>
            </specialty>
         </PractitionerRole>
      </resource>
      <search>
         <mode value="include"/>
      </search>
   </entry>
   <entry>
      <fullUrl value="urn:uuid:c83e085d-8d8f-11ec-2127-020000000000"/>
      <resource>
         <PractitionerRole>
            <id value="l-core-practitionerrole-mp9-c83e085d-8d8f-11ec-2127-020000000000"/>
            <meta>
               <profile value="http://fhir.nl/fhir/StructureDefinition/nl-core-practitionerrole"/>
            </meta>
            <text>
               <status value="extensions"/>
               <div xmlns="http://www.w3.org/1999/xhtml">
                  <table>
                     <caption>Zorgverlenerrol. </caption>
                     <tbody>
                        <tr>
                           <th>Zorgverlener</th>
                           <td>
                              <div>I. Ternist</div>
                              <div>Antonius</div>
                           </td>
                        </tr>
                        <tr>
                           <th>Specialisme</th>
                           <td>
                              <span title="Medisch specialisten, inwendige geneeskunde (0313 - AGB-medisch specialisme)">Medisch specialisten, inwendige geneeskunde</span>
                           </td>
                        </tr>
                     </tbody>
                  </table>
               </div>
            </text>
            <practitioner>
               <reference value="Practitioner/nl-core-practitioner-mp9-c83e147a-8d8f-11ec-2127-020000000000"/>
               <display value="I. Ternist"/>
            </practitioner>
            <organization>
               <reference value="Organization/nl-core-organization-mp9-c83e0872-8d8f-11ec-2127-020000000000"/>
               <display value="Antonius"/>
            </organization>
            <specialty>
               <coding>
                  <system value="urn:oid:2.16.840.1.113883.2.4.6.7"/>
                  <version value="2017-12-14T00:00:00"/>
                  <code value="0313"/>
                  <display value="Medisch specialisten, inwendige geneeskunde"/>
               </coding>
            </specialty>
         </PractitionerRole>
      </resource>
      <search>
         <mode value="include"/>
      </search>
   </entry>
   <entry>
      <fullUrl value="urn:uuid:c83e1671-8d8f-11ec-2127-020000000000"/>
      <resource>
         <Medication>
            <id value="zib-Product-mp9-IBUPROFEN"/>
            <meta>
               <profile value="http://nictiz.nl/fhir/StructureDefinition/zib-Product"/>
            </meta>
            <text>
               <status value="extensions"/>
               <div xmlns="http://www.w3.org/1999/xhtml">
                  <table>
                     <tbody>
                        <tr>
                           <th>Code</th>
                           <td>Ibuprofen</td>
                        </tr>
                     </tbody>
                  </table>
               </div>
            </text>
            <code>
               <text value="Ibuprofen"/>
            </code>
         </Medication>
      </resource>
      <search>
         <mode value="include"/>
      </search>
   </entry>
   <entry>
      <fullUrl value="urn:uuid:c83e1d64-8d8f-11ec-2127-020000000000"/>
      <resource>
         <Medication>
            <id value="zib-Product-mp9-c83e1d64-8d8f-11ec-2127-020000000000"/>
            <meta>
               <profile value="http://nictiz.nl/fhir/StructureDefinition/zib-Product"/>
            </meta>
            <text>
               <status value="extensions"/>
               <div xmlns="http://www.w3.org/1999/xhtml">
                  <table>
                     <tbody>
                        <tr>
                           <th>Code</th>
                           <td>Glimepiride</td>
                        </tr>
                     </tbody>
                  </table>
               </div>
            </text>
            <code>
               <text value="Glimepiride"/>
            </code>
         </Medication>
      </resource>
      <search>
         <mode value="include"/>
      </search>
   </entry>
   <entry>
      <fullUrl value="urn:oid:2.16.840.1.113883.2.4.4.7.400629"/>
      <resource>
         <Medication>
            <id value="zib-Product-mp9-2.16.840.1.113883.2.4.4.7-400629"/>
            <meta>
               <profile value="http://nictiz.nl/fhir/StructureDefinition/zib-Product"/>
            </meta>
            <text>
               <status value="extensions"/>
               <div xmlns="http://www.w3.org/1999/xhtml">
                  <table>
                     <tbody>
                        <tr>
                           <th>Code</th>
                           <td>
                              <span title="Emovate zalf 0,5 mg/g (400629 - G-Standaard HPK)">Emovate zalf 0,5 mg/g</span>
                           </td>
                        </tr>
                     </tbody>
                  </table>
               </div>
            </text>
            <code>
               <coding>
                  <system value="urn:oid:2.16.840.1.113883.2.4.4.7"/>
                  <code value="400629"/>
                  <display value="Emovate zalf 0,5 mg/g"/>
                  <userSelected value="true"/>
               </coding>
               <coding>
                  <system value="urn:oid:2.16.840.1.113883.2.4.4.10"/>
                  <code value="65617"/>
                  <display value="CLOBETASON ZALF 0,5MG/G"/>
               </coding>
               <coding>
                  <system value="urn:oid:2.16.840.1.113883.2.4.4.1"/>
                  <code value="115606"/>
                  <display value="CLOBETASON ZALF 0,5MG/G"/>
               </coding>
               <text value="Emovate zalf 0,5 mg/g"/>
            </code>
         </Medication>
      </resource>
      <search>
         <mode value="include"/>
      </search>
   </entry>
   <entry>
      <fullUrl value="urn:oid:2.16.840.1.113883.2.4.4.10.44458"/>
      <resource>
         <Medication>
            <id value="zib-Product-mp9-2.16.840.1.113883.2.4.4.10-44458"/>
            <meta>
               <profile value="http://nictiz.nl/fhir/StructureDefinition/zib-Product"/>
            </meta>
            <text>
               <status value="extensions"/>
               <div xmlns="http://www.w3.org/1999/xhtml">
                  <table>
                     <tbody>
                        <tr>
                           <th>Code</th>
                           <td>
                              <span title="GLIMEPIRIDE TABLET 3MG (44458 - G-Standaard PRK)">GLIMEPIRIDE TABLET 3MG</span>
                           </td>
                        </tr>
                     </tbody>
                  </table>
               </div>
            </text>
            <code>
               <coding>
                  <system value="urn:oid:2.16.840.1.113883.2.4.4.10"/>
                  <code value="44458"/>
                  <display value="GLIMEPIRIDE TABLET 3MG"/>
                  <userSelected value="true"/>
               </coding>
               <coding>
                  <system value="urn:oid:2.16.840.1.113883.2.4.4.1"/>
                  <code value="98345"/>
                  <display value="GLIMEPIRIDE TABLET 3MG"/>
               </coding>
               <text value="GLIMEPIRIDE TABLET 3MG"/>
            </code>
         </Medication>
      </resource>
      <search>
         <mode value="include"/>
      </search>
   </entry>
   <entry>
      <fullUrl value="urn:oid:2.16.840.1.113883.2.4.4.7.1753029"/>
      <resource>
         <Medication>
            <id value="zib-Product-mp9-2.16.840.1.113883.2.4.4.7-1753029"/>
            <meta>
               <profile value="http://nictiz.nl/fhir/StructureDefinition/zib-Product"/>
            </meta>
            <text>
               <status value="extensions"/>
               <div xmlns="http://www.w3.org/1999/xhtml">
                  <table>
                     <tbody>
                        <tr>
                           <th>Code</th>
                           <td>
                              <span title="Glimepiride activis tablet 3mg (1753029 - G-Standaard HPK)">Glimepiride activis tablet 3mg</span>
                           </td>
                        </tr>
                     </tbody>
                  </table>
               </div>
            </text>
            <code>
               <coding>
                  <system value="urn:oid:2.16.840.1.113883.2.4.4.7"/>
                  <code value="1753029"/>
                  <display value="Glimepiride activis tablet 3mg"/>
                  <userSelected value="true"/>
               </coding>
               <coding>
                  <system value="urn:oid:2.16.840.1.113883.2.4.4.10"/>
                  <code value="44458"/>
                  <display value="GLIMEPIRIDE TABLET 3MG"/>
               </coding>
               <coding>
                  <system value="urn:oid:2.16.840.1.113883.2.4.4.1"/>
                  <code value="98345"/>
                  <display value="GLIMEPIRIDE TABLET 3MG"/>
               </coding>
               <text value="Glimepiride activis tablet 3mg"/>
            </code>
         </Medication>
      </resource>
      <search>
         <mode value="include"/>
      </search>
   </entry>
   <entry>
      <fullUrl value="urn:oid:2.16.840.1.113883.2.4.4.10.121312"/>
      <resource>
         <Medication>
            <id value="zib-Product-mp9-2.16.840.1.113883.2.4.4.10-121312"/>
            <meta>
               <profile value="http://nictiz.nl/fhir/StructureDefinition/zib-Product"/>
            </meta>
            <text>
               <status value="extensions"/>
               <div xmlns="http://www.w3.org/1999/xhtml">
                  <table>
                     <tbody>
                        <tr>
                           <th>Code</th>
                           <td>
                              <span title="INSULINE GLARGINE INJVLST 100E/ML (121312 - G-Standaard PRK)">INSULINE GLARGINE INJVLST 100E/ML</span>
                           </td>
                        </tr>
                     </tbody>
                  </table>
               </div>
            </text>
            <code>
               <coding>
                  <system value="urn:oid:2.16.840.1.113883.2.4.4.10"/>
                  <code value="121312"/>
                  <display value="INSULINE GLARGINE INJVLST 100E/ML"/>
                  <userSelected value="true"/>
               </coding>
               <coding>
                  <system value="urn:oid:2.16.840.1.113883.2.4.4.1"/>
                  <code value="128651"/>
                  <display value="INSULINE GLARGINE INJVLST 100E/ML"/>
               </coding>
               <text value="INSULINE GLARGINE INJVLST 100E/ML"/>
            </code>
         </Medication>
      </resource>
      <search>
         <mode value="include"/>
      </search>
   </entry>
   <entry>
      <fullUrl value="urn:oid:2.16.840.1.113883.2.4.4.7.1859226"/>
      <resource>
         <Medication>
            <id value="zib-Product-mp9-2.16.840.1.113883.2.4.4.7-1859226"/>
            <meta>
               <profile value="http://nictiz.nl/fhir/StructureDefinition/zib-Product"/>
            </meta>
            <text>
               <status value="extensions"/>
               <div xmlns="http://www.w3.org/1999/xhtml">
                  <table>
                     <tbody>
                        <tr>
                           <th>Code</th>
                           <td>
                              <span title="LANTUS SOLOSTAR INJ 100E/ML PEN 3ML (1859226 - G-Standaard HPK)">LANTUS SOLOSTAR INJ 100E/ML PEN 3ML</span>
                           </td>
                        </tr>
                     </tbody>
                  </table>
               </div>
            </text>
            <code>
               <coding>
                  <system value="urn:oid:2.16.840.1.113883.2.4.4.7"/>
                  <code value="1859226"/>
                  <display value="LANTUS SOLOSTAR INJ 100E/ML PEN 3ML"/>
                  <userSelected value="true"/>
               </coding>
               <coding>
                  <system value="urn:oid:2.16.840.1.113883.2.4.4.10"/>
                  <code value="121312"/>
                  <display value="INSULINE GLARGINE INJVLST 100E/ML"/>
               </coding>
               <coding>
                  <system value="urn:oid:2.16.840.1.113883.2.4.4.1"/>
                  <code value="128651"/>
                  <display value="INSULINE GLARGINE INJVLST 100E/ML"/>
               </coding>
               <text value="LANTUS SOLOSTAR INJ 100E/ML PEN 3ML"/>
            </code>
         </Medication>
      </resource>
      <search>
         <mode value="include"/>
      </search>
   </entry>
   <entry>
      <fullUrl value="urn:oid:2.16.840.1.113883.2.4.4.7.2105594"/>
      <resource>
         <Medication>
            <id value="zib-Product-mp9-2.16.840.1.113883.2.4.4.7-2105594"/>
            <meta>
               <profile value="http://nictiz.nl/fhir/StructureDefinition/zib-Product"/>
            </meta>
            <text>
               <status value="extensions"/>
               <div xmlns="http://www.w3.org/1999/xhtml">
                  <table>
                     <tbody>
                        <tr>
                           <th>Code</th>
                           <td>
                              <span title="PERINDOPRIL TERT-BUTYLAMINE GLENMARK TABLET 8MG (2105594 - G-Standaard HPK)">PERINDOPRIL TERT-BUTYLAMINE GLENMARK TABLET 8MG</span>
                           </td>
                        </tr>
                     </tbody>
                  </table>
               </div>
            </text>
            <code>
               <coding>
                  <system value="urn:oid:2.16.840.1.113883.2.4.4.7"/>
                  <code value="2105594"/>
                  <display value="PERINDOPRIL TERT-BUTYLAMINE GLENMARK TABLET 8MG"/>
                  <userSelected value="true"/>
               </coding>
               <coding>
                  <system value="urn:oid:2.16.840.1.113883.2.4.4.10"/>
                  <code value="69523"/>
                  <display value="PERINDOPRIL TABLET 8MG (ERBUMINE)"/>
               </coding>
               <coding>
                  <system value="urn:oid:2.16.840.1.113883.2.4.4.1"/>
                  <code value="117722"/>
                  <display value="PERINDOPRIL TABLET 8MG (ERBUMINE)"/>
               </coding>
               <text value="PERINDOPRIL TERT-BUTYLAMINE GLENMARK TABLET 8MG"/>
            </code>
         </Medication>
      </resource>
      <search>
         <mode value="include"/>
      </search>
   </entry>
   <entry>
      <fullUrl value="urn:oid:2.16.840.1.113883.2.4.4.10.67814"/>
      <resource>
         <Medication>
            <id value="zib-Product-mp9-2.16.840.1.113883.2.4.4.10-67814"/>
            <meta>
               <profile value="http://nictiz.nl/fhir/StructureDefinition/zib-Product"/>
            </meta>
            <text>
               <status value="extensions"/>
               <div xmlns="http://www.w3.org/1999/xhtml">
                  <table>
                     <tbody>
                        <tr>
                           <th>Code</th>
                           <td>
                              <span title="Simvastine tablet fo 20 mg (67814 - G-Standaard PRK)">Simvastine tablet fo 20 mg</span>
                           </td>
                        </tr>
                     </tbody>
                  </table>
               </div>
            </text>
            <code>
               <coding>
                  <system value="urn:oid:2.16.840.1.113883.2.4.4.10"/>
                  <code value="67814"/>
                  <display value="Simvastine tablet fo 20 mg"/>
                  <userSelected value="true"/>
               </coding>
               <coding>
                  <system value="urn:oid:2.16.840.1.113883.2.4.4.1"/>
                  <code value="116580"/>
                  <display value="Simvastine tablet fo 20 mg"/>
               </coding>
               <text value="Simvastine tablet fo 20 mg"/>
            </code>
         </Medication>
      </resource>
      <search>
         <mode value="include"/>
      </search>
   </entry>
   <entry>
      <fullUrl value="urn:oid:2.16.840.1.113883.2.4.4.7.1537792"/>
      <resource>
         <Medication>
            <id value="zib-Product-mp9-2.16.840.1.113883.2.4.4.7-1537792"/>
            <meta>
               <profile value="http://nictiz.nl/fhir/StructureDefinition/zib-Product"/>
            </meta>
            <text>
               <status value="extensions"/>
               <div xmlns="http://www.w3.org/1999/xhtml">
                  <table>
                     <tbody>
                        <tr>
                           <th>Code</th>
                           <td>
                              <span title="SIMVASTATINE APOTEX TABLET FILMOMHULD 10MG (1537792 - G-Standaard HPK)">SIMVASTATINE APOTEX TABLET FILMOMHULD 10MG</span>
                           </td>
                        </tr>
                     </tbody>
                  </table>
               </div>
            </text>
            <code>
               <coding>
                  <system value="urn:oid:2.16.840.1.113883.2.4.4.7"/>
                  <code value="1537792"/>
                  <display value="SIMVASTATINE APOTEX TABLET FILMOMHULD 10MG"/>
                  <userSelected value="true"/>
               </coding>
               <coding>
                  <system value="urn:oid:2.16.840.1.113883.2.4.4.10"/>
                  <code value="67806"/>
                  <display value="SIMVASTATINE 10MG TABLET FO"/>
               </coding>
               <coding>
                  <system value="urn:oid:2.16.840.1.113883.2.4.4.1"/>
                  <code value="116572"/>
                  <display value="SIMVASTATINE 10MG TABLET FO"/>
               </coding>
               <text value="SIMVASTATINE APOTEX TABLET FILMOMHULD 10MG"/>
            </code>
         </Medication>
      </resource>
      <search>
         <mode value="include"/>
      </search>
   </entry>
   <entry>
      <fullUrl value="urn:oid:2.16.840.1.113883.2.4.4.10.5274"/>
      <resource>
         <Medication>
            <id value="zib-Product-mp9-2.16.840.1.113883.2.4.4.10-5274"/>
            <meta>
               <profile value="http://nictiz.nl/fhir/StructureDefinition/zib-Product"/>
            </meta>
            <text>
               <status value="extensions"/>
               <div xmlns="http://www.w3.org/1999/xhtml">
                  <table>
                     <tbody>
                        <tr>
                           <th>Code</th>
                           <td>
                              <span title="Flucloxacilline capsule 500mg (5274 - G-Standaard PRK)">Flucloxacilline capsule 500mg</span>
                           </td>
                        </tr>
                     </tbody>
                  </table>
               </div>
            </text>
            <code>
               <coding>
                  <system value="urn:oid:2.16.840.1.113883.2.4.4.10"/>
                  <code value="5274"/>
                  <display value="Flucloxacilline capsule 500mg"/>
                  <userSelected value="true"/>
               </coding>
               <coding>
                  <system value="urn:oid:2.16.840.1.113883.2.4.4.1"/>
                  <code value="15466"/>
                  <display value="Flucloxacilline capsule 500mg"/>
               </coding>
               <text value="Flucloxacilline capsule 500mg"/>
            </code>
         </Medication>
      </resource>
      <search>
         <mode value="include"/>
      </search>
   </entry>
   <entry>
      <fullUrl value="urn:oid:2.16.840.1.113883.2.4.4.7.2230879"/>
      <resource>
         <Medication>
            <id value="zib-Product-mp9-2.16.840.1.113883.2.4.4.7-2230879"/>
            <meta>
               <profile value="http://nictiz.nl/fhir/StructureDefinition/zib-Product"/>
            </meta>
            <text>
               <status value="extensions"/>
               <div xmlns="http://www.w3.org/1999/xhtml">
                  <table>
                     <tbody>
                        <tr>
                           <th>Code</th>
                           <td>
                              <span title="Atorvastatine ranbaxy tablet filmomhuld 40 mg (2230879 - G-Standaard HPK)">Atorvastatine ranbaxy tablet filmomhuld 40 mg</span>
                           </td>
                        </tr>
                     </tbody>
                  </table>
               </div>
            </text>
            <code>
               <coding>
                  <system value="urn:oid:2.16.840.1.113883.2.4.4.7"/>
                  <code value="2230879"/>
                  <display value="Atorvastatine ranbaxy tablet filmomhuld 40 mg"/>
                  <userSelected value="true"/>
               </coding>
               <coding>
                  <system value="urn:oid:2.16.840.1.113883.2.4.4.10"/>
                  <code value="98620"/>
                  <display value="ATORVASTATINE TABLET 40MG (ALS CA-ZOUT-3-WATER)"/>
               </coding>
               <coding>
                  <system value="urn:oid:2.16.840.1.113883.2.4.4.1"/>
                  <code value="137219"/>
                  <display value="ATORVASTATINE TABLET 40MG (ALS CA-ZOUT-3-WATER)"/>
               </coding>
               <text value="Atorvastatine ranbaxy tablet filmomhuld 40 mg"/>
            </code>
         </Medication>
      </resource>
      <search>
         <mode value="include"/>
      </search>
   </entry>
   <entry>
      <fullUrl value="urn:oid:2.16.840.1.113883.2.4.4.7.2105586"/>
      <resource>
         <Medication>
            <id value="zib-Product-mp9-2.16.840.1.113883.2.4.4.7-2105586"/>
            <meta>
               <profile value="http://nictiz.nl/fhir/StructureDefinition/zib-Product"/>
            </meta>
            <text>
               <status value="extensions"/>
               <div xmlns="http://www.w3.org/1999/xhtml">
                  <table>
                     <tbody>
                        <tr>
                           <th>Code</th>
                           <td>
                              <span title="PERINDOPRIL TERT-BUTYLAMINE GLENMARK TABLET 4MG (2105586 - G-Standaard HPK)">PERINDOPRIL TERT-BUTYLAMINE GLENMARK TABLET 4MG</span>
                           </td>
                        </tr>
                     </tbody>
                  </table>
               </div>
            </text>
            <code>
               <coding>
                  <system value="urn:oid:2.16.840.1.113883.2.4.4.7"/>
                  <code value="2105586"/>
                  <display value="PERINDOPRIL TERT-BUTYLAMINE GLENMARK TABLET 4MG"/>
                  <userSelected value="true"/>
               </coding>
               <coding>
                  <system value="urn:oid:2.16.840.1.113883.2.4.4.10"/>
                  <code value="29076"/>
                  <display value="PERINDOPRIL TABLET 4MG (ERBUMINE)"/>
               </coding>
               <coding>
                  <system value="urn:oid:2.16.840.1.113883.2.4.4.1"/>
                  <code value="75434"/>
                  <display value="PERINDOPRIL TABLET 4MG (ERBUMINE)"/>
               </coding>
               <text value="PERINDOPRIL TERT-BUTYLAMINE GLENMARK TABLET 4MG"/>
            </code>
         </Medication>
      </resource>
      <search>
         <mode value="include"/>
      </search>
   </entry>
</Bundle>
