<?xml version="1.0" encoding="UTF-8"?>
<Bundle xmlns="http://hl7.org/fhir"
        xmlns:xsi="http://www.w3.org/2001/XMLSchema-instance"
        xsi:schemaLocation="http://hl7.org/fhir http://hl7.org/fhir/STU3/bundle.xsd">
   <meta>
      <profile value="http://nictiz.nl/fhir/StructureDefinition/Bundle-MedicationOverview"/>
   </meta>
   <type value="searchset"/>
   <entry>
      <resource>
         <List>
            <id value="d12e646"/>
            <meta>
               <profile value="http://nictiz.nl/fhir/StructureDefinition/MedicationOverview"/>
            </meta>
            <extension url="http://nictiz.nl/fhir/StructureDefinition/MedicationOverview-Verification">
               <extension url="VerificationPatient">
                  <valueBoolean value="false"/>
               </extension>
               <extension url="VerificationHealthProfessional">
                  <valueBoolean value="false"/>
               </extension>
            </extension>
            <status value="current"/>
            <mode value="snapshot"/>
            <code>
               <coding>
                  <system value="http://snomed.info/sct"/>
                  <code value="11181000146103"/>
                  <display value="Actual medication overview (record artifact)"/>
               </coding>
               <text value="Medicatieoverzicht"/>
            </code>
            <subject>
               <reference value="Patient/I-XXX-JANGI"/>
               <display value="I. XXX_Jangi"/>
            </subject>
            <date value="2018-08-16T00:00:00+02:00"/>
            <source>
               <extension url="http://nictiz.nl/fhir/StructureDefinition/MedicationOverview-SourceOrganization">
                  <valueReference>
                     <reference value="Organization/urnuuid07e51fba-d0e6-11e9-1380-28f10e481d92"/>
                     <display value="Apotheek de Gulle Gaper"/>
                  </valueReference>
               </extension>
               <display value="Apotheek de Gulle Gaper"/>
            </source>
            <entry>
               <item>
                  <reference value="MedicationRequest/MBH-MO-123-3-MA-1"/>
                  <display value="Medicatieafspraak identifier: value='MBH_MO_123_3_MA_1', system='urn:oid:2.16.840.1.113883.2.4.3.11.999.77.16076005.1'"/>
               </item>
            </entry>
            <entry>
               <item>
                  <reference value="MedicationRequest/MBH-MO-123-4-MA-1"/>
                  <display value="Medicatieafspraak identifier: value='MBH_MO_123_4_MA_1', system='urn:oid:2.16.840.1.113883.2.4.3.11.999.77.16076005.1'"/>
               </item>
            </entry>
            <entry>
               <item>
                  <reference value="MedicationRequest/MBH-MO-123-6-MA-1"/>
                  <display value="Medicatieafspraak identifier: value='MBH_MO_123_6_MA_1', system='urn:oid:2.16.840.1.113883.2.4.3.11.999.77.16076005.1'"/>
               </item>
            </entry>
            <entry>
               <item>
                  <reference value="MedicationRequest/MBH-MO-123-7-MA-1"/>
                  <display value="Medicatieafspraak identifier: value='MBH_MO_123_7_MA_1', system='urn:oid:2.16.840.1.113883.2.4.3.11.999.77.16076005.1'"/>
               </item>
            </entry>
            <entry>
               <item>
                  <reference value="MedicationRequest/MBH-MO-123-9-MA-1"/>
                  <display value="Medicatieafspraak identifier: value='MBH_MO_123_9_MA_1', system='urn:oid:2.16.840.1.113883.2.4.3.11.999.77.16076005.1'"/>
               </item>
            </entry>
            <entry>
               <item>
                  <reference value="MedicationDispense/MBH-MO-123-2-TA-1"/>
                  <display value="Toedieningsafspraak identifier: value='MBH_MO_123_2_TA_1', system='urn:oid:2.16.840.1.113883.2.4.3.11.999.77.422037009.1'"/>
               </item>
            </entry>
            <entry>
               <item>
                  <reference value="MedicationDispense/MBH-MO-123-3-TA-1"/>
                  <display value="Toedieningsafspraak identifier: value='MBH_MO_123_3_TA_1', system='urn:oid:2.16.840.1.113883.2.4.3.11.999.77.422037009.1'"/>
               </item>
            </entry>
            <entry>
               <item>
                  <reference value="MedicationDispense/MBH-MO-123-4-TA-1"/>
                  <display value="Toedieningsafspraak identifier: value='MBH_MO_123_4_TA_1', system='urn:oid:2.16.840.1.113883.2.4.3.11.999.77.422037009.1'"/>
               </item>
            </entry>
            <entry>
               <item>
                  <reference value="MedicationDispense/MBH-MO-123-5-TA-1"/>
                  <display value="Toedieningsafspraak identifier: value='MBH_MO_123_5_TA_1', system='urn:oid:2.16.840.1.113883.2.4.3.11.999.77.422037009.1'"/>
               </item>
            </entry>
            <entry>
               <item>
                  <reference value="MedicationDispense/MBH-MO-123-6-TA-1"/>
                  <display value="Toedieningsafspraak identifier: value='MBH_MO_123_6_TA_1', system='urn:oid:2.16.840.1.113883.2.4.3.11.999.77.422037009.1'"/>
               </item>
            </entry>
            <entry>
               <item>
                  <reference value="MedicationDispense/MBH-MO-123-8-TA-2"/>
                  <display value="Toedieningsafspraak identifier: value='MBH_MO_123_8_TA_2', system='urn:oid:2.16.840.1.113883.2.4.3.11.999.77.422037009.1'"/>
               </item>
            </entry>
            <entry>
               <item>
                  <reference value="MedicationDispense/MBH-MO-123-10-TA-2"/>
                  <display value="Toedieningsafspraak identifier: value='MBH_MO_123_10_TA_2', system='urn:oid:2.16.840.1.113883.2.4.3.11.999.77.422037009.1'"/>
               </item>
            </entry>
            <entry>
               <item>
                  <reference value="MedicationStatement/MBH-MO-123-1-MGB-1"/>
                  <display value="Medicatiegebruik identifier: value='MBH_MO_123_1_MGB_1', system='urn:oid:2.16.840.1.113883.2.4.3.11.999.77.6.1'"/>
               </item>
            </entry>
            <entry>
               <item>
                  <reference value="MedicationStatement/MBH-MO-123-3-MGB-1"/>
                  <display value="Medicatiegebruik identifier: value='MBH_MO_123_3_MGB_1', system='urn:oid:2.16.840.1.113883.2.4.3.11.999.77.6.1'"/>
               </item>
            </entry>
            <entry>
               <item>
                  <reference value="MedicationStatement/MBH-MO-123-5-MGB-1"/>
                  <display value="Medicatiegebruik identifier: value='MBH_MO_123_5_MGB_1', system='urn:oid:2.16.840.1.113883.2.4.3.11.999.77.6.1'"/>
               </item>
            </entry>
            <entry>
               <item>
                  <reference value="MedicationStatement/MBH-MO-123-6-MGB-1"/>
                  <display value="Medicatiegebruik identifier: value='MBH_MO_123_6_MGB_1', system='urn:oid:2.16.840.1.113883.2.4.3.11.999.77.6.1'"/>
               </item>
            </entry>
            <entry>
               <item>
                  <reference value="MedicationStatement/MBH-MO-123-6-MGB-2"/>
                  <display value="Medicatiegebruik identifier: value='MBH_MO_123_6_MGB_2', system='urn:oid:2.16.840.1.113883.2.4.3.11.999.77.6.1'"/>
               </item>
            </entry>
         </List>
      </resource>
   </entry>
   <entry>
      <resource>
         <Patient>
            <id value="I-XXX-JANGI"/>
            <meta>
               <profile value="http://fhir.nl/fhir/StructureDefinition/nl-core-patient"/>
            </meta>
            <identifier>
               <system value="http://fhir.nl/fhir/NamingSystem/bsn"/>
               <value value="999911727"/>
            </identifier>
            <identifier>
               <system value="urn:oid:2.16.840.1.113883.2.4.3.11.999.77.19829.1"/>
               <value value="10009"/>
            </identifier>
            <name>
               <extension url="http://hl7.org/fhir/StructureDefinition/humanname-assembly-order">
                  <valueCode value="NL1"/>
               </extension>
               <family value="XXX_Jangi">
                  <extension url="http://hl7.org/fhir/StructureDefinition/humanname-own-name">
                     <valueString value="XXX_Jangi"/>
                  </extension>
               </family>
               <given value="I.">
                  <extension url="http://hl7.org/fhir/StructureDefinition/iso21090-EN-qualifier">
                     <valueCode value="IN"/>
                  </extension>
               </given>
            </name>
            <telecom>
               <system value="phone"/>
               <value value="+31612345678"/>
               <use value="home">
                  <extension url="http://nictiz.nl/fhir/StructureDefinition/code-specification">
                     <valueCodeableConcept>
                        <coding>
                           <system value="http://hl7.org/fhir/v3/AddressUse"/>
                           <code value="HP"/>
                           <display value="Telefoonnummer thuis"/>
                        </coding>
                     </valueCodeableConcept>
                  </extension>
               </use>
            </telecom>
            <gender value="male"/>
            <birthDate value="1964-08-02"/>
            <address>
               <use value="home">
                  <extension url="http://hl7.org/fhir/StructureDefinition/iso21090-AD-use">
                     <valueCode value="PHYS"/>
                  </extension>
               </use>
               <type value="physical"/>
               <line value="Knolweg  1002">
                  <extension url="http://hl7.org/fhir/StructureDefinition/iso21090-ADXP-streetName">
                     <valueString value="Knolweg "/>
                  </extension>
                  <extension url="http://hl7.org/fhir/StructureDefinition/iso21090-ADXP-houseNumber">
                     <valueString value="1002"/>
                  </extension>
               </line>
               <city value="Stitswerd"/>
               <postalCode value="9999ZZ"/>
            </address>
         </Patient>
      </resource>
   </entry>
   <entry>
      <resource>
         <Practitioner>
            <id value="JOHNDEVRIES1"/>
            <meta>
               <profile value="http://fhir.nl/fhir/StructureDefinition/nl-core-practitioner"/>
            </meta>
            <name>
               <family value="de Vries">
                  <extension url="http://hl7.org/fhir/StructureDefinition/humanname-own-prefix">
                     <valueString value="de "/>
                  </extension>
                  <extension url="http://hl7.org/fhir/StructureDefinition/humanname-own-name">
                     <valueString value="Vries"/>
                  </extension>
               </family>
               <given value="John">
                  <extension url="http://hl7.org/fhir/StructureDefinition/iso21090-EN-qualifier">
                     <valueCode value="BR"/>
                  </extension>
               </given>
            </name>
         </Practitioner>
      </resource>
   </entry>
   <entry>
      <resource>
         <Practitioner>
            <id value="urnuuid07e51ee6-d0e6-11e9-1380-28f10e481d92"/>
            <meta>
               <profile value="http://fhir.nl/fhir/StructureDefinition/nl-core-practitioner"/>
            </meta>
            <identifier>
               <extension url="http://hl7.org/fhir/StructureDefinition/iso21090-nullFlavor">
                  <valueCode value="NI"/>
               </extension>
            </identifier>
            <name>
               <family value="Ternist">
                  <extension url="http://hl7.org/fhir/StructureDefinition/humanname-own-name">
                     <valueString value="Ternist"/>
                  </extension>
               </family>
               <given value="I.">
                  <extension url="http://hl7.org/fhir/StructureDefinition/iso21090-EN-qualifier">
                     <valueCode value="IN"/>
                  </extension>
               </given>
            </name>
         </Practitioner>
      </resource>
   </entry>
   <entry>
      <resource>
         <Organization>
            <id value="01236578APOTHEEKDEGULLEGAPER"/>
            <meta>
               <profile value="http://fhir.nl/fhir/StructureDefinition/nl-core-organization"/>
            </meta>
            <identifier>
               <system value="http://fhir.nl/fhir/NamingSystem/ura"/>
               <value value="01236578"/>
            </identifier>
            <name value="Apotheek De Gulle Gaper"/>
         </Organization>
      </resource>
   </entry>
   <entry>
      <resource>
         <Organization>
            <id value="00001111HUISARTSENPRAKTIJKPULVERPARTNERS"/>
            <meta>
               <profile value="http://fhir.nl/fhir/StructureDefinition/nl-core-organization"/>
            </meta>
            <identifier>
               <system value="http://fhir.nl/fhir/NamingSystem/ura"/>
               <value value="00001111"/>
            </identifier>
            <name value="Huisartsenpraktijk Pulver &amp; Partners"/>
            <address>
               <use value="work"/>
               <line value="Dorpsstraat 1">
                  <extension url="http://hl7.org/fhir/StructureDefinition/iso21090-ADXP-streetName">
                     <valueString value="Dorpsstraat"/>
                  </extension>
                  <extension url="http://hl7.org/fhir/StructureDefinition/iso21090-ADXP-houseNumber">
                     <valueString value="1"/>
                  </extension>
               </line>
               <city value="Ons Dorp"/>
               <postalCode value="1234AA"/>
            </address>
         </Organization>
      </resource>
   </entry>
   <entry>
      <resource>
         <Organization>
            <id value="ANTONIUS"/>
            <meta>
               <profile value="http://fhir.nl/fhir/StructureDefinition/nl-core-organization"/>
            </meta>
            <name value="Antonius"/>
            <address>
               <use value="work"/>
               <line value="Dorpsstraat 1">
                  <extension url="http://hl7.org/fhir/StructureDefinition/iso21090-ADXP-streetName">
                     <valueString value="Dorpsstraat"/>
                  </extension>
                  <extension url="http://hl7.org/fhir/StructureDefinition/iso21090-ADXP-houseNumber">
                     <valueString value="1"/>
                  </extension>
               </line>
               <city value="Ons Dorp"/>
               <postalCode value="1234AA"/>
            </address>
         </Organization>
      </resource>
   </entry>
   <entry>
      <resource>
         <Organization>
            <id value="urnuuid07e51eef-d0e6-11e9-1380-28f10e481d92"/>
            <meta>
               <profile value="http://fhir.nl/fhir/StructureDefinition/nl-core-organization"/>
            </meta>
            <name value="Antonius"/>
         </Organization>
      </resource>
   </entry>
   <entry>
      <resource>
         <Organization>
            <id value="urnuuid07e51fba-d0e6-11e9-1380-28f10e481d92"/>
            <meta>
               <profile value="http://fhir.nl/fhir/StructureDefinition/nl-core-organization"/>
            </meta>
            <name value="Apotheek de Gulle Gaper"/>
            <telecom>
               <system value="phone"/>
               <value value="+31703655424"/>
               <use value="work">
                  <extension url="http://nictiz.nl/fhir/StructureDefinition/code-specification">
                     <valueCodeableConcept>
                        <coding>
                           <system value="http://hl7.org/fhir/v3/AddressUse"/>
                           <code value="WP"/>
                           <display value="Zakelijk telefoonnummer"/>
                        </coding>
                     </valueCodeableConcept>
                  </extension>
               </use>
            </telecom>
            <telecom>
               <system value="email"/>
               <value value="info@apotheekgullegaper.com"/>
               <use value="work">
                  <extension url="http://nictiz.nl/fhir/StructureDefinition/code-specification">
                     <valueCodeableConcept>
                        <coding>
                           <system value="http://hl7.org/fhir/v3/AddressUse"/>
                           <code value="WP"/>
                           <display value="Zakelijk e-mailadres"/>
                        </coding>
                     </valueCodeableConcept>
                  </extension>
               </use>
            </telecom>
            <address>
               <use value="work"/>
               <line value="Zalfstraat 6">
                  <extension url="http://hl7.org/fhir/StructureDefinition/iso21090-ADXP-streetName">
                     <valueString value="Zalfstraat"/>
                  </extension>
                  <extension url="http://hl7.org/fhir/StructureDefinition/iso21090-ADXP-houseNumber">
                     <valueString value="6"/>
                  </extension>
               </line>
               <city value="Ons Dorp"/>
               <postalCode value="1235BB"/>
            </address>
         </Organization>
      </resource>
   </entry>
   <entry>
      <resource>
         <Organization>
            <id value="13336578POLIAPOTHEEKANTONIUS"/>
            <meta>
               <profile value="http://fhir.nl/fhir/StructureDefinition/nl-core-organization"/>
            </meta>
            <identifier>
               <system value="http://fhir.nl/fhir/NamingSystem/ura"/>
               <value value="13336578"/>
            </identifier>
            <name value="Poliapotheek Antonius"/>
         </Organization>
      </resource>
   </entry>
   <entry>
      <resource>
         <PractitionerRole>
            <id value="urnuuid07e51d9e-d0e6-11e9-1380-28f10e481d92"/>
            <meta>
               <profile value="http://fhir.nl/fhir/StructureDefinition/nl-core-practitionerrole"/>
            </meta>
            <practitioner>
               <reference value="Practitioner/JOHNDEVRIES1"/>
               <display value="John de Vries || Huisartsen, niet nader gespecificeerd || Huisartsenpraktijk Pulver &amp; Partners"/>
            </practitioner>
            <organization>
               <reference value="Organization/00001111HUISARTSENPRAKTIJKPULVERPARTNERS"/>
               <display value="Huisartsenpraktijk Pulver &amp; Partners"/>
            </organization>
            <specialty>
               <coding>
                  <system value="urn:oid:2.16.840.1.113883.2.4.6.7"/>
                  <code value="0100"/>
                  <display value="Huisartsen, niet nader gespecificeerd"/>
               </coding>
            </specialty>
         </PractitionerRole>
      </resource>
   </entry>
   <entry>
      <resource>
         <PractitionerRole>
            <id value="urnuuid07e51e04-d0e6-11e9-1380-28f10e481d92"/>
            <meta>
               <profile value="http://fhir.nl/fhir/StructureDefinition/nl-core-practitionerrole"/>
            </meta>
            <practitioner>
               <reference value="Practitioner/JOHNDEVRIES1"/>
               <display value="John de Vries || Huisartsen, niet nader gespecificeerd || Huisartsenpraktijk Pulver &amp; Partners"/>
            </practitioner>
            <organization>
               <reference value="Organization/ANTONIUS"/>
               <display value="Antonius"/>
            </organization>
            <specialty>
               <coding>
                  <system value="urn:oid:2.16.840.1.113883.2.4.6.7"/>
                  <code value="0313"/>
                  <display value="Medisch specialisten, inwendige geneeskunde"/>
               </coding>
            </specialty>
         </PractitionerRole>
      </resource>
   </entry>
   <entry>
      <resource>
         <PractitionerRole>
            <id value="urnuuid07e51ee5-d0e6-11e9-1380-28f10e481d92"/>
            <meta>
               <profile value="http://fhir.nl/fhir/StructureDefinition/nl-core-practitionerrole"/>
            </meta>
            <practitioner>
               <reference value="Practitioner/urnuuid07e51ee6-d0e6-11e9-1380-28f10e481d92"/>
               <display value="I. Ternist || Medisch specialisten, inwendige geneeskunde || Antonius"/>
            </practitioner>
            <organization>
               <reference value="Organization/urnuuid07e51eef-d0e6-11e9-1380-28f10e481d92"/>
               <display value="Antonius"/>
            </organization>
            <specialty>
               <coding>
                  <system value="urn:oid:2.16.840.1.113883.2.4.6.7"/>
                  <code value="0313"/>
                  <display value="Medisch specialisten, inwendige geneeskunde"/>
               </coding>
            </specialty>
         </PractitionerRole>
      </resource>
   </entry>
   <entry>
      <resource>
         <Medication>
            <id value="IBUPROFEN"/>
            <meta>
               <profile value="http://nictiz.nl/fhir/StructureDefinition/zib-Product"/>
            </meta>
            <code>
               <text value="Ibuprofen"/>
            </code>
         </Medication>
      </resource>
   </entry>
   <entry>
      <resource>
         <Medication>
            <id value="urnuuid07e51deb-d0e6-11e9-1380-28f10e481d92"/>
            <meta>
               <profile value="http://nictiz.nl/fhir/StructureDefinition/zib-Product"/>
            </meta>
            <code>
               <text value="Glimepiride"/>
            </code>
         </Medication>
      </resource>
   </entry>
   <entry>
      <resource>
         <Medication>
            <id value="400629-2-16-840-1-113883-2-4-4-7"/>
            <meta>
               <profile value="http://nictiz.nl/fhir/StructureDefinition/zib-Product"/>
            </meta>
            <code>
               <coding>
                  <system value="urn:oid:2.16.840.1.113883.2.4.4.7"/>
                  <code value="400629"/>
                  <display value="Emovate zalf 0,5 mg/g"/>
                  <userSelected value="true"/>
               </coding>
               <coding>
                  <system value="urn:oid:2.16.840.1.113883.2.4.4.10"/>
                  <code value="65617"/>
                  <display value="CLOBETASON ZALF 0,5MG/G"/>
               </coding>
               <coding>
                  <system value="urn:oid:2.16.840.1.113883.2.4.4.10"/>
                  <code value="115606"/>
                  <display value="CLOBETASON ZALF 0,5MG/G"/>
               </coding>
            </code>
         </Medication>
      </resource>
   </entry>
   <entry>
      <resource>
         <Medication>
            <id value="44458-2-16-840-1-113883-2-4-4-10"/>
            <meta>
               <profile value="http://nictiz.nl/fhir/StructureDefinition/zib-Product"/>
            </meta>
            <code>
               <coding>
                  <system value="urn:oid:2.16.840.1.113883.2.4.4.10"/>
                  <code value="44458"/>
                  <display value="GLIMEPIRIDE TABLET 3MG"/>
                  <userSelected value="true"/>
               </coding>
               <coding>
                  <system value="urn:oid:2.16.840.1.113883.2.4.4.1"/>
                  <code value="98345"/>
                  <display value="GLIMEPIRIDE TABLET 3MG"/>
               </coding>
            </code>
         </Medication>
      </resource>
   </entry>
   <entry>
      <resource>
         <Medication>
            <id value="1753029-2-16-840-1-113883-2-4-4-7"/>
            <meta>
               <profile value="http://nictiz.nl/fhir/StructureDefinition/zib-Product"/>
            </meta>
            <code>
               <coding>
                  <system value="urn:oid:2.16.840.1.113883.2.4.4.7"/>
                  <code value="1753029"/>
                  <display value="Glimepiride activis tablet 3mg"/>
                  <userSelected value="true"/>
               </coding>
               <coding>
                  <system value="urn:oid:2.16.840.1.113883.2.4.4.10"/>
                  <code value="44458"/>
                  <display value="GLIMEPIRIDE TABLET 3MG"/>
               </coding>
               <coding>
                  <system value="urn:oid:2.16.840.1.113883.2.4.4.1"/>
                  <code value="98345"/>
                  <display value="GLIMEPIRIDE TABLET 3MG"/>
               </coding>
            </code>
         </Medication>
      </resource>
   </entry>
   <entry>
      <resource>
         <Medication>
            <id value="121312-2-16-840-1-113883-2-4-4-10"/>
            <meta>
               <profile value="http://nictiz.nl/fhir/StructureDefinition/zib-Product"/>
            </meta>
            <code>
               <coding>
                  <system value="urn:oid:2.16.840.1.113883.2.4.4.10"/>
                  <code value="121312"/>
                  <display value="INSULINE GLARGINE INJVLST 100E/ML"/>
                  <userSelected value="true"/>
               </coding>
               <coding>
                  <system value="urn:oid:2.16.840.1.113883.2.4.4.1"/>
                  <code value="128651"/>
                  <display value="INSULINE GLARGINE INJVLST 100E/ML"/>
               </coding>
            </code>
         </Medication>
      </resource>
   </entry>
   <entry>
      <resource>
         <Medication>
            <id value="1859226-2-16-840-1-113883-2-4-4-7"/>
            <meta>
               <profile value="http://nictiz.nl/fhir/StructureDefinition/zib-Product"/>
            </meta>
            <code>
               <coding>
                  <system value="urn:oid:2.16.840.1.113883.2.4.4.7"/>
                  <code value="1859226"/>
                  <display value="LANTUS SOLOSTAR INJ 100E/ML PEN 3ML"/>
                  <userSelected value="true"/>
               </coding>
               <coding>
                  <system value="urn:oid:2.16.840.1.113883.2.4.4.10"/>
                  <code value="121312"/>
                  <display value="INSULINE GLARGINE INJVLST 100E/ML"/>
               </coding>
               <coding>
                  <system value="urn:oid:2.16.840.1.113883.2.4.4.1"/>
                  <code value="128651"/>
                  <display value="INSULINE GLARGINE INJVLST 100E/ML"/>
               </coding>
            </code>
         </Medication>
      </resource>
   </entry>
   <entry>
      <resource>
         <Medication>
            <id value="2105594-2-16-840-1-113883-2-4-4-7"/>
            <meta>
               <profile value="http://nictiz.nl/fhir/StructureDefinition/zib-Product"/>
            </meta>
            <code>
               <coding>
                  <system value="urn:oid:2.16.840.1.113883.2.4.4.7"/>
                  <code value="2105594"/>
                  <display value="PERINDOPRIL TERT-BUTYLAMINE GLENMARK TABLET 8MG"/>
                  <userSelected value="true"/>
               </coding>
               <coding>
                  <system value="urn:oid:2.16.840.1.113883.2.4.4.10"/>
                  <code value="69523"/>
                  <display value="PERINDOPRIL TABLET 8MG (ERBUMINE)"/>
               </coding>
               <coding>
                  <system value="urn:oid:2.16.840.1.113883.2.4.4.1"/>
                  <code value="117722"/>
                  <display value="PERINDOPRIL TABLET 8MG (ERBUMINE)"/>
               </coding>
            </code>
         </Medication>
      </resource>
   </entry>
   <entry>
      <resource>
         <Medication>
            <id value="67814-2-16-840-1-113883-2-4-4-10"/>
            <meta>
               <profile value="http://nictiz.nl/fhir/StructureDefinition/zib-Product"/>
            </meta>
            <code>
               <coding>
                  <system value="urn:oid:2.16.840.1.113883.2.4.4.10"/>
                  <code value="67814"/>
                  <display value="Simvastine tablet fo 20 mg"/>
                  <userSelected value="true"/>
               </coding>
               <coding>
                  <system value="urn:oid:2.16.840.1.113883.2.4.4.1"/>
                  <code value="116580"/>
                  <display value="Simvastine tablet fo 20 mg"/>
               </coding>
            </code>
         </Medication>
      </resource>
   </entry>
   <entry>
      <resource>
         <Medication>
            <id value="1537792-2-16-840-1-113883-2-4-4-7"/>
            <meta>
               <profile value="http://nictiz.nl/fhir/StructureDefinition/zib-Product"/>
            </meta>
            <code>
               <coding>
                  <system value="urn:oid:2.16.840.1.113883.2.4.4.7"/>
                  <code value="1537792"/>
                  <display value="SIMVASTATINE APOTEX TABLET FILMOMHULD 10MG"/>
                  <userSelected value="true"/>
               </coding>
               <coding>
                  <system value="urn:oid:2.16.840.1.113883.2.4.4.10"/>
                  <code value="67814"/>
                  <display value="Simvastine tablet fo 20 mg"/>
               </coding>
               <coding>
                  <system value="urn:oid:2.16.840.1.113883.2.4.4.1"/>
                  <code value="116580"/>
                  <display value="Simvastine tablet fo 20 mg"/>
               </coding>
            </code>
         </Medication>
      </resource>
   </entry>
   <entry>
      <resource>
         <Medication>
            <id value="5274-2-16-840-1-113883-2-4-4-10"/>
            <meta>
               <profile value="http://nictiz.nl/fhir/StructureDefinition/zib-Product"/>
            </meta>
            <code>
               <coding>
                  <system value="urn:oid:2.16.840.1.113883.2.4.4.10"/>
                  <code value="5274"/>
                  <display value="Flucloxacilline capsule 500mg"/>
                  <userSelected value="true"/>
               </coding>
               <coding>
                  <system value="urn:oid:2.16.840.1.113883.2.4.4.1"/>
                  <code value="15466"/>
                  <display value="Flucloxacilline capsule 500mg"/>
               </coding>
            </code>
         </Medication>
      </resource>
   </entry>
   <entry>
      <resource>
         <Medication>
            <id value="2230879-2-16-840-1-113883-2-4-4-7"/>
            <meta>
               <profile value="http://nictiz.nl/fhir/StructureDefinition/zib-Product"/>
            </meta>
            <code>
               <coding>
                  <system value="urn:oid:2.16.840.1.113883.2.4.4.7"/>
                  <code value="2230879"/>
                  <display value="Atorvastatine ranbaxy tablet filmomhuld 40 mg"/>
                  <userSelected value="true"/>
               </coding>
               <coding>
                  <system value="urn:oid:2.16.840.1.113883.2.4.4.10"/>
                  <code value="98620"/>
                  <display value="ATORVASTATINE TABLET 40MG (ALS CA-ZOUT-3-WATER)"/>
               </coding>
               <coding>
                  <system value="urn:oid:2.16.840.1.113883.2.4.4.1"/>
                  <code value="137219"/>
                  <display value="ATORVASTATINE TABLET 40MG (ALS CA-ZOUT-3-WATER)"/>
               </coding>
            </code>
         </Medication>
      </resource>
   </entry>
   <entry>
      <resource>
         <Medication>
            <id value="2105586-2-16-840-1-113883-2-4-4-7"/>
            <meta>
               <profile value="http://nictiz.nl/fhir/StructureDefinition/zib-Product"/>
            </meta>
            <code>
               <coding>
                  <system value="urn:oid:2.16.840.1.113883.2.4.4.7"/>
                  <code value="2105586"/>
                  <display value="PERINDOPRIL TERT-BUTYLAMINE GLENMARK TABLET 4MG"/>
                  <userSelected value="true"/>
               </coding>
               <coding>
                  <system value="urn:oid:2.16.840.1.113883.2.4.4.10"/>
                  <code value="29076"/>
                  <display value="PERINDOPRIL TABLET 4MG (ERBUMINE)"/>
               </coding>
               <coding>
                  <system value="urn:oid:2.16.840.1.113883.2.4.4.1"/>
                  <code value="75434"/>
                  <display value="PERINDOPRIL TABLET 4MG (ERBUMINE)"/>
               </coding>
            </code>
         </Medication>
      </resource>
   </entry>
   <entry>
      <resource>
         <MedicationRequest>
            <id value="MBH-MO-123-3-MA-1"/>
            <meta>
               <profile value="http://nictiz.nl/fhir/StructureDefinition/zib-MedicationAgreement"/>
            </meta>
            <extension url="http://nictiz.nl/fhir/StructureDefinition/zib-Medication-PeriodOfUse">
               <valuePeriod>
                  <start value="2018-08-01T00:00:00+02:00"/>
               </valuePeriod>
            </extension>
            <extension url="http://nictiz.nl/fhir/StructureDefinition/zib-MedicationUse-Duration">
               <valueDuration>
                  <value value="4"/>
                  <unit value="week"/>
                  <system value="http://unitsofmeasure.org"/>
                  <code value="wk"/>
               </valueDuration>
            </extension>
            <extension url="http://nictiz.nl/fhir/StructureDefinition/zib-Medication-MedicationTreatment">
               <valueIdentifier>
                  <system value="urn:oid:2.16.840.1.113883.2.4.3.11.999.77.1.1"/>
                  <value value="MBH_MO_123_3"/>
               </valueIdentifier>
            </extension>
            <extension url="http://nictiz.nl/fhir/StructureDefinition/zib-Medication-CopyIndicator">
               <valueBoolean value="true"/>
            </extension>
            <identifier>
               <system value="urn:oid:2.16.840.1.113883.2.4.3.11.999.77.16076005.1"/>
               <value value="MBH_MO_123_3_MA_1"/>
            </identifier>
            <intent value="order"/>
            <category>
               <coding>
                  <system value="http://snomed.info/sct"/>
                  <code value="16076005"/>
                  <display value="Prescription (procedure)"/>
               </coding>
               <text value="Medicatieafspraak"/>
            </category>
            <medicationReference>
               <reference value="Medication/44458-2-16-840-1-113883-2-4-4-10"/>
               <display value="GLIMEPIRIDE TABLET 3MG"/>
            </medicationReference>
            <subject>
               <reference value="Patient/I-XXX-JANGI"/>
               <display value="I. XXX_Jangi"/>
            </subject>
            <authoredOn value="2018-08-01T09:13:00+02:00"/>
            <requester>
               <extension url="http://nictiz.nl/fhir/StructureDefinition/zib-MedicationAgreement-RequesterRole">
                  <valueReference>
                     <reference value="PractitionerRole/urnuuid07e51d9e-d0e6-11e9-1380-28f10e481d92"/>
                     <display value="John de Vries"/>
                  </valueReference>
               </extension>
               <agent>
                  <reference value="Practitioner/JOHNDEVRIES1"/>
                  <display value="John de Vries || Huisartsen, niet nader gespecificeerd || Huisartsenpraktijk Pulver &amp; Partners"/>
               </agent>
            </requester>
            <note>
               <text value="Exact 4 weken"/>
            </note>
            <dosageInstruction>
               <sequence value="1"/>
               <text value="Vanaf T-15, gedurende 4 weken, 1 maal per dag 2 tabletten, oraal"/>
               <timing>
                  <repeat>
                     <frequency value="1"/>
                     <period value="1"/>
                     <periodUnit value="d"/>
                  </repeat>
               </timing>
               <route>
                  <coding>
                     <system value="urn:oid:2.16.840.1.113883.2.4.4.9"/>
                     <code value="9"/>
                     <display value="oraal"/>
                  </coding>
               </route>
               <doseQuantity>
                  <value value="2"/>
                  <unit value="stuk"/>
                  <system value="urn:oid:2.16.840.1.113883.2.4.4.1.900.2"/>
                  <code value="245"/>
               </doseQuantity>
            </dosageInstruction>
         </MedicationRequest>
      </resource>
   </entry>
   <entry>
      <resource>
         <MedicationRequest>
            <id value="MBH-MO-123-4-MA-1"/>
            <meta>
               <profile value="http://nictiz.nl/fhir/StructureDefinition/zib-MedicationAgreement"/>
            </meta>
            <extension url="http://nictiz.nl/fhir/StructureDefinition/zib-Medication-PeriodOfUse">
               <valuePeriod>
                  <start value="2018-06-17T00:00:00+02:00"/>
               </valuePeriod>
            </extension>
            <extension url="http://nictiz.nl/fhir/StructureDefinition/zib-Medication-MedicationTreatment">
               <valueIdentifier>
                  <system value="urn:oid:2.16.840.1.113883.2.4.3.11.999.77.1.1"/>
                  <value value="MBH_MO_123_4"/>
               </valueIdentifier>
            </extension>
            <extension url="http://nictiz.nl/fhir/StructureDefinition/zib-Medication-CopyIndicator">
               <valueBoolean value="true"/>
            </extension>
            <identifier>
               <system value="urn:oid:2.16.840.1.113883.2.4.3.11.999.77.16076005.1"/>
               <value value="MBH_MO_123_4_MA_1"/>
            </identifier>
            <intent value="order"/>
            <category>
               <coding>
                  <system value="http://snomed.info/sct"/>
                  <code value="16076005"/>
                  <display value="Prescription (procedure)"/>
               </coding>
               <text value="Medicatieafspraak"/>
            </category>
            <medicationReference>
               <reference value="Medication/121312-2-16-840-1-113883-2-4-4-10"/>
               <display value="INSULINE GLARGINE INJVLST 100E/ML"/>
            </medicationReference>
            <subject>
               <reference value="Patient/I-XXX-JANGI"/>
               <display value="I. XXX_Jangi"/>
            </subject>
            <authoredOn value="2018-06-17T09:13:00+02:00"/>
            <requester>
               <extension url="http://nictiz.nl/fhir/StructureDefinition/zib-MedicationAgreement-RequesterRole">
                  <valueReference>
                     <reference value="PractitionerRole/urnuuid07e51e04-d0e6-11e9-1380-28f10e481d92"/>
                     <display value="I. Ternist"/>
                  </valueReference>
               </extension>
               <agent>
                  <reference value="Practitioner/JOHNDEVRIES1"/>
                  <display value="John de Vries || Huisartsen, niet nader gespecificeerd || Huisartsenpraktijk Pulver &amp; Partners"/>
               </agent>
            </requester>
            <dosageInstruction>
               <sequence value="1"/>
               <text value="Vanaf T-60, 1 maal per dag 10IE, SUBCUTAAN"/>
               <timing>
                  <repeat>
                     <frequency value="1"/>
                     <period value="1"/>
                     <periodUnit value="d"/>
                  </repeat>
               </timing>
               <route>
                  <coding>
                     <system value="urn:oid:2.16.840.1.113883.2.4.4.9"/>
                     <code value="21"/>
                     <display value="subcutaan"/>
                  </coding>
               </route>
               <doseQuantity>
                  <value value="10"/>
                  <unit value="internationale eenheid"/>
                  <system value="urn:oid:2.16.840.1.113883.2.4.4.1.900.2"/>
                  <code value="217"/>
               </doseQuantity>
            </dosageInstruction>
         </MedicationRequest>
      </resource>
   </entry>
   <entry>
      <resource>
         <MedicationRequest>
            <id value="MBH-MO-123-6-MA-1"/>
            <meta>
               <profile value="http://nictiz.nl/fhir/StructureDefinition/zib-MedicationAgreement"/>
            </meta>
            <extension url="http://nictiz.nl/fhir/StructureDefinition/zib-Medication-PeriodOfUse">
               <valuePeriod>
                  <start value="2016-06-18T00:00:00+02:00"/>
               </valuePeriod>
            </extension>
            <extension url="http://nictiz.nl/fhir/StructureDefinition/zib-Medication-MedicationTreatment">
               <valueIdentifier>
                  <system value="urn:oid:2.16.840.1.113883.2.4.3.11.999.77.1.1"/>
                  <value value="MBH_MO_123_6"/>
               </valueIdentifier>
            </extension>
            <extension url="http://nictiz.nl/fhir/StructureDefinition/zib-Medication-CopyIndicator">
               <valueBoolean value="true"/>
            </extension>
            <identifier>
               <system value="urn:oid:2.16.840.1.113883.2.4.3.11.999.77.16076005.1"/>
               <value value="MBH_MO_123_6_MA_1"/>
            </identifier>
            <intent value="order"/>
            <category>
               <coding>
                  <system value="http://snomed.info/sct"/>
                  <code value="16076005"/>
                  <display value="Prescription (procedure)"/>
               </coding>
               <text value="Medicatieafspraak"/>
            </category>
            <medicationReference>
               <reference value="Medication/67814-2-16-840-1-113883-2-4-4-10"/>
               <display value="Simvastine tablet fo 20 mg"/>
            </medicationReference>
            <subject>
               <reference value="Patient/I-XXX-JANGI"/>
               <display value="I. XXX_Jangi"/>
            </subject>
            <authoredOn value="2016-06-18T09:13:00+02:00"/>
            <requester>
               <extension url="http://nictiz.nl/fhir/StructureDefinition/zib-MedicationAgreement-RequesterRole">
                  <valueReference>
                     <reference value="PractitionerRole/urnuuid07e51d9e-d0e6-11e9-1380-28f10e481d92"/>
                     <display value="John de Vries"/>
                  </valueReference>
               </extension>
               <agent>
                  <reference value="Practitioner/JOHNDEVRIES1"/>
                  <display value="John de Vries || Huisartsen, niet nader gespecificeerd || Huisartsenpraktijk Pulver &amp; Partners"/>
               </agent>
            </requester>
            <dosageInstruction>
               <sequence value="1"/>
               <text value="Vanaf T-728, 1 maal per dag 1 tablet 's avonds, oraal"/>
               <timing>
                  <repeat>
                     <frequency value="1"/>
                     <period value="1"/>
                     <periodUnit value="d"/>
                     <when value="EVE"/>
                  </repeat>
               </timing>
               <route>
                  <coding>
                     <system value="urn:oid:2.16.840.1.113883.2.4.4.9"/>
                     <code value="9"/>
                     <display value="oraal"/>
                  </coding>
               </route>
               <doseQuantity>
                  <value value="1"/>
                  <unit value="stuk"/>
                  <system value="urn:oid:2.16.840.1.113883.2.4.4.1.900.2"/>
                  <code value="245"/>
               </doseQuantity>
            </dosageInstruction>
         </MedicationRequest>
      </resource>
   </entry>
   <entry>
      <resource>
         <MedicationRequest>
            <id value="MBH-MO-123-7-MA-1"/>
            <meta>
               <profile value="http://nictiz.nl/fhir/StructureDefinition/zib-MedicationAgreement"/>
            </meta>
            <extension url="http://nictiz.nl/fhir/StructureDefinition/zib-Medication-PeriodOfUse">
               <valuePeriod>
                  <start value="2018-08-19T00:00:00+02:00"/>
                  <end value="2018-09-02T23:59:59+02:00"/>
               </valuePeriod>
            </extension>
            <extension url="http://nictiz.nl/fhir/StructureDefinition/zib-Medication-MedicationTreatment">
               <valueIdentifier>
                  <system value="urn:oid:2.16.840.1.113883.2.4.3.11.999.77.1.1"/>
                  <value value="MBH_MO_123_7"/>
               </valueIdentifier>
            </extension>
            <extension url="http://nictiz.nl/fhir/StructureDefinition/zib-Medication-CopyIndicator">
               <valueBoolean value="true"/>
            </extension>
            <identifier>
               <system value="urn:oid:2.16.840.1.113883.2.4.3.11.999.77.16076005.1"/>
               <value value="MBH_MO_123_7_MA_1"/>
            </identifier>
            <intent value="order"/>
            <category>
               <coding>
                  <system value="http://snomed.info/sct"/>
                  <code value="16076005"/>
                  <display value="Prescription (procedure)"/>
               </coding>
               <text value="Medicatieafspraak"/>
            </category>
            <medicationReference>
               <reference value="Medication/5274-2-16-840-1-113883-2-4-4-10"/>
               <display value="Flucloxacilline capsule 500mg"/>
            </medicationReference>
            <subject>
               <reference value="Patient/I-XXX-JANGI"/>
               <display value="I. XXX_Jangi"/>
            </subject>
            <authoredOn value="2018-08-19T09:27:31+02:00"/>
            <requester>
               <extension url="http://nictiz.nl/fhir/StructureDefinition/zib-MedicationAgreement-RequesterRole">
                  <valueReference>
                     <reference value="PractitionerRole/urnuuid07e51d9e-d0e6-11e9-1380-28f10e481d92"/>
                     <display value="John de Vries"/>
                  </valueReference>
               </extension>
               <agent>
                  <reference value="Practitioner/JOHNDEVRIES1"/>
                  <display value="John de Vries || Huisartsen, niet nader gespecificeerd || Huisartsenpraktijk Pulver &amp; Partners"/>
               </agent>
            </requester>
            <dosageInstruction>
               <sequence value="1"/>
               <text value="Vanaf T+3 t/m T+17, 3 maal per dag 1 capsule om de 8 uur, oraal"/>
               <timing>
                  <repeat>
                     <frequency value="1"/>
                     <period value="1"/>
                     <periodUnit value="d"/>
                  </repeat>
               </timing>
               <route>
                  <coding>
                     <system value="urn:oid:2.16.840.1.113883.2.4.4.9"/>
                     <code value="9"/>
                     <display value="oraal"/>
                  </coding>
               </route>
               <doseQuantity>
                  <value value="1"/>
                  <unit value="stuk"/>
                  <system value="urn:oid:2.16.840.1.113883.2.4.4.1.900.2"/>
                  <code value="245"/>
               </doseQuantity>
            </dosageInstruction>
         </MedicationRequest>
      </resource>
   </entry>
   <entry>
      <resource>
         <MedicationRequest>
            <id value="MBH-MO-123-9-MA-1"/>
            <meta>
               <profile value="http://nictiz.nl/fhir/StructureDefinition/zib-MedicationAgreement"/>
            </meta>
            <extension url="http://nictiz.nl/fhir/StructureDefinition/zib-Medication-PeriodOfUse">
               <valuePeriod>
                  <start value="2018-07-02T00:00:00+02:00"/>
                  <end value="2018-07-18T23:59:00+02:00"/>
               </valuePeriod>
            </extension>
            <extension url="http://nictiz.nl/fhir/StructureDefinition/zib-Medication-MedicationTreatment">
               <valueIdentifier>
                  <system value="urn:oid:2.16.840.1.113883.2.4.3.11.999.77.1.1"/>
                  <value value="MBH_MO_123_9"/>
               </valueIdentifier>
            </extension>
            <extension url="http://nictiz.nl/fhir/StructureDefinition/zib-Medication-CopyIndicator">
               <valueBoolean value="true"/>
            </extension>
            <identifier>
               <system value="urn:oid:2.16.840.1.113883.2.4.3.11.999.77.16076005.1"/>
               <value value="MBH_MO_123_9_MA_1"/>
            </identifier>
            <intent value="order"/>
            <category>
               <coding>
                  <system value="http://snomed.info/sct"/>
                  <code value="16076005"/>
                  <display value="Prescription (procedure)"/>
               </coding>
               <text value="Medicatieafspraak"/>
            </category>
            <medicationReference>
               <reference value="Medication/5274-2-16-840-1-113883-2-4-4-10"/>
               <display value="FLUCLOXACILLINE CAPSULE 500MG"/>
            </medicationReference>
            <subject>
               <reference value="Patient/I-XXX-JANGI"/>
               <display value="I. XXX_Jangi"/>
            </subject>
            <authoredOn value="2018-07-02T11:50:00+02:00"/>
            <requester>
               <extension url="http://nictiz.nl/fhir/StructureDefinition/zib-MedicationAgreement-RequesterRole">
                  <valueReference>
                     <reference value="PractitionerRole/urnuuid07e51d9e-d0e6-11e9-1380-28f10e481d92"/>
                     <display value="John de Vries"/>
                  </valueReference>
               </extension>
               <agent>
                  <reference value="Practitioner/JOHNDEVRIES1"/>
                  <display value="John de Vries || Huisartsen, niet nader gespecificeerd || Huisartsenpraktijk Pulver &amp; Partners"/>
               </agent>
            </requester>
            <dosageInstruction>
               <sequence value="1"/>
               <text value="Vanaf T-45 t/m T-31, 1 keer per exact 8 uur 1 capsule, oraal"/>
               <timing>
                  <repeat>
                     <period value="8"/>
                     <periodUnit value="h"/>
                  </repeat>
               </timing>
               <route>
                  <coding>
                     <system value="urn:oid:2.16.840.1.113883.2.4.4.9"/>
                     <code value="9"/>
                     <display value="oraal"/>
                  </coding>
               </route>
               <doseQuantity>
                  <value value="1"/>
                  <unit value="stuk"/>
                  <system value="urn:oid:2.16.840.1.113883.2.4.4.1.900.2"/>
                  <code value="245"/>
               </doseQuantity>
            </dosageInstruction>
         </MedicationRequest>
      </resource>
   </entry>
   <entry>
      <resource>
         <MedicationDispense>
            <id value="MBH-MO-123-2-TA-1"/>
            <meta>
               <profile value="http://nictiz.nl/fhir/StructureDefinition/zib-AdministrationAgreement"/>
            </meta>
            <extension url="http://nictiz.nl/fhir/StructureDefinition/zib-AdministrationAgreement-AuthoredOn">
               <valueDateTime value="2018-08-10T11:55:00+02:00"/>
            </extension>
            <extension url="http://nictiz.nl/fhir/StructureDefinition/zib-Medication-PeriodOfUse">
               <valuePeriod>
                  <start value="2018-08-10T00:00:00+02:00"/>
               </valuePeriod>
            </extension>
            <extension url="http://nictiz.nl/fhir/StructureDefinition/zib-Medication-MedicationTreatment">
               <valueIdentifier>
                  <system value="urn:oid:2.16.840.1.113883.2.4.3.11.999.77.1.1"/>
                  <value value="MBH_MO_123_2"/>
               </valueIdentifier>
            </extension>
            <identifier>
               <system value="urn:oid:2.16.840.1.113883.2.4.3.11.999.77.422037009.1"/>
               <value value="MBH_MO_123_2_TA_1"/>
            </identifier>
            <category>
               <coding>
                  <system value="http://snomed.info/sct"/>
                  <code value="422037009"/>
                  <display value="Provider medication administration instructions (procedure)"/>
               </coding>
               <text value="Toedieningsafspraak"/>
            </category>
            <medicationReference>
               <reference value="Medication/400629-2-16-840-1-113883-2-4-4-7"/>
               <display value="Emovate zalf 0,5 mg/g"/>
            </medicationReference>
            <subject>
               <reference value="Patient/I-XXX-JANGI"/>
               <display value="I. XXX_Jangi"/>
            </subject>
            <performer>
               <actor>
                  <reference value="Organization/01236578APOTHEEKDEGULLEGAPER"/>
                  <display value="Apotheek De Gulle Gaper"/>
               </actor>
            </performer>
            <note>
               <text value="Eczeem oogleden"/>
            </note>
            <dosageInstruction>
               <sequence value="1"/>
               <text value="Vanaf T-6, gedurende 3 weken, 2 maal per dag zalf gedurende 7 dagen, 1 maal per dag zalf gedurende 7 dagen, 3 maal per week zalf gedurende 7 dagen, cutaan"/>
               <timing>
                  <repeat>
                     <boundsDuration>
                        <value value="7"/>
                        <unit value="dag"/>
                        <system value="http://unitsofmeasure.org"/>
                        <code value="d"/>
                     </boundsDuration>
                     <frequency value="2"/>
                     <period value="1"/>
                     <periodUnit value="d"/>
                  </repeat>
               </timing>
               <route>
                  <coding>
                     <system value="urn:oid:2.16.840.1.113883.2.4.4.9"/>
                     <code value="53"/>
                     <display value="cutaan"/>
                  </coding>
               </route>
            </dosageInstruction>
            <dosageInstruction>
               <sequence value="2"/>
               <text value="Vanaf T-6, gedurende 3 weken, 2 maal per dag zalf gedurende 7 dagen, 1 maal per dag zalf gedurende 7 dagen, 3 maal per week zalf gedurende 7 dagen, cutaan"/>
               <timing>
                  <repeat>
                     <boundsDuration>
                        <value value="7"/>
                        <unit value="dag"/>
                        <system value="http://unitsofmeasure.org"/>
                        <code value="d"/>
                     </boundsDuration>
                     <frequency value="1"/>
                     <period value="1"/>
                     <periodUnit value="d"/>
                  </repeat>
               </timing>
               <route>
                  <coding>
                     <system value="urn:oid:2.16.840.1.113883.2.4.4.9"/>
                     <code value="53"/>
                     <display value="cutaan"/>
                  </coding>
               </route>
            </dosageInstruction>
            <dosageInstruction>
               <sequence value="3"/>
               <text value="Vanaf T-6, gedurende 3 weken, 2 maal per dag zalf gedurende 7 dagen, 1 maal per dag zalf gedurende 7 dagen, 3 maal per week zalf gedurende 7 dagen, cutaan"/>
               <timing>
                  <repeat>
                     <boundsDuration>
                        <value value="7"/>
                        <unit value="dag"/>
                        <system value="http://unitsofmeasure.org"/>
                        <code value="d"/>
                     </boundsDuration>
                     <frequency value="3"/>
                     <period value="1"/>
                     <periodUnit value="wk"/>
                  </repeat>
               </timing>
               <route>
                  <coding>
                     <system value="urn:oid:2.16.840.1.113883.2.4.4.9"/>
                     <code value="53"/>
                     <display value="cutaan"/>
                  </coding>
               </route>
            </dosageInstruction>
         </MedicationDispense>
      </resource>
   </entry>
   <entry>
      <resource>
         <MedicationDispense>
            <id value="MBH-MO-123-3-TA-1"/>
            <meta>
               <profile value="http://nictiz.nl/fhir/StructureDefinition/zib-AdministrationAgreement"/>
            </meta>
            <extension url="http://nictiz.nl/fhir/StructureDefinition/zib-AdministrationAgreement-AuthoredOn">
               <valueDateTime value="2018-08-02T15:55:00+02:00"/>
            </extension>
            <extension url="http://nictiz.nl/fhir/StructureDefinition/zib-Medication-PeriodOfUse">
               <valuePeriod>
                  <start value="2018-08-02T00:00:00+02:00"/>
                  <end value="2018-08-29T23:59:59+02:00"/>
               </valuePeriod>
            </extension>
            <extension url="http://nictiz.nl/fhir/StructureDefinition/zib-Medication-MedicationTreatment">
               <valueIdentifier>
                  <system value="urn:oid:2.16.840.1.113883.2.4.3.11.999.77.1.1"/>
                  <value value="MBH_MO_123_3"/>
               </valueIdentifier>
            </extension>
            <identifier>
               <system value="urn:oid:2.16.840.1.113883.2.4.3.11.999.77.422037009.1"/>
               <value value="MBH_MO_123_3_TA_1"/>
            </identifier>
            <category>
               <coding>
                  <system value="http://snomed.info/sct"/>
                  <code value="422037009"/>
                  <display value="Provider medication administration instructions (procedure)"/>
               </coding>
               <text value="Toedieningsafspraak"/>
            </category>
            <medicationReference>
               <reference value="Medication/1753029-2-16-840-1-113883-2-4-4-7"/>
               <display value="Glimepiride activis tablet 3mg"/>
            </medicationReference>
            <subject>
               <reference value="Patient/I-XXX-JANGI"/>
               <display value="I. XXX_Jangi"/>
            </subject>
            <performer>
               <actor>
                  <reference value="Organization/01236578APOTHEEKDEGULLEGAPER"/>
                  <display value="Apotheek De Gulle Gaper"/>
               </actor>
            </performer>
            <authorizingPrescription>
               <identifier>
                  <system value="urn:oid:2.16.840.1.113883.2.4.3.11.999.77.16076005.1"/>
                  <value value="MBH_MO_123_3_MA_1"/>
               </identifier>
               <display value="relatie naar medicatieafspraak: MBH_MO_123_3_MA_1 || 2.16.840.1.113883.2.4.3.11.999.77.16076005.1"/>
            </authorizingPrescription>
            <dosageInstruction>
               <sequence value="1"/>
               <text value="Vanaf T-14, t/m T+13, 1 maal per dag 2 tabletten, oraal"/>
               <timing>
                  <repeat>
                     <frequency value="1"/>
                     <period value="1"/>
                     <periodUnit value="d"/>
                  </repeat>
               </timing>
               <route>
                  <coding>
                     <system value="urn:oid:2.16.840.1.113883.2.4.4.9"/>
                     <code value="9"/>
                     <display value="oraal"/>
                  </coding>
               </route>
               <doseQuantity>
                  <value value="2"/>
                  <unit value="stuk"/>
                  <system value="urn:oid:2.16.840.1.113883.2.4.4.1.900.2"/>
                  <code value="245"/>
               </doseQuantity>
            </dosageInstruction>
         </MedicationDispense>
      </resource>
   </entry>
   <entry>
      <resource>
         <MedicationDispense>
            <id value="MBH-MO-123-4-TA-1"/>
            <meta>
               <profile value="http://nictiz.nl/fhir/StructureDefinition/zib-AdministrationAgreement"/>
            </meta>
            <extension url="http://nictiz.nl/fhir/StructureDefinition/zib-AdministrationAgreement-AuthoredOn">
               <valueDateTime value="2018-06-17T15:55:00+02:00"/>
            </extension>
            <extension url="http://nictiz.nl/fhir/StructureDefinition/zib-Medication-PeriodOfUse">
               <valuePeriod>
                  <start value="2018-06-17T00:00:00+02:00"/>
               </valuePeriod>
            </extension>
            <extension url="http://nictiz.nl/fhir/StructureDefinition/zib-Medication-MedicationTreatment">
               <valueIdentifier>
                  <system value="urn:oid:2.16.840.1.113883.2.4.3.11.999.77.1.1"/>
                  <value value="MBH_MO_123_4"/>
               </valueIdentifier>
            </extension>
            <extension url="http://nictiz.nl/fhir/StructureDefinition/zib-Medication-CopyIndicator">
               <valueBoolean value="true"/>
            </extension>
            <identifier>
               <system value="urn:oid:2.16.840.1.113883.2.4.3.11.999.77.422037009.1"/>
               <value value="MBH_MO_123_4_TA_1"/>
            </identifier>
            <category>
               <coding>
                  <system value="http://snomed.info/sct"/>
                  <code value="422037009"/>
                  <display value="Provider medication administration instructions (procedure)"/>
               </coding>
               <text value="Toedieningsafspraak"/>
            </category>
            <medicationReference>
               <reference value="Medication/1859226-2-16-840-1-113883-2-4-4-7"/>
               <display value="LANTUS SOLOSTAR INJ 100E/ML PEN 3ML"/>
            </medicationReference>
            <subject>
               <reference value="Patient/I-XXX-JANGI"/>
               <display value="I. XXX_Jangi"/>
            </subject>
            <performer>
               <actor>
                  <reference value="Organization/13336578POLIAPOTHEEKANTONIUS"/>
                  <display value="Poliapotheek Antonius"/>
               </actor>
            </performer>
            <authorizingPrescription>
               <identifier>
                  <system value="urn:oid:2.16.840.1.113883.2.4.3.11.999.77.16076005.1"/>
                  <value value="MBH_MO_123_4_MA_1"/>
               </identifier>
               <display value="relatie naar medicatieafspraak: MBH_MO_123_4_MA_1 || 2.16.840.1.113883.2.4.3.11.999.77.16076005.1"/>
            </authorizingPrescription>
            <dosageInstruction>
               <sequence value="1"/>
               <text value="Vanaf T-60, Elke dag om 9 uur 10IE, subcutaan"/>
               <timing>
                  <repeat>
                     <timeOfDay value="09:00:00"/>
                  </repeat>
               </timing>
               <route>
                  <coding>
                     <system value="urn:oid:2.16.840.1.113883.2.4.4.9"/>
                     <code value="21"/>
                     <display value="subcutaan"/>
                  </coding>
               </route>
               <doseQuantity>
                  <value value="10"/>
                  <unit value="internationale eenheid"/>
                  <system value="urn:oid:2.16.840.1.113883.2.4.4.1.900.2"/>
                  <code value="217"/>
               </doseQuantity>
            </dosageInstruction>
         </MedicationDispense>
      </resource>
   </entry>
   <entry>
      <resource>
         <MedicationDispense>
            <id value="MBH-MO-123-5-TA-1"/>
            <meta>
               <profile value="http://nictiz.nl/fhir/StructureDefinition/zib-AdministrationAgreement"/>
            </meta>
            <extension url="http://nictiz.nl/fhir/StructureDefinition/zib-AdministrationAgreement-AuthoredOn">
               <valueDateTime value="2018-07-11T15:55:00+02:00"/>
            </extension>
            <extension url="http://nictiz.nl/fhir/StructureDefinition/zib-Medication-PeriodOfUse">
               <valuePeriod>
                  <start value="2018-07-11T00:00:00+02:00"/>
               </valuePeriod>
            </extension>
            <extension url="http://nictiz.nl/fhir/StructureDefinition/zib-MedicationUse-Duration">
               <valueDuration>
                  <value value="90"/>
                  <unit value="dag"/>
                  <system value="http://unitsofmeasure.org"/>
                  <code value="d"/>
               </valueDuration>
            </extension>
            <extension url="http://nictiz.nl/fhir/StructureDefinition/zib-Medication-MedicationTreatment">
               <valueIdentifier>
                  <system value="urn:oid:2.16.840.1.113883.2.4.3.11.999.77.1.1"/>
                  <value value="MBH_MO_123_5"/>
               </valueIdentifier>
            </extension>
            <extension url="http://nictiz.nl/fhir/StructureDefinition/zib-Medication-CopyIndicator">
               <valueBoolean value="true"/>
            </extension>
            <identifier>
               <system value="urn:oid:2.16.840.1.113883.2.4.3.11.999.77.422037009.1"/>
               <value value="MBH_MO_123_5_TA_1"/>
            </identifier>
            <category>
               <coding>
                  <system value="http://snomed.info/sct"/>
                  <code value="422037009"/>
                  <display value="Provider medication administration instructions (procedure)"/>
               </coding>
               <text value="Toedieningsafspraak"/>
            </category>
            <medicationReference>
               <reference value="Medication/2105594-2-16-840-1-113883-2-4-4-7"/>
               <display value="PERINDOPRIL TERT-BUTYLAMINE GLENMARK TABLET 8MG"/>
            </medicationReference>
            <subject>
               <reference value="Patient/I-XXX-JANGI"/>
               <display value="I. XXX_Jangi"/>
            </subject>
            <performer>
               <actor>
                  <reference value="Organization/13336578POLIAPOTHEEKANTONIUS"/>
                  <display value="Poliapotheek Antonius"/>
               </actor>
            </performer>
            <dosageInstruction>
               <sequence value="1"/>
               <text value="Vanaf T-36, gedurende 90 dagen, 1 maal per dag 1 tablet, oraal"/>
               <timing>
                  <repeat>
                     <frequency value="1"/>
                     <period value="1"/>
                     <periodUnit value="d"/>
                  </repeat>
               </timing>
               <route>
                  <coding>
                     <system value="urn:oid:2.16.840.1.113883.2.4.4.9"/>
                     <code value="9"/>
                     <display value="oraal"/>
                  </coding>
               </route>
               <doseQuantity>
                  <value value="1"/>
                  <unit value="stuk"/>
                  <system value="urn:oid:2.16.840.1.113883.2.4.4.1.900.2"/>
                  <code value="245"/>
               </doseQuantity>
            </dosageInstruction>
         </MedicationDispense>
      </resource>
   </entry>
   <entry>
      <resource>
         <MedicationDispense>
            <id value="MBH-MO-123-6-TA-1"/>
            <meta>
               <profile value="http://nictiz.nl/fhir/StructureDefinition/zib-AdministrationAgreement"/>
            </meta>
            <extension url="http://nictiz.nl/fhir/StructureDefinition/zib-AdministrationAgreement-AuthoredOn">
               <valueDateTime value="2017-09-27T15:55:00+02:00"/>
            </extension>
            <extension url="http://nictiz.nl/fhir/StructureDefinition/zib-Medication-PeriodOfUse">
               <valuePeriod>
                  <start value="2017-09-27T00:00:00+02:00"/>
               </valuePeriod>
            </extension>
            <extension url="http://nictiz.nl/fhir/StructureDefinition/zib-Medication-MedicationTreatment">
               <valueIdentifier>
                  <system value="urn:oid:2.16.840.1.113883.2.4.3.11.999.77.1.1"/>
                  <value value="MBH_MO_123_6"/>
               </valueIdentifier>
            </extension>
            <extension url="http://nictiz.nl/fhir/StructureDefinition/zib-Medication-CopyIndicator">
               <valueBoolean value="true"/>
            </extension>
            <identifier>
               <system value="urn:oid:2.16.840.1.113883.2.4.3.11.999.77.422037009.1"/>
               <value value="MBH_MO_123_6_TA_1"/>
            </identifier>
            <category>
               <coding>
                  <system value="http://snomed.info/sct"/>
                  <code value="422037009"/>
                  <display value="Provider medication administration instructions (procedure)"/>
               </coding>
               <text value="Toedieningsafspraak"/>
            </category>
            <medicationReference>
               <reference value="Medication/1537792-2-16-840-1-113883-2-4-4-7"/>
               <display value="SIMVASTATINE APOTEX TABLET FILMOMHULD 10MG"/>
            </medicationReference>
            <subject>
               <reference value="Patient/I-XXX-JANGI"/>
               <display value="I. XXX_Jangi"/>
            </subject>
            <performer>
               <actor>
                  <reference value="Organization/13336578POLIAPOTHEEKANTONIUS"/>
                  <display value="Poliapotheek Antonius"/>
               </actor>
            </performer>
            <authorizingPrescription>
               <identifier>
                  <system value="urn:oid:2.16.840.1.113883.2.4.3.11.999.77.16076005.1"/>
                  <value value="MBH_MO_123_6_MA_1"/>
               </identifier>
               <display value="relatie naar medicatieafspraak: MBH_MO_123_6_MA_1 || 2.16.840.1.113883.2.4.3.11.999.77.16076005.1"/>
            </authorizingPrescription>
            <dosageInstruction>
               <sequence value="1"/>
               <text value="Vanaf T-323, 1 maal per dag 2 tabletten 's avonds, oraal"/>
               <timing>
                  <repeat>
                     <frequency value="1"/>
                     <period value="1"/>
                     <periodUnit value="d"/>
                     <when value="EVE"/>
                  </repeat>
               </timing>
               <route>
                  <coding>
                     <system value="urn:oid:2.16.840.1.113883.2.4.4.9"/>
                     <code value="9"/>
                     <display value="oraal"/>
                  </coding>
               </route>
               <doseQuantity>
                  <value value="2"/>
                  <unit value="stuk"/>
                  <system value="urn:oid:2.16.840.1.113883.2.4.4.1.900.2"/>
                  <code value="245"/>
               </doseQuantity>
            </dosageInstruction>
         </MedicationDispense>
      </resource>
   </entry>
   <entry>
      <resource>
         <MedicationDispense>
            <id value="MBH-MO-123-8-TA-2"/>
            <meta>
               <profile value="http://nictiz.nl/fhir/StructureDefinition/zib-AdministrationAgreement"/>
            </meta>
            <extension url="http://nictiz.nl/fhir/StructureDefinition/zib-AdministrationAgreement-AuthoredOn">
               <valueDateTime value="2018-07-19T11:50:00+02:00"/>
            </extension>
            <extension url="http://nictiz.nl/fhir/StructureDefinition/zib-AdministrationAgreement-AgreementReason">
               <valueString value="Beleidswijziging"/>
            </extension>
            <extension url="http://nictiz.nl/fhir/StructureDefinition/zib-Medication-PeriodOfUse">
               <valuePeriod>
                  <start value="2018-07-02T00:00:00+02:00"/>
                  <end value="2018-07-18T23:59:00+02:00"/>
               </valuePeriod>
            </extension>
            <extension url="http://nictiz.nl/fhir/StructureDefinition/zib-Medication-MedicationTreatment">
               <valueIdentifier>
                  <system value="urn:oid:2.16.840.1.113883.2.4.3.11.999.77.1.1"/>
                  <value value="MBH_MO_123_8"/>
               </valueIdentifier>
            </extension>
            <extension url="http://nictiz.nl/fhir/StructureDefinition/zib-Medication-CopyIndicator">
               <valueBoolean value="true"/>
            </extension>
            <modifierExtension url="http://nictiz.nl/fhir/StructureDefinition/zib-Medication-StopType">
               <valueCodeableConcept>
                  <coding>
                     <system value="urn:oid:2.16.840.1.113883.2.4.3.11.60.20.77.5.2.1"/>
                     <code value="1"/>
                     <display value="Onderbreking"/>
                  </coding>
               </valueCodeableConcept>
            </modifierExtension>
            <identifier>
               <system value="urn:oid:2.16.840.1.113883.2.4.3.11.999.77.422037009.1"/>
               <value value="MBH_MO_123_8_TA_2"/>
            </identifier>
            <category>
               <coding>
                  <system value="http://snomed.info/sct"/>
                  <code value="422037009"/>
                  <display value="Provider medication administration instructions (procedure)"/>
               </coding>
               <text value="Toedieningsafspraak"/>
            </category>
            <medicationReference>
               <reference value="Medication/2230879-2-16-840-1-113883-2-4-4-7"/>
               <display value="Atorvastatine ranbaxy tablet filmomhuld 40 mg"/>
            </medicationReference>
            <subject>
               <reference value="Patient/I-XXX-JANGI"/>
               <display value="I. XXX_Jangi"/>
            </subject>
            <performer>
               <actor>
                  <reference value="Organization/13336578POLIAPOTHEEKANTONIUS"/>
                  <display value="Poliapotheek Antonius"/>
               </actor>
            </performer>
            <authorizingPrescription>
               <identifier>
                  <system value="urn:oid:2.16.840.1.113883.2.4.3.11.999.77.16076005.1"/>
                  <value value="MBH_MO_123_8_MA_3"/>
               </identifier>
               <display value="relatie naar medicatieafspraak: MBH_MO_123_8_MA_3 || 2.16.840.1.113883.2.4.3.11.999.77.16076005.1"/>
            </authorizingPrescription>
            <dosageInstruction>
               <sequence value="1"/>
               <text value="Vanaf T-45 t/m T-29, 1 maal per dag 2 tabletten 's avonds, oraal"/>
               <timing>
                  <repeat>
                     <frequency value="1"/>
                     <period value="1"/>
                     <periodUnit value="d"/>
                     <when value="EVE"/>
                  </repeat>
               </timing>
               <route>
                  <coding>
                     <system value="urn:oid:2.16.840.1.113883.2.4.4.9"/>
                     <code value="9"/>
                     <display value="oraal"/>
                  </coding>
               </route>
               <doseQuantity>
                  <value value="2"/>
                  <unit value="stuk"/>
                  <system value="urn:oid:2.16.840.1.113883.2.4.4.1.900.2"/>
                  <code value="245"/>
               </doseQuantity>
            </dosageInstruction>
         </MedicationDispense>
      </resource>
   </entry>
   <entry>
      <resource>
         <MedicationDispense>
            <id value="MBH-MO-123-10-TA-2"/>
            <meta>
               <profile value="http://nictiz.nl/fhir/StructureDefinition/zib-AdministrationAgreement"/>
            </meta>
            <extension url="http://nictiz.nl/fhir/StructureDefinition/zib-AdministrationAgreement-AuthoredOn">
               <valueDateTime value="2018-07-11T15:50:00+02:00"/>
            </extension>
            <extension url="http://nictiz.nl/fhir/StructureDefinition/zib-AdministrationAgreement-AgreementReason">
               <valueString value="Geen of onvoldoende effect"/>
            </extension>
            <extension url="http://nictiz.nl/fhir/StructureDefinition/zib-Medication-PeriodOfUse">
               <valuePeriod>
                  <start value="2018-06-21T00:00:00+02:00"/>
                  <end value="2018-07-10T23:59:00+02:00"/>
               </valuePeriod>
            </extension>
            <extension url="http://nictiz.nl/fhir/StructureDefinition/zib-Medication-MedicationTreatment">
               <valueIdentifier>
                  <system value="urn:oid:2.16.840.1.113883.2.4.3.11.999.77.1.1"/>
                  <value value="MBH_MO_123_10"/>
               </valueIdentifier>
            </extension>
            <extension url="http://nictiz.nl/fhir/StructureDefinition/zib-Medication-CopyIndicator">
               <valueBoolean value="true"/>
            </extension>
            <modifierExtension url="http://nictiz.nl/fhir/StructureDefinition/zib-Medication-StopType">
               <valueCodeableConcept>
                  <coding>
                     <system value="urn:oid:2.16.840.1.113883.2.4.3.11.60.20.77.5.2.1"/>
                     <code value="2"/>
                     <display value="Staking"/>
                  </coding>
               </valueCodeableConcept>
            </modifierExtension>
            <identifier>
               <system value="urn:oid:2.16.840.1.113883.2.4.3.11.999.77.422037009.1"/>
               <value value="MBH_MO_123_10_TA_2"/>
            </identifier>
            <category>
               <coding>
                  <system value="http://snomed.info/sct"/>
                  <code value="422037009"/>
                  <display value="Provider medication administration instructions (procedure)"/>
               </coding>
               <text value="Toedieningsafspraak"/>
            </category>
            <medicationReference>
               <reference value="Medication/2105586-2-16-840-1-113883-2-4-4-7"/>
               <display value="PERINDOPRIL TERT-BUTYLAMINE GLENMARK TABLET 4MG"/>
            </medicationReference>
            <subject>
               <reference value="Patient/I-XXX-JANGI"/>
               <display value="I. XXX_Jangi"/>
            </subject>
            <performer>
               <actor>
                  <reference value="Organization/13336578POLIAPOTHEEKANTONIUS"/>
                  <display value="Poliapotheek Antonius"/>
               </actor>
            </performer>
            <dosageInstruction>
               <sequence value="1"/>
               <text value="Vanaf T-56 t/m T-37, 1 maal per dag 1 tablet 's morgens, oraal"/>
               <timing>
                  <repeat>
                     <frequency value="1"/>
                     <period value="1"/>
                     <periodUnit value="d"/>
                     <when value="MORN"/>
                  </repeat>
               </timing>
               <route>
                  <coding>
                     <system value="urn:oid:2.16.840.1.113883.2.4.4.9"/>
                     <code value="9"/>
                     <display value="oraal"/>
                  </coding>
               </route>
               <doseQuantity>
                  <value value="1"/>
                  <unit value="stuk"/>
                  <system value="urn:oid:2.16.840.1.113883.2.4.4.1.900.2"/>
                  <code value="245"/>
               </doseQuantity>
            </dosageInstruction>
         </MedicationDispense>
      </resource>
   </entry>
   <entry>
      <resource>
         <MedicationStatement>
            <id value="MBH-MO-123-1-MGB-1"/>
            <meta>
               <profile value="http://nictiz.nl/fhir/StructureDefinition/zib-MedicationUse"/>
            </meta>
            <extension url="http://nictiz.nl/fhir/StructureDefinition/zib-MedicationUse-Author">
               <valueReference>
                  <reference value="Patient/I-XXX-JANGI"/>
                  <display value="I. XXX_Jangi"/>
               </valueReference>
            </extension>
            <extension url="http://nictiz.nl/fhir/StructureDefinition/zib-Medication-MedicationTreatment">
               <valueIdentifier>
                  <system value="urn:oid:2.16.840.1.113883.2.4.3.11.999.77.1.1"/>
                  <value value="MBH_MO_123_1"/>
               </valueIdentifier>
            </extension>
            <extension url="http://nictiz.nl/fhir/StructureDefinition/zib-Medication-CopyIndicator">
               <valueBoolean value="true"/>
            </extension>
            <identifier>
               <system value="urn:oid:2.16.840.1.113883.2.4.3.11.999.77.6.1"/>
               <value value="MBH_MO_123_1_MGB_1"/>
            </identifier>
            <status value="active"/>
            <category>
               <coding>
                  <system value="urn:oid:2.16.840.1.113883.2.4.3.11.60.20.77.5.3"/>
                  <code value="6"/>
                  <display value="Medicatiegebruik"/>
               </coding>
               <text value="Medicatiegebruik"/>
            </category>
            <medicationReference>
               <reference value="Medication/IBUPROFEN"/>
               <display value="Ibuprofen"/>
            </medicationReference>
            <effectivePeriod>
               <extension url="http://nictiz.nl/fhir/StructureDefinition/zib-MedicationUse-Duration">
                  <valueDuration>
                     <value value="3"/>
                     <unit value="dag"/>
                     <system value="http://unitsofmeasure.org"/>
                     <code value="d"/>
                  </valueDuration>
               </extension>
               <start value="2018-08-13T00:00:00+02:00"/>
            </effectivePeriod>
            <dateAsserted value="2018-08-16T10:57:00+02:00"/>
            <subject>
               <reference value="Patient/I-XXX-JANGI"/>
               <display value="I. XXX_Jangi"/>
            </subject>
            <taken value="y"/>
            <note>
               <text value="Pijn"/>
            </note>
            <dosage>
               <text value="Vanaf T-3, gedurende 3 dagen, 4 maal per dag 1 tablet, oraal"/>
               <timing>
                  <repeat>
                     <frequency value="4"/>
                     <period value="1"/>
                     <periodUnit value="d"/>
                  </repeat>
               </timing>
               <route>
                  <coding>
                     <system value="urn:oid:2.16.840.1.113883.2.4.4.9"/>
                     <code value="9"/>
                     <display value="oraal"/>
                  </coding>
               </route>
               <doseQuantity>
                  <value value="1"/>
                  <unit value="stuk"/>
                  <system value="urn:oid:2.16.840.1.113883.2.4.4.1.900.2"/>
                  <code value="245"/>
               </doseQuantity>
            </dosage>
         </MedicationStatement>
      </resource>
   </entry>
   <entry>
      <resource>
         <MedicationStatement>
            <id value="MBH-MO-123-3-MGB-1"/>
            <meta>
               <profile value="http://nictiz.nl/fhir/StructureDefinition/zib-MedicationUse"/>
            </meta>
            <extension url="http://nictiz.nl/fhir/StructureDefinition/zib-MedicationUse-Author">
               <valueReference>
                  <reference value="Patient/I-XXX-JANGI"/>
                  <display value="I. XXX_Jangi"/>
               </valueReference>
            </extension>
            <extension url="http://nictiz.nl/fhir/StructureDefinition/zib-Medication-MedicationTreatment">
               <valueIdentifier>
                  <system value="urn:oid:2.16.840.1.113883.2.4.3.11.999.77.1.1"/>
                  <value value="MBH_MO_123_3"/>
               </valueIdentifier>
            </extension>
            <extension url="http://nictiz.nl/fhir/StructureDefinition/zib-Medication-CopyIndicator">
               <valueBoolean value="true"/>
            </extension>
            <identifier>
               <system value="urn:oid:2.16.840.1.113883.2.4.3.11.999.77.6.1"/>
               <value value="MBH_MO_123_3_MGB_1"/>
            </identifier>
            <status value="active"/>
            <category>
               <coding>
                  <system value="urn:oid:2.16.840.1.113883.2.4.3.11.60.20.77.5.3"/>
                  <code value="6"/>
                  <display value="Medicatiegebruik"/>
               </coding>
               <text value="Medicatiegebruik"/>
            </category>
            <medicationReference>
               <reference value="Medication/urnuuid07e51deb-d0e6-11e9-1380-28f10e481d92"/>
               <display value="Glimepiride"/>
            </medicationReference>
            <effectivePeriod>
               <start value="2018-08-06T00:00:00+02:00"/>
               <end value="2018-08-17T23:59:59+02:00"/>
            </effectivePeriod>
            <dateAsserted value="2018-08-16T12:58:00+02:00"/>
            <subject>
               <reference value="Patient/I-XXX-JANGI"/>
               <display value="I. XXX_Jangi"/>
            </subject>
            <taken value="y"/>
            <dosage>
               <text value="Vanaf T - 10, t/m T+1, 1 maal per dag 1 tablet"/>
               <timing>
                  <repeat>
                     <frequency value="1"/>
                     <period value="1"/>
                     <periodUnit value="d"/>
                  </repeat>
               </timing>
               <doseQuantity>
                  <value value="1"/>
                  <unit value="stuk"/>
                  <system value="urn:oid:2.16.840.1.113883.2.4.4.1.900.2"/>
                  <code value="245"/>
               </doseQuantity>
            </dosage>
         </MedicationStatement>
      </resource>
   </entry>
   <entry>
      <resource>
         <MedicationStatement>
            <id value="MBH-MO-123-5-MGB-1"/>
            <meta>
               <profile value="http://nictiz.nl/fhir/StructureDefinition/zib-MedicationUse"/>
            </meta>
            <extension url="http://nictiz.nl/fhir/StructureDefinition/zib-MedicationUse-AsAgreedIndicator">
               <valueBoolean value="false"/>
            </extension>
            <extension url="http://nictiz.nl/fhir/StructureDefinition/zib-MedicationUse-Author">
               <valueReference>
                  <reference value="Patient/I-XXX-JANGI"/>
                  <display value="I. XXX_Jangi"/>
               </valueReference>
            </extension>
            <extension url="http://nictiz.nl/fhir/StructureDefinition/zib-Medication-MedicationTreatment">
               <valueIdentifier>
                  <system value="urn:oid:2.16.840.1.113883.2.4.3.11.999.77.1.1"/>
                  <value value="MBH_MO_123_5"/>
               </valueIdentifier>
            </extension>
            <extension url="http://nictiz.nl/fhir/StructureDefinition/zib-Medication-CopyIndicator">
               <valueBoolean value="true"/>
            </extension>
            <identifier>
               <system value="urn:oid:2.16.840.1.113883.2.4.3.11.999.77.6.1"/>
               <value value="MBH_MO_123_5_MGB_1"/>
            </identifier>
            <status value="on-hold"/>
            <category>
               <coding>
                  <system value="urn:oid:2.16.840.1.113883.2.4.3.11.60.20.77.5.3"/>
                  <code value="6"/>
                  <display value="Medicatiegebruik"/>
               </coding>
               <text value="Medicatiegebruik"/>
            </category>
            <medicationReference>
               <reference value="Medication/2105594-2-16-840-1-113883-2-4-4-7"/>
               <display value="PERINDOPRIL TERT-BUTYLAMINE GLENMARK TABLET 8MG"/>
            </medicationReference>
            <effectivePeriod>
               <start value="2018-07-13T00:00:00+02:00"/>
            </effectivePeriod>
            <dateAsserted value="2018-07-14T13:58:00+02:00"/>
            <subject>
               <reference value="Patient/I-XXX-JANGI"/>
               <display value="I. XXX_Jangi"/>
            </subject>
            <derivedFrom>
               <identifier>
                  <system value="urn:oid:2.16.840.1.113883.2.4.3.11.999.77.422037009.1"/>
                  <value value="MBH_MO_123_5_TA_1"/>
               </identifier>
               <display value="relatie naar toedieningsafspraak"/>
            </derivedFrom>
            <taken value="n"/>
            <reasonNotTaken>
               <coding>
                  <system value="urn:oid:2.16.840.1.113883.2.4.3.11.60.20.77.5.2.2"/>
                  <code value="6"/>
                  <display value="Te sterk effect"/>
               </coding>
            </reasonNotTaken>
            <note>
               <text value="Gestopt vanwege bijwerkingen"/>
            </note>
            <dosage>
               <text value="Vanaf T-34, gestaakt"/>
            </dosage>
         </MedicationStatement>
      </resource>
   </entry>
   <entry>
      <resource>
         <MedicationStatement>
            <id value="MBH-MO-123-6-MGB-1"/>
            <meta>
               <profile value="http://nictiz.nl/fhir/StructureDefinition/zib-MedicationUse"/>
            </meta>
            <extension url="http://nictiz.nl/fhir/StructureDefinition/zib-MedicationUse-AsAgreedIndicator">
               <valueBoolean value="false"/>
            </extension>
            <extension url="http://nictiz.nl/fhir/StructureDefinition/zib-MedicationUse-Author">
               <valueReference>
                  <reference value="PractitionerRole/urnuuid07e51ee5-d0e6-11e9-1380-28f10e481d92"/>
               </valueReference>
            </extension>
            <extension url="http://nictiz.nl/fhir/StructureDefinition/zib-Medication-MedicationTreatment">
               <valueIdentifier>
                  <system value="urn:oid:2.16.840.1.113883.2.4.3.11.999.77.1.1"/>
                  <value value="MBH_MO_123_6"/>
               </valueIdentifier>
            </extension>
            <extension url="http://nictiz.nl/fhir/StructureDefinition/zib-Medication-CopyIndicator">
               <valueBoolean value="false"/>
            </extension>
            <identifier>
               <system value="urn:oid:2.16.840.1.113883.2.4.3.11.999.77.6.1"/>
               <value value="MBH_MO_123_6_MGB_1"/>
            </identifier>
            <status value="active"/>
            <category>
               <coding>
                  <system value="urn:oid:2.16.840.1.113883.2.4.3.11.60.20.77.5.3"/>
                  <code value="6"/>
                  <display value="Medicatiegebruik"/>
               </coding>
               <text value="Medicatiegebruik"/>
            </category>
            <medicationReference>
               <reference value="Medication/1537792-2-16-840-1-113883-2-4-4-7"/>
               <display value="SIMVASTATINE APOTEX TABLET FILMOMHULD 10MG"/>
            </medicationReference>
            <effectivePeriod>
               <start value="2017-09-27T00:00:00+02:00"/>
            </effectivePeriod>
            <dateAsserted value="2017-12-11T09:00:00+01:00"/>
            <subject>
               <reference value="Patient/I-XXX-JANGI"/>
               <display value="I. XXX_Jangi"/>
            </subject>
            <taken value="y"/>
            <note>
               <text value="Patiënt gebruikt niet volgens voorschrift"/>
            </note>
            <dosage>
               <text value="Vanaf T-36, t/m T-34, 1 maal per dag 1 tablet, oraal"/>
               <timing>
                  <repeat>
                     <frequency value="1"/>
                     <period value="1"/>
                     <periodUnit value="d"/>
                     <when value="EVE"/>
                  </repeat>
               </timing>
               <route>
                  <coding>
                     <system value="urn:oid:2.16.840.1.113883.2.4.4.9"/>
                     <code value="9"/>
                     <display value="oraal"/>
                  </coding>
               </route>
               <doseQuantity>
                  <value value="1"/>
                  <unit value="stuk"/>
                  <system value="urn:oid:2.16.840.1.113883.2.4.4.1.900.2"/>
                  <code value="245"/>
               </doseQuantity>
            </dosage>
         </MedicationStatement>
      </resource>
   </entry>
   <entry>
      <resource>
         <MedicationStatement>
            <id value="MBH-MO-123-6-MGB-2"/>
            <meta>
               <profile value="http://nictiz.nl/fhir/StructureDefinition/zib-MedicationUse"/>
            </meta>
            <extension url="http://nictiz.nl/fhir/StructureDefinition/zib-MedicationUse-AsAgreedIndicator">
               <valueBoolean value="false"/>
            </extension>
            <extension url="http://nictiz.nl/fhir/StructureDefinition/zib-MedicationUse-Author">
               <valueReference>
                  <reference value="Patient/I-XXX-JANGI"/>
                  <display value="I. XXX_Jangi"/>
               </valueReference>
            </extension>
            <extension url="http://nictiz.nl/fhir/StructureDefinition/zib-Medication-MedicationTreatment">
               <valueIdentifier>
                  <system value="urn:oid:2.16.840.1.113883.2.4.3.11.999.77.1.1"/>
                  <value value="MBH_MO_123_6"/>
               </valueIdentifier>
            </extension>
            <identifier>
               <system value="urn:oid:2.16.840.1.113883.2.4.3.11.999.77.6.1"/>
               <value value="MBH_MO_123_6_MGB_2"/>
            </identifier>
            <status value="active"/>
            <category>
               <coding>
                  <system value="urn:oid:2.16.840.1.113883.2.4.3.11.60.20.77.5.3"/>
                  <code value="6"/>
                  <display value="Medicatiegebruik"/>
               </coding>
               <text value="Medicatiegebruik"/>
            </category>
            <medicationReference>
               <reference value="Medication/1537792-2-16-840-1-113883-2-4-4-7"/>
               <display value="SIMVASTATINE APOTEX TABLET FILMOMHULD 10MG"/>
            </medicationReference>
            <effectivePeriod>
               <start value="2017-09-27T00:00:00+02:00"/>
               <end value="2018-02-24T23:59:00+01:00"/>
            </effectivePeriod>
            <dateAsserted value="2018-02-25T15:37:00+01:00"/>
            <subject>
               <reference value="Patient/I-XXX-JANGI"/>
               <display value="I. XXX_Jangi"/>
            </subject>
            <derivedFrom>
               <identifier>
                  <system value="urn:oid:2.16.840.1.113883.2.4.3.11.999.77.16076005.1"/>
                  <value value="MBH_MO_123_6_MA_1"/>
               </identifier>
               <display value="relatie naar medicatieafspraak"/>
            </derivedFrom>
            <taken value="y"/>
            <note>
               <text value="Veel last van jeuk"/>
            </note>
            <dosage>
               <text value="Van T-248 t/m T-173, 1 maal per dag 1 tablet's avonds, oraal"/>
               <timing>
                  <repeat>
                     <frequency value="1"/>
                     <period value="1"/>
                     <periodUnit value="d"/>
                     <when value="EVE"/>
                  </repeat>
               </timing>
               <route>
                  <coding>
                     <system value="urn:oid:2.16.840.1.113883.2.4.4.9"/>
                     <code value="9"/>
                     <display value="oraal"/>
                  </coding>
               </route>
               <doseQuantity>
                  <value value="1"/>
                  <unit value="stuk"/>
                  <system value="urn:oid:2.16.840.1.113883.2.4.4.1.900.2"/>
                  <code value="245"/>
               </doseQuantity>
            </dosage>
         </MedicationStatement>
      </resource>
   </entry>
</Bundle>
