<?xml-model href="http://hl7.org/fhir/STU3/bundle.sch" type="application/xml" schematypens="http://purl.oclc.org/dsdl/schematron"?>
<Bundle xsi:schemaLocation="http://hl7.org/fhir http://hl7.org/fhir/STU3/bundle.xsd"
        xmlns:xsi="http://www.w3.org/2001/XMLSchema-instance"
        xmlns="http://hl7.org/fhir">
   <id value="e05a30fb-6b27-11ec-0000-020000000000"/>
   <type value="searchset"/>
   <total value="2"/>
   <link>
      <relation value="self"/>
      <url value="http://dummy.nictiz.nl/dummyquery"/>
   </link>
   <entry>
      <fullUrl value="urn:uuid:e367b4de-6afa-11ec-0000-020000000000"/>
      <resource>
         <MedicationDispense>
            <meta>
               <profile value="http://nictiz.nl/fhir/StructureDefinition/mp612-DispenseToFHIRConversion-AdministrationAgreement"/>
            </meta>
            <text>
               <status value="extensions"/>
               <div xmlns="http://www.w3.org/1999/xhtml">
                  <table>
                     <caption>MedicationDispense. Subject: van de XXX Kruk. Categorie: 
<span title="Provider medication administration instructions (procedure) (422037009 - SNOMED CT)">Provider medication administration instructions (procedure)</span>
                        <span style="display: block;">Uitvoerende: Klatter Apo</span>
                     </caption>
                     <tbody>
                        <tr>
                           <th>Medicamenteuze behandel-id</th>
                           <td>00041507004 (urn:oid:2.16.840.1.113883.2.4.3.39.6101.57947.10005159.3)</td>
                        </tr>
                        <tr>
                           <th>Gemaakt</th>
                           <td>16 april 2021</td>
                        </tr>
                        <tr>
                           <th>Medicatie</th>
                           <td>PARACETAMOL TEVA TABLET 500MG</td>
                        </tr>
                        <tr>
                           <th>Doseerinstructie</th>
                           <td>
                              <div>Tekst: 1-3 maal per week 1-2 tabletten zo nodig</div>
                              <div>Timing: 
<div>eenmalig per week</div>
                              </div>
                              <div>Zo nodig: 
<span title="zo nodig (1137 - nhg-tabel-25-gebruiksvoorschrift#aanvullend-numeriek)">zo nodig</span>
                              </div>
                              <div>Dosering: 1 ST - 2 ST</div>
                           </td>
                        </tr>
                        <tr>
                           <th>Doseerinstructie</th>
                           <td>
                              <div>Tekst: 1-3 maal per week 1-2 tabletten zo nodig</div>
                              <div>Timing: 
<div>2 maal per week</div>
                              </div>
                              <div>Zo nodig: zo nodig</div>
                              <div>Dosering: 1 ST - 2 ST</div>
                           </td>
                        </tr>
                     </tbody>
                  </table>
               </div>
            </text>
            <extension url="http://nictiz.nl/fhir/StructureDefinition/zib-AdministrationAgreement-AuthoredOn">
               <valueDateTime value="2021-04-16"/>
            </extension>
            <extension url="http://nictiz.nl/fhir/StructureDefinition/zib-Medication-MedicationTreatment">
               <valueIdentifier>
                  <system value="urn:oid:2.16.840.1.113883.2.4.3.39.6101.57947.10005159.3"/>
                  <value value="00041507004"/>
               </valueIdentifier>
            </extension>
            <category>
               <coding>
                  <system value="http://snomed.info/sct"/>
                  <code value="422037009"/>
                  <display value="Provider medication administration instructions (procedure)"/>
               </coding>
               <text value="Toedieningsafspraak"/>
            </category>
            <medicationReference>
               <reference value="urn:oid:2.16.840.1.113883.2.4.4.8.15375641"/>
               <display value="PARACETAMOL TEVA TABLET 500MG"/>
            </medicationReference>
            <subject>
               <reference value="urn:uuid:411880fb-6aeb-11ec-0000-020000000000"/>
               <display value="van de XXX Kruk"/>
            </subject>
            <performer>
               <actor>
                  <reference value="urn:oid:2.16.528.1.1007.3.3.57947"/>
                  <display value="Klatter Apo"/>
               </actor>
            </performer>
            <dosageInstruction>
               <text value="1-3 maal per week 1-2 tabletten zo nodig"/>
               <timing>
                  <repeat>
                     <frequency value="1"/>
                     <period value="1"/>
                     <periodUnit value="wk"/>
                  </repeat>
               </timing>
               <asNeededCodeableConcept>
                  <coding>
                     <system value="https://referentiemodel.nhg.org/tabellen/nhg-tabel-25-gebruiksvoorschrift#aanvullend-numeriek"/>
                     <code value="1137"/>
                     <display value="zo nodig"/>
                  </coding>
               </asNeededCodeableConcept>
               <doseRange>
                  <low>
                     <value value="1"/>
                     <unit value="ST"/>
                     <system value="urn:oid:2.16.840.1.113883.2.4.4.1.900.2"/>
                     <code value="245"/>
                  </low>
                  <high>
                     <value value="2"/>
                     <unit value="ST"/>
                     <system value="urn:oid:2.16.840.1.113883.2.4.4.1.900.2"/>
                     <code value="245"/>
                  </high>
               </doseRange>
            </dosageInstruction>
            <dosageInstruction>
               <text value="1-3 maal per week 1-2 tabletten zo nodig"/>
               <timing>
                  <repeat>
                     <frequency value="2"/>
                     <period value="1"/>
                     <periodUnit value="wk"/>
                  </repeat>
               </timing>
               <asNeededCodeableConcept>
                  <coding>
                     <system value="http://hl7.org/fhir/v3/NullFlavor"/>
                     <code value="OTH"/>
                     <display value="overig"/>
                  </coding>
                  <text value="zo nodig"/>
               </asNeededCodeableConcept>
               <doseRange>
                  <low>
                     <value value="1"/>
                     <unit value="ST"/>
                     <system value="urn:oid:2.16.840.1.113883.2.4.4.1.900.2"/>
                     <code value="245"/>
                  </low>
                  <high>
                     <value value="2"/>
                     <unit value="ST"/>
                     <system value="urn:oid:2.16.840.1.113883.2.4.4.1.900.2"/>
                     <code value="245"/>
                  </high>
               </doseRange>
            </dosageInstruction>
         </MedicationDispense>
      </resource>
      <search>
         <mode value="match"/>
      </search>
   </entry>
   <entry>
      <fullUrl value="urn:oid:2.16.840.1.113883.2.4.3.39.6101.57947.10005159.3.41507004"/>
      <resource>
         <MedicationDispense>
            <meta>
               <profile value="http://nictiz.nl/fhir/StructureDefinition/mp612-DispenseToFHIRConversion-Dispense"/>
            </meta>
            <text>
               <status value="extensions"/>
               <div xmlns="http://www.w3.org/1999/xhtml">
                  <table>
                     <caption>MedicationDispense. Subject: van de XXX Kruk. Id: 00041507004 (urn:oid:2.16.840.1.113883.2.4.3.39.6101.57947.10005159.3), Categorie: 
<span title="Dispensing medication (procedure) (373784005 - SNOMED CT)">Dispensing medication (procedure)</span>
                        <span style="display: block;">Uitvoerende: Klatter Apo</span>
                     </caption>
                     <tbody>
                        <tr>
                           <th>Medicamenteuze behandel-id</th>
                           <td>00041507004 (urn:oid:2.16.840.1.113883.2.4.3.39.6101.57947.10005159.3)</td>
                        </tr>
                        <tr>
                           <th>Aanvraagdatum</th>
                           <td>16 april 2021</td>
                        </tr>
                        <tr>
                           <th>Medicatie</th>
                           <td>PARACETAMOL TEVA TABLET 500MG</td>
                        </tr>
                        <tr>
                           <th>Hoeveelheid</th>
                           <td>30.0000 ST</td>
                        </tr>
                        <tr>
                           <th>Dagen voorraad</th>
                           <td>69 dag</td>
                        </tr>
                        <tr>
                           <th>Datum overhandigd</th>
                           <td>
                              <i>geen informatie (ontbrekend gegeven)</i>
                           </td>
                        </tr>
                     </tbody>
                  </table>
               </div>
            </text>
            <extension url="http://nictiz.nl/fhir/StructureDefinition/zib-Dispense-RequestDate">
               <valueDateTime value="2021-04-16"/>
            </extension>
            <extension url="http://nictiz.nl/fhir/StructureDefinition/zib-Medication-MedicationTreatment">
               <valueIdentifier>
                  <system value="urn:oid:2.16.840.1.113883.2.4.3.39.6101.57947.10005159.3"/>
                  <value value="00041507004"/>
               </valueIdentifier>
            </extension>
            <identifier>
               <system value="urn:oid:2.16.840.1.113883.2.4.3.39.6101.57947.10005159.3"/>
               <value value="00041507004"/>
            </identifier>
            <category>
               <coding>
                  <system value="http://snomed.info/sct"/>
                  <code value="373784005"/>
                  <display value="Dispensing medication (procedure)"/>
               </coding>
               <text value="Medicatieverstrekking"/>
            </category>
            <medicationReference>
               <reference value="urn:oid:2.16.840.1.113883.2.4.4.8.15375641"/>
               <display value="PARACETAMOL TEVA TABLET 500MG"/>
            </medicationReference>
            <subject>
               <reference value="urn:uuid:411880fb-6aeb-11ec-0000-020000000000"/>
               <display value="van de XXX Kruk"/>
            </subject>
            <performer>
               <actor>
                  <reference value="urn:oid:2.16.528.1.1007.3.3.57947"/>
                  <display value="Klatter Apo"/>
               </actor>
            </performer>
            <quantity>
               <value value="30.0000"/>
               <unit value="ST"/>
               <system value="urn:oid:2.16.840.1.113883.2.4.4.1.900.2"/>
               <code value="245"/>
            </quantity>
            <daysSupply>
               <value value="69"/>
               <unit value="dag"/>
               <system value="http://unitsofmeasure.org"/>
               <code value="d"/>
            </daysSupply>
            <whenHandedOver>
               <extension url="http://hl7.org/fhir/StructureDefinition/iso21090-nullFlavor">
                  <valueCode value="NI"/>
               </extension>
            </whenHandedOver>
         </MedicationDispense>
      </resource>
      <search>
         <mode value="match"/>
      </search>
   </entry>
   <entry>
      <fullUrl value="urn:uuid:411880fb-6aeb-11ec-0000-020000000000"/>
      <resource>
         <Patient>
            <meta>
               <profile value="http://nictiz.nl/fhir/StructureDefinition/mp612-DispenseToFHIRConversion-Patient"/>
            </meta>
            <text>
               <status value="extensions"/>
               <div xmlns="http://www.w3.org/1999/xhtml">
                  <div>Id 
<i>afgeschermd (ontbrekend gegeven)</i> (BSN), 
<span title="Naamsamenstelling: Eigennaam">van de XXX Kruk</span>, Vrouw, 9 december 1985</div>
               </div>
            </text>
            <identifier>
               <system value="http://fhir.nl/fhir/NamingSystem/bsn"/>
               <value>
                  <extension url="http://hl7.org/fhir/StructureDefinition/data-absent-reason">
                     <valueCode value="masked"/>
                  </extension>
               </value>
            </identifier>
            <name>
               <extension url="http://hl7.org/fhir/StructureDefinition/humanname-assembly-order">
                  <valueCode value="NL1"/>
               </extension>
               <family value="van de XXX Kruk">
                  <extension url="http://hl7.org/fhir/StructureDefinition/humanname-own-prefix">
                     <valueString value="van de"/>
                  </extension>
                  <extension url="http://hl7.org/fhir/StructureDefinition/humanname-own-name">
                     <valueString value="XXX Kruk"/>
                  </extension>
               </family>
            </name>
            <gender value="female">
               <extension url="http://nictiz.nl/fhir/StructureDefinition/code-specification">
                  <valueCodeableConcept>
                     <coding>
                        <system value="http://hl7.org/fhir/v3/AdministrativeGender"/>
                        <code value="F"/>
                        <display value="Vrouw"/>
                     </coding>
                  </valueCodeableConcept>
               </extension>
            </gender>
            <birthDate value="1985-12-09"/>
         </Patient>
      </resource>
      <search>
         <mode value="include"/>
      </search>
   </entry>
   <entry>
      <fullUrl value="urn:oid:2.16.528.1.1007.3.3.57947"/>
      <resource>
         <Organization>
            <meta>
               <profile value="http://nictiz.nl/fhir/StructureDefinition/mp612-DispenseToFHIRConversion-Organization"/>
            </meta>
            <text>
               <status value="extensions"/>
               <div xmlns="http://www.w3.org/1999/xhtml">
                  <table>
                     <caption>Organisatie. Id: 00057947 (URA)</caption>
                     <tbody>
                        <tr>
                           <th>Naam</th>
                           <td>Klatter Apo</td>
                        </tr>
                     </tbody>
                  </table>
               </div>
            </text>
            <identifier>
               <system value="http://fhir.nl/fhir/NamingSystem/ura"/>
               <value value="00057947"/>
            </identifier>
            <name value="Klatter Apo"/>
         </Organization>
      </resource>
      <search>
         <mode value="include"/>
      </search>
   </entry>
   <entry>
      <fullUrl value="urn:oid:2.16.840.1.113883.2.4.4.8.15375641"/>
      <resource>
         <Medication>
            <meta>
               <profile value="http://nictiz.nl/fhir/StructureDefinition/mp612-DispenseToFHIRConversion-Product"/>
            </meta>
            <text>
               <status value="extensions"/>
               <div xmlns="http://www.w3.org/1999/xhtml">
                  <table>
                     <tbody>
                        <tr>
                           <th>Code</th>
                           <td>
                              <span title="PARACETAMOL TEVA TABLET 500MG (15375641 - G-Standaard ZI_nummer)">PARACETAMOL TEVA TABLET 500MG</span>
                           </td>
                        </tr>
                     </tbody>
                  </table>
               </div>
            </text>
            <code>
               <coding>
                  <system value="urn:oid:2.16.840.1.113883.2.4.4.8"/>
                  <code value="15375641"/>
                  <display value="PARACETAMOL TEVA TABLET 500MG"/>
                  <userSelected value="true"/>
               </coding>
               <coding>
                  <system value="urn:oid:2.16.840.1.113883.2.4.4.7"/>
                  <code value="768901"/>
               </coding>
               <coding>
                  <system value="urn:oid:2.16.840.1.113883.2.4.4.10"/>
                  <code value="67903"/>
               </coding>
               <coding>
                  <system value="urn:oid:2.16.840.1.113883.2.4.4.1"/>
                  <code value="2194"/>
               </coding>
               <text value="PARACETAMOL TEVA TABLET 500MG"/>
            </code>
         </Medication>
      </resource>
      <search>
         <mode value="include"/>
      </search>
   </entry>
</Bundle>