<?xml-model href="http://hl7.org/fhir/STU3/bundle.sch" type="application/xml" schematypens="http://purl.oclc.org/dsdl/schematron"?><Bundle xmlns="http://hl7.org/fhir"
        xmlns:xsi="http://www.w3.org/2001/XMLSchema-instance"
        xsi:schemaLocation="http://hl7.org/fhir http://hl7.org/fhir/STU3/bundle.xsd">
   <type value="searchset"/>
   <total value="1"/>
   <entry>
      <fullUrl value="urn:uuid:4124bf36-a05c-11ea-1389-020000000000"/>
      <resource>
         <QuestionnaireResponse>
            <meta>
               <profile value="http://nictiz.nl/fhir/StructureDefinition/vl-QuestionnaireResponse"/>
            </meta>
            <questionnaire>
               <reference value="http://examplerepository.nl/intake-nieuwe-patient--20200327"/>
               <display value="intake-nieuwe-patient"/>
            </questionnaire>
            <status value="completed"/>
            <subject>
               <reference value="urn:uuid:4124b0bf-a05c-11ea-1389-020000000000"/>
               <display value="Jan J. Jan Verkeulen"/>
            </subject>
            <authored value="${DATE, T, D, -1}T11:30:00+02:00"/>
            <author>
               <reference value="urn:uuid:4124b0bf-a05c-11ea-1389-020000000000"/>
               <display value="Jan J. Jan Verkeulen"/>
            </author>
            <item>
               <linkId value="algemeen"/>
               <item>
                  <linkId value="gewicht"/>
                  <answer>
                     <valueDecimal value="89.5"/>
                  </answer>
               </item>
               <item>
                  <linkId value="lengte"/>
                  <answer>
                     <valueInteger value="183"/>
                  </answer>
               </item>
               <item>
                  <linkId value="roken"/>
                  <answer>
                     <valueBoolean value="false"/>
                  </answer>
               </item>
               <item>
                  <linkId value="ooitgerookt"/>
                  <answer>
                     <valueBoolean value="true"/>
                  </answer>
               </item>
               <item>
                  <linkId value="jarensindsroken"/>
                  <answer>
                     <valueDecimal value="10"/>
                  </answer>
               </item>
               <item>
                  <linkId value="drinken"/>
                  <answer>
                     <valueBoolean value="true"/>
                  </answer>
               </item>
               <item>
                  <linkId value="hoevaakdrinken"/>
                  <answer>
                     <valueCoding>
                        <code value="AFT"/>
                        <display value="Af en toe"/>
                     </valueCoding>
                  </answer>
               </item>
               <item>
                  <linkId value="lichamelijkegezondheid"/>
                  <answer>
                     <valueString value="De laatste jaren krijg ik wat kwaaltjes "/>
                  </answer>
               </item>
               <item>
                  <linkId value="opstaan"/>
                  <answer>
                     <valueTime value="06:30:00"/>
                  </answer>
               </item>
               <item>
                  <linkId value="sport"/>
                  <answer>
                     <valueBoolean value="true"/>
                  </answer>
               </item>
               <item>
                  <linkId value="welkesport"/>
                  <answer>
                     <valueCoding>
                        <code value="AND"/>
                        <display value="Anders, namelijk"/>
                     </valueCoding>
                  </answer>
               </item>
               <item>
                  <linkId value="welkeanderesport"/>
                  <answer>
                     <valueString value="Schaken"/>
                  </answer>
               </item>
            </item>
            <item>
               <linkId value="voorgeschiedenis"/>
               <item>
                  <linkId value="onderbehandeling"/>
                  <answer>
                     <valueBoolean value="true"/>
                  </answer>
               </item>
               <item>
                  <linkId value="datumlaatstebehandeling"/>
                  <answer>
                     <valueDate>${DATE, T, D, -30}</valueDate>
                  </answer>
               </item>
               <item>
                  <linkId value="geneesmiddelen"/>
                  <answer>
                     <valueBoolean value="true"/>
                  </answer>
               </item>
            </item>
            <item>
               <linkId value="socialemedia"/>
               <item>
                  <linkId value="facebook"/>
                  <answer>
                     <valueBoolean value="false"/>
                  </answer>
               </item>
               <item>
                  <linkId value="instagram"/>
                  <answer>
                     <valueBoolean value="false"/>
                  </answer>
               </item>
               <item>
                  <linkId value="linkedin"/>
                  <answer>
                     <valueBoolean value="false"/>
                  </answer>
               </item>
               <item>
                  <linkId value="anderplatform"/>
                  <answer>
                     <valueBoolean value="false"/>
                  </answer>
               </item>
            </item>
            <item>
               <linkId value="contactgegevens"/>
               <item>
                  <linkId value="mobiel"/>
                  <answer>
                     <valueString value="06-12121212"/>
                  </answer>
               </item>
               <item>
                  <linkId value="mail"/>
                  <answer>
                     <valueString value="jverkeu@durftevragen.nl"/>
                  </answer>
               </item>
            </item>
            <item>
               <linkId value="belafspraak"/>
               <item>
                  <linkId value="toestemmingbelafspraak"/>
                  <answer>
                     <valueBoolean value="true"/>
                  </answer>
               </item>
               <item>
                  <linkId value="datumtijdbelafspraak"/>
                  <answer>
                     <valueDateTime>${DATE, T, D, +5}T14:00:00+02:00</valueDateTime>
                  </answer>
               </item>
            </item>
         </QuestionnaireResponse>
      </resource>
   </entry>
   <entry>
      <fullUrl value="urn:uuid:4124b0bf-a05c-11ea-1389-020000000000"/>
      <resource>
         <Patient>
            <meta>
               <profile value="http://fhir.nl/fhir/StructureDefinition/nl-core-patient"/>
            </meta>
            <text>
               <status value="generated"/>
               <div xmlns="http://www.w3.org/1999/xhtml">
                  <div>Jan J. Verkeulen (Jan), Man, 25 november 1975</div>
               </div>
            </text>
            <name>
               <family value="Verkeulen">
                  <extension url="http://hl7.org/fhir/StructureDefinition/humanname-own-name">
                     <valueString value="Verkeulen"/>
                  </extension>
               </family>
               <given value="Jan">
                  <extension url="http://hl7.org/fhir/StructureDefinition/iso21090-EN-qualifier">
                     <valueCode value="BR"/>
                  </extension>
               </given>
               <given value="J.">
                  <extension url="http://hl7.org/fhir/StructureDefinition/iso21090-EN-qualifier">
                     <valueCode value="IN"/>
                  </extension>
               </given>
               <given value="Jan">
                  <extension url="http://hl7.org/fhir/StructureDefinition/iso21090-EN-qualifier">
                     <valueCode value="CL"/>
                  </extension>
               </given>
            </name>
            <gender value="male"/>
            <birthDate value="1975-11-25"/>
            <multipleBirthBoolean>
               <extension url="http://hl7.org/fhir/StructureDefinition/iso21090-nullFlavor">
                  <valueCode value="UNK"/>
               </extension>
            </multipleBirthBoolean>
         </Patient>
      </resource>
      <search>
         <mode value="include"/>
      </search>
   </entry>
   <entry>
      <fullUrl value="urn:oid:2.16.528.1.1007.3.1.1111"/>
      <resource>
         <Practitioner>
            <meta>
               <profile value="http://fhir.nl/fhir/StructureDefinition/nl-core-practitioner"/>
            </meta>
            <text>
               <status value="generated"/>
               <div xmlns="http://www.w3.org/1999/xhtml">
                  <div>Id 000001111 (UZI-NR-PERS), Lijster (Frans)</div>
               </div>
            </text>
            <identifier>
               <system value="http://fhir.nl/fhir/NamingSystem/uzi-nr-pers"/>
               <value value="000001111"/>
            </identifier>
            <name>
               <family value="Lijster">
                  <extension url="http://hl7.org/fhir/StructureDefinition/humanname-own-name">
                     <valueString value="Lijster"/>
                  </extension>
               </family>
               <given value="Frans">
                  <extension url="http://hl7.org/fhir/StructureDefinition/iso21090-EN-qualifier">
                     <valueCode value="CL"/>
                  </extension>
               </given>
            </name>
         </Practitioner>
      </resource>
      <search>
         <mode value="include"/>
      </search>
   </entry>
   <entry>
      <fullUrl value="urn:oid:2.16.528.1.1007.3.3.1111"/>
      <resource>
         <Organization>
            <meta>
               <profile value="http://fhir.nl/fhir/StructureDefinition/nl-core-organization"/>
            </meta>
            <text>
               <status value="generated"/>
               <div xmlns="http://www.w3.org/1999/xhtml">
                  <table>
                     <caption>OrganisatieId: 00001111 (URA)</caption>
                     <tbody>
                        <tr>
                           <th>Naam</th>
                           <td>Gezondheidscentrum Quaestionario</td>
                        </tr>
                     </tbody>
                  </table>
               </div>
            </text>
            <identifier>
               <system value="http://fhir.nl/fhir/NamingSystem/ura"/>
               <value value="00001111"/>
            </identifier>
            <name value="Gezondheidscentrum Quaestionario"/>
         </Organization>
      </resource>
      <search>
         <mode value="include"/>
      </search>
   </entry>
   <entry>
      <fullUrl value="urn:uuid:4124b3c6-a05c-11ea-1389-020000000000"/>
      <resource>
         <PractitionerRole>
            <meta>
               <profile value="http://fhir.nl/fhir/StructureDefinition/nl-core-practitionerrole"/>
            </meta>
            <text>
               <status value="generated"/>
               <div xmlns="http://www.w3.org/1999/xhtml">
                  <table>
                     <caption>Zorgverlenerrol</caption>
                     <tbody>
                        <tr>
                           <th>Zorgverlener</th>
                           <td>
                              <div>Frans Lijster</div>
                              <div>Gezondheidscentrum Quaestionario</div>
                           </td>
                        </tr>
                     </tbody>
                  </table>
               </div>
            </text>
            <practitioner>
               <reference value="urn:oid:2.16.528.1.1007.3.1.1111"/>
               <display value="Frans Lijster"/>
            </practitioner>
            <organization>
               <reference value="urn:oid:2.16.528.1.1007.3.3.1111"/>
               <display value="Gezondheidscentrum Quaestionario"/>
            </organization>
         </PractitionerRole>
      </resource>
      <search>
         <mode value="include"/>
      </search>
   </entry>
</Bundle>
