<?xml-model href="http://hl7.org/fhir/STU3/bundle.sch" type="application/xml" schematypens="http://purl.oclc.org/dsdl/schematron"?>
<Bundle xsi:schemaLocation="http://hl7.org/fhir http://hl7.org/fhir/STU3/bundle.xsd"
        xmlns:xsi="http://www.w3.org/2001/XMLSchema-instance"
        xmlns="http://hl7.org/fhir">
   <id value="Bundle-MedicationOverview-7dc97a2f-6aa2-11ec-0000-020000000000"/>
   <meta>
      <profile value="http://nictiz.nl/fhir/StructureDefinition/Bundle-MedicationOverview"/>
   </meta>
   <type value="searchset"/>
   <total value="1"/>
   <entry>
      <fullUrl value="urn:uuid:fd426f40-6b77-11ec-0000-020000000000"/>
      <resource>
         <MedicationRequest>
            <id value="zib-MedicationAgreement-mp9-tsMBH-907-dosis-stuks-MA-LTA"/>
            <meta>
               <profile value="http://nictiz.nl/fhir/StructureDefinition/zib-MedicationAgreement"/>
            </meta>
            <text>
               <status value="extensions"/>
               <div xmlns="http://www.w3.org/1999/xhtml">
                  <table>
                     <caption>Medicatieafspraak. Subject: J. XXX-LEV-TEST-A. Id: tsMBH_907_dosis_stuks_MA-LTA (urn:oid:2.16.840.1.113883.2.4.3.11.999.77.16076005.1), Categorie: 
<span title="Prescription (procedure) (16076005 - SNOMED CT)">Prescription (procedure)</span>, 
<span style="display: block;">Intentie: aanvraag</span>
                        <span style="display: block;">Aangevraagd door: Pieter de Plat || Huisarts, niet nader gespecificeerd || Huisartsenpraktijk Staden</span>
                     </caption>
                     <tbody>
                        <tr>
                           <th>Medicamenteuze behandel-id</th>
                           <td>tsMBH_907_dosis_stuks-LTA (urn:oid:2.16.840.1.113883.2.4.3.11.999.77.1.1)</td>
                        </tr>
                        <tr>
                           <th>Medicatie</th>
                           <td>BECLOMETASON NEUSSPRAY 50UG/DO</td>
                        </tr>
                        <tr>
                           <th>Gemaakt</th>
                           <td>${DATE, T, D, -140}T11:35:00+02:00</td>
                        </tr>
                        <tr>
                           <th>Gebruiksduur</th>
                           <td>${DATE, T, D, -140}T00:00:00+02:00 - ${DATE, T, D, -100}T23:59:59+02:00</td>
                        </tr>
                        <tr>
                           <th>Doseerinstructie</th>
                           <td>
                              <div>Tekst: Vanaf T - 140 dagen, tot en met T - 100 dagen, 2 maal per dag 2 doses, nasaal</div>
                              <div>Timing: 
<div>2 maal per dag</div>
                              </div>
                              <div>Toedieningsweg: 
<span title="nasaal (6 - G-Standaard thesaurus subtabel 0007)">nasaal</span>
                              </div>
                              <div>Dosering: 2 Dosis</div>
                           </td>
                        </tr>
                     </tbody>
                  </table>
               </div>
            </text>
            <extension url="http://nictiz.nl/fhir/StructureDefinition/zib-Medication-PeriodOfUse">
               <valuePeriod>
                  <start value="${DATE, T, D, -140}T00:00:00+02:00"/>
                  <end value="${DATE, T, D, -100}T23:59:59+02:00"/>
               </valuePeriod>
            </extension>
            <extension url="http://nictiz.nl/fhir/StructureDefinition/zib-Medication-MedicationTreatment">
               <valueIdentifier>
                  <system value="urn:oid:2.16.840.1.113883.2.4.3.11.999.77.1.1"/>
                  <value value="tsMBH_907_dosis_stuks-LTA"/>
               </valueIdentifier>
            </extension>
            <identifier>
               <system value="urn:oid:2.16.840.1.113883.2.4.3.11.999.77.16076005.1"/>
               <value value="tsMBH_907_dosis_stuks_MA-LTA"/>
            </identifier>
            <intent value="order"/>
            <category>
               <coding>
                  <system value="http://snomed.info/sct"/>
                  <code value="16076005"/>
                  <display value="Prescription (procedure)"/>
               </coding>
               <text value="Medicatieafspraak"/>
            </category>
            <medicationReference>
               <reference value="Medication/zib-Product-mp9-2-16-840-1-113883-2-4-4-10-21865"/>
               <display value="BECLOMETASON NEUSSPRAY 50UG/DO"/>
            </medicationReference>
            <subject>
               <reference value="Patient/J-XXX-LEV-TEST-A"/>
               <display value="J. XXX-LEV-TEST-A"/>
            </subject>
            <authoredOn value="${DATE, T, D, -140}T11:35:00+02:00"/>
            <requester>
               <agent>
                  <extension url="http://nictiz.nl/fhir/StructureDefinition/practitionerrole-reference">
                     <valueReference>
                        <reference value="PractitionerRole/nl-core-practitionerrole-mp9-000001116010000001116"/>
                        <display value="Pieter de Plat || Huisarts, niet nader gespecificeerd || Huisartsenpraktijk Staden"/>
                     </valueReference>
                  </extension>
                  <reference value="Practitioner/nl-core-practitioner-mp9-2-16-528-1-1007-3-1-000001116"/>
                  <display value="Pieter de Plat"/>
               </agent>
            </requester>
            <dosageInstruction>
               <text value="Vanaf T - 140 dagen, tot en met T - 100 dagen, 2 maal per dag 2 doses, nasaal"/>
               <timing>
                  <repeat>
                     <frequency value="2"/>
                     <period value="1"/>
                     <periodUnit value="d"/>
                  </repeat>
               </timing>
               <route>
                  <coding>
                     <system value="urn:oid:2.16.840.1.113883.2.4.4.9"/>
                     <code value="6"/>
                     <display value="nasaal"/>
                  </coding>
               </route>
               <doseQuantity>
                  <value value="2"/>
                  <unit value="Dosis"/>
                  <system value="urn:oid:2.16.840.1.113883.2.4.4.1.900.2"/>
                  <code value="208"/>
               </doseQuantity>
            </dosageInstruction>
         </MedicationRequest>
      </resource>
      <search>
         <mode value="include"/>
      </search>
   </entry>
   <entry>
      <fullUrl value="urn:uuid:f32fe938-6b75-11ec-0000-020000000000"/>
      <resource>
         <Patient>
            <id value="J-XXX-LEV-TEST-A"/>
            <meta>
               <profile value="http://fhir.nl/fhir/StructureDefinition/nl-core-patient"/>
            </meta>
            <text>
               <status value="extensions"/>
               <div xmlns="http://www.w3.org/1999/xhtml">
                  <div>Id 
<i>afgeschermd (ontbrekend gegeven)</i> (BSN), 
<span title="Naamsamenstelling: Eigennaam">J. XXX-LEV-TEST-A</span>, Vrouw, 3 januari 1950</div>
               </div>
            </text>
            <identifier>
               <system value="http://fhir.nl/fhir/NamingSystem/bsn"/>
               <value>
                  <extension url="http://hl7.org/fhir/StructureDefinition/data-absent-reason">
                     <valueCode value="masked"/>
                  </extension>
               </value>
            </identifier>
            <name>
               <extension url="http://hl7.org/fhir/StructureDefinition/humanname-assembly-order">
                  <valueCode value="NL1"/>
               </extension>
               <family value="XXX-LEV-TEST-A">
                  <extension url="http://hl7.org/fhir/StructureDefinition/humanname-own-name">
                     <valueString value="XXX-LEV-TEST-A"/>
                  </extension>
               </family>
               <given value="J.">
                  <extension url="http://hl7.org/fhir/StructureDefinition/iso21090-EN-qualifier">
                     <valueCode value="IN"/>
                  </extension>
               </given>
            </name>
            <gender value="female">
               <extension url="http://nictiz.nl/fhir/StructureDefinition/code-specification">
                  <valueCodeableConcept>
                     <coding>
                        <system value="http://hl7.org/fhir/v3/AdministrativeGender"/>
                        <code value="F"/>
                        <display value="Vrouw"/>
                     </coding>
                  </valueCodeableConcept>
               </extension>
            </gender>
            <birthDate value="1950-01-03"/>
         </Patient>
      </resource>
      <search>
         <mode value="include"/>
      </search>
   </entry>
   <entry>
      <fullUrl value="urn:oid:2.16.528.1.1007.3.1.1116"/>
      <resource>
         <Practitioner>
            <id value="nl-core-practitioner-mp9-2-16-528-1-1007-3-1-000001116"/>
            <meta>
               <profile value="http://fhir.nl/fhir/StructureDefinition/nl-core-practitioner"/>
            </meta>
            <text>
               <status value="extensions"/>
               <div xmlns="http://www.w3.org/1999/xhtml">
                  <div>Id 000001116 (UZI-NR-PERS), Pieter de Plat</div>
                  <div>Kerkstraat 4, 1234AB Onze Stad (WP)</div>
               </div>
            </text>
            <identifier>
               <system value="http://fhir.nl/fhir/NamingSystem/uzi-nr-pers"/>
               <value value="000001116"/>
            </identifier>
            <name>
               <family value="de Plat">
                  <extension url="http://hl7.org/fhir/StructureDefinition/humanname-own-prefix">
                     <valueString value="de"/>
                  </extension>
                  <extension url="http://hl7.org/fhir/StructureDefinition/humanname-own-name">
                     <valueString value="Plat"/>
                  </extension>
               </family>
               <given value="Pieter">
                  <extension url="http://hl7.org/fhir/StructureDefinition/iso21090-EN-qualifier">
                     <valueCode value="BR"/>
                  </extension>
               </given>
            </name>
            <address>
               <extension url="http://nictiz.nl/fhir/StructureDefinition/zib-AddressInformation-AddressType">
                  <valueCodeableConcept>
                     <coding>
                        <system value="http://hl7.org/fhir/v3/AddressUse"/>
                        <code value="WP"/>
                        <display value="Werkadres"/>
                     </coding>
                  </valueCodeableConcept>
               </extension>
               <use value="work"/>
               <line value="Kerkstraat 4">
                  <extension url="http://hl7.org/fhir/StructureDefinition/iso21090-ADXP-streetName">
                     <valueString value="Kerkstraat"/>
                  </extension>
                  <extension url="http://hl7.org/fhir/StructureDefinition/iso21090-ADXP-houseNumber">
                     <valueString value="4"/>
                  </extension>
               </line>
               <city value="Onze Stad"/>
               <postalCode value="1234AB"/>
            </address>
         </Practitioner>
      </resource>
      <search>
         <mode value="include"/>
      </search>
   </entry>
   <entry>
      <fullUrl value="urn:oid:2.16.528.1.1007.3.3.1116"/>
      <resource>
         <Organization>
            <id value="nl-core-organization-mp9-2-16-528-1-1007-3-3-00001116"/>
            <meta>
               <profile value="http://fhir.nl/fhir/StructureDefinition/nl-core-organization"/>
            </meta>
            <text>
               <status value="extensions"/>
               <div xmlns="http://www.w3.org/1999/xhtml">
                  <table>
                     <caption>Organisatie. Id: 00001116 (URA)</caption>
                     <tbody>
                        <tr>
                           <th>Naam</th>
                           <td>Huisartsenpraktijk Staden</td>
                        </tr>
                        <tr>
                           <th>Adres</th>
                           <td>Kerkstraat 4, 1234AB Onze Stad (WP)</td>
                        </tr>
                     </tbody>
                  </table>
               </div>
            </text>
            <identifier>
               <system value="http://fhir.nl/fhir/NamingSystem/ura"/>
               <value value="00001116"/>
            </identifier>
            <name value="Huisartsenpraktijk Staden"/>
            <address>
               <extension url="http://nictiz.nl/fhir/StructureDefinition/zib-AddressInformation-AddressType">
                  <valueCodeableConcept>
                     <coding>
                        <system value="http://hl7.org/fhir/v3/AddressUse"/>
                        <code value="WP"/>
                        <display value="Werkadres"/>
                     </coding>
                  </valueCodeableConcept>
               </extension>
               <use value="work"/>
               <line value="Kerkstraat 4">
                  <extension url="http://hl7.org/fhir/StructureDefinition/iso21090-ADXP-streetName">
                     <valueString value="Kerkstraat"/>
                  </extension>
                  <extension url="http://hl7.org/fhir/StructureDefinition/iso21090-ADXP-houseNumber">
                     <valueString value="4"/>
                  </extension>
               </line>
               <city value="Onze Stad"/>
               <postalCode value="1234AB"/>
            </address>
         </Organization>
      </resource>
      <search>
         <mode value="include"/>
      </search>
   </entry>
   <entry>
      <fullUrl value="urn:oid:2.16.528.1.1007.3.3.1111"/>
      <resource>
         <Organization>
            <id value="nl-core-organization-mp9-2-16-528-1-1007-3-3-00001111"/>
            <meta>
               <profile value="http://fhir.nl/fhir/StructureDefinition/nl-core-organization"/>
            </meta>
            <text>
               <status value="extensions"/>
               <div xmlns="http://www.w3.org/1999/xhtml">
                  <table>
                     <caption>Organisatie. Id: 00001111 (URA)</caption>
                     <tbody>
                        <tr>
                           <th>Naam</th>
                           <td>Huisartsenpraktijk Pulver &amp; Partners</td>
                        </tr>
                        <tr>
                           <th>Contactgegevens</th>
                           <td>
                              <a href="tel:099-12345678">099-12345678</a> (Tel)</td>
                        </tr>
                        <tr>
                           <th>Adres</th>
                           <td>Dorpsstraat 1, 1234AA Ons Dorp (WP)</td>
                        </tr>
                     </tbody>
                  </table>
               </div>
            </text>
            <identifier>
               <system value="http://fhir.nl/fhir/NamingSystem/ura"/>
               <value value="00001111"/>
            </identifier>
            <name value="Huisartsenpraktijk Pulver &amp; Partners"/>
            <telecom>
               <system value="phone"/>
               <value value="099-12345678"/>
            </telecom>
            <address>
               <extension url="http://nictiz.nl/fhir/StructureDefinition/zib-AddressInformation-AddressType">
                  <valueCodeableConcept>
                     <coding>
                        <system value="http://hl7.org/fhir/v3/AddressUse"/>
                        <code value="WP"/>
                        <display value="Werkadres"/>
                     </coding>
                  </valueCodeableConcept>
               </extension>
               <use value="work"/>
               <line value="Dorpsstraat 1">
                  <extension url="http://hl7.org/fhir/StructureDefinition/iso21090-ADXP-streetName">
                     <valueString value="Dorpsstraat"/>
                  </extension>
                  <extension url="http://hl7.org/fhir/StructureDefinition/iso21090-ADXP-houseNumber">
                     <valueString value="1"/>
                  </extension>
               </line>
               <city value="Ons Dorp"/>
               <postalCode value="1234AA"/>
            </address>
         </Organization>
      </resource>
      <search>
         <mode value="include"/>
      </search>
   </entry>
   <entry>
      <fullUrl value="urn:uuid:19fb9a00-6af1-11ec-0000-020000000000"/>
      <resource>
         <PractitionerRole>
            <id value="nl-core-practitionerrole-mp9-000001116010000001116"/>
            <meta>
               <profile value="http://fhir.nl/fhir/StructureDefinition/nl-core-practitionerrole"/>
            </meta>
            <text>
               <status value="extensions"/>
               <div xmlns="http://www.w3.org/1999/xhtml">
                  <table>
                     <caption>Zorgverlenerrol. </caption>
                     <tbody>
                        <tr>
                           <th>Zorgverlener</th>
                           <td>
                              <div>Pieter de Plat</div>
                              <div>Huisartsenpraktijk Staden</div>
                           </td>
                        </tr>
                        <tr>
                           <th>Specialisme</th>
                           <td>
                              <span title="Huisarts, niet nader gespecificeerd (0100 - AGB-medisch specialisme)">Huisarts, niet nader gespecificeerd</span>
                           </td>
                        </tr>
                     </tbody>
                  </table>
               </div>
            </text>
            <practitioner>
               <reference value="Practitioner/nl-core-practitioner-mp9-2-16-528-1-1007-3-1-000001116"/>
               <display value="Pieter de Plat"/>
            </practitioner>
            <organization>
               <reference value="Organization/nl-core-organization-mp9-2-16-528-1-1007-3-3-00001116"/>
               <display value="Huisartsenpraktijk Staden"/>
            </organization>
            <specialty>
               <coding>
                  <system value="urn:oid:2.16.840.1.113883.2.4.6.7"/>
                  <code value="0100"/>
                  <display value="Huisarts, niet nader gespecificeerd"/>
               </coding>
            </specialty>
         </PractitionerRole>
      </resource>
      <search>
         <mode value="include"/>
      </search>
   </entry>
   <entry>
      <fullUrl value="urn:oid:2.16.840.1.113883.2.4.4.10.21865"/>
      <resource>
         <Medication>
            <id value="zib-Product-mp9-2-16-840-1-113883-2-4-4-10-21865"/>
            <meta>
               <profile value="http://nictiz.nl/fhir/StructureDefinition/zib-Product"/>
            </meta>
            <text>
               <status value="extensions"/>
               <div xmlns="http://www.w3.org/1999/xhtml">
                  <table>
                     <tbody>
                        <tr>
                           <th>Code</th>
                           <td>
                              <span title="BECLOMETASON NEUSSPRAY 50UG/DO (21865 - G-Standaard PRK)">BECLOMETASON NEUSSPRAY 50UG/DO</span>
                           </td>
                        </tr>
                     </tbody>
                  </table>
               </div>
            </text>
            <code>
               <coding>
                  <system value="urn:oid:2.16.840.1.113883.2.4.4.10"/>
                  <code value="21865"/>
                  <display value="BECLOMETASON NEUSSPRAY 50UG/DO"/>
                  <userSelected value="true"/>
               </coding>
               <coding>
                  <system value="urn:oid:2.16.840.1.113883.2.4.4.1"/>
                  <code value="10332"/>
                  <display value="BECLOMETASON NEUSSPRAY 50UG/DO"/>
               </coding>
               <text value="BECLOMETASON NEUSSPRAY 50UG/DO"/>
            </code>
         </Medication>
      </resource>
      <search>
         <mode value="include"/>
      </search>
   </entry>
   <entry>
      <fullUrl value="urn:uuid:6ea87454-6a9f-11ec-0000-020000000000"/>
      <resource>
         <List>
            <id value="d161899e147"/>
            <meta>
               <profile value="http://nictiz.nl/fhir/StructureDefinition/MedicationOverview"/>
            </meta>
            <extension url="http://nictiz.nl/fhir/StructureDefinition/MedicationOverview-Verification">
               <extension url="VerificationPatient">
                  <valueBoolean value="false"/>
               </extension>
               <extension url="VerificationHealthProfessional">
                  <valueBoolean value="false"/>
               </extension>
            </extension>
            <status value="current"/>
            <mode value="snapshot"/>
            <code>
               <coding>
                  <system value="http://snomed.info/sct"/>
                  <code value="11181000146103"/>
                  <display value="Actual medication overview (record artifact)"/>
               </coding>
               <text value="Medicatieoverzicht"/>
            </code>
            <subject>
               <reference value="Patient/J-XXX-LEV-TEST-A"/>
               <display value="J. XXX-LEV-TEST-A"/>
            </subject>
            <date value="${DATE, T, D, +0}"/>
            <source>
               <extension url="http://nictiz.nl/fhir/StructureDefinition/MedicationOverview-SourceOrganization">
                  <valueReference>
                     <reference value="Organization/nl-core-organization-mp9-2-16-528-1-1007-3-3-00001111"/>
                     <display value="Huisartsenpraktijk Pulver &amp; Partners"/>
                  </valueReference>
               </extension>
               <display value="Huisartsenpraktijk Pulver &amp; Partners"/>
            </source>
            <entry>
               <item>
                  <reference value="MedicationRequest/zib-MedicationAgreement-mp9-tsMBH-907-dosis-stuks-MA-LTA"/>
                  <display value="Medicatieafspraak identifier: value='tsMBH_907_dosis_stuks_MA-LTA', system='urn:oid:2.16.840.1.113883.2.4.3.11.999.77.16076005.1'"/>
               </item>
            </entry>
         </List>
      </resource>
      <search>
         <mode value="match"/>
      </search>
   </entry>
</Bundle>