<?xml version="1.0" encoding="UTF-8"?>
<?xml-model href="http://hl7.org/fhir/STU3/bundle.sch" type="application/xml" schematypens="http://purl.oclc.org/dsdl/schematron"?>
<Bundle xmlns="http://hl7.org/fhir" xmlns:xsi="http://www.w3.org/2001/XMLSchema-instance" xsi:schemaLocation="http://hl7.org/fhir http://hl7.org/fhir/STU3/bundle.xsd">
    <type value="searchset"/>
    <total value="1"/>
    <entry>
        <fullUrl value="urn:uuid:b89035d2-e04a-11e9-1134-020000000000"/>
        <resource>
            <MedicationRequest>
                <meta>
                    <profile value="http://nictiz.nl/fhir/StructureDefinition/zib-MedicationAgreement"/>
                </meta>
                <extension url="http://nictiz.nl/fhir/StructureDefinition/zib-Medication-PeriodOfUse">
                    <valuePeriod>
                        <start value="2019-09-25T00:00:00+02:00"/>
                    </valuePeriod>
                </extension>
                <extension url="http://nictiz.nl/fhir/StructureDefinition/zib-MedicationUse-Duration">
                    <valueDuration>
                        <value value="30"/>
                        <unit value="dag"/>
                        <system value="http://unitsofmeasure.org"/>
                        <code value="d"/>
                    </valueDuration>
                </extension>
                <extension url="http://nictiz.nl/fhir/StructureDefinition/zib-Medication-MedicationTreatment">
                    <valueIdentifier>
                        <system value="urn:oid:2.16.840.1.113883.2.4.3.11.999.77.1.1"/>
                        <value value="MBH-cyclisch-1"/>
                    </valueIdentifier>
                </extension>
                <modifierExtension url="http://nictiz.nl/fhir/StructureDefinition/zib-Medication-RepeatPeriodCyclicalSchedule">
                    <valueDuration>
                        <value value="10"/>
                        <unit value="d"/>
                        <system value="http://unitsofmeasure.org"/>
                        <code value="d"/>
                    </valueDuration>
                </modifierExtension>
                <identifier>
                    <system value="urn:oid:2.16.840.1.113883.2.4.3.11.999.77.16076005.1"/>
                    <value value="MBH-cyclisch-1-MA-1"/>
                </identifier>
                <intent value="order"/>
                <category>
                    <coding>
                        <system value="http://snomed.info/sct"/>
                        <code value="16076005"/>
                        <display value="Prescription (procedure)"/>
                    </coding>
                    <text value="Medicatieafspraak"/>
                </category>
                <medicationReference>
                    <reference value="urn:oid:2.16.840.1.113883.2.4.4.10.19844"/>
                    <display value="DOXYCYCLINE TABLET 100MG"/>
                </medicationReference>
                <subject>
                    <reference value="urn:uuid:b890318d-e04a-11e9-1134-020000000000"/>
                    <display value="Antonius XXX_Verweij"/>
                </subject>
                <authoredOn value="2019-09-25T11:15:00+02:00"/>
                <requester>
                    <agent>
                        <extension url="http://nictiz.nl/fhir/StructureDefinition/practitionerrole-reference">
                            <valueReference>
                                <reference value="urn:uuid:b89035d5-e04a-11e9-1134-020000000000"/>
                                <display value="Peter van Pulver || Huisartsen, niet nader gespecificeerd || Huisartsenpraktijk Pulver &amp; Partners"/>
                            </valueReference>
                        </extension>
                        <display value="Peter van Pulver || Huisartsen, niet nader gespecificeerd || Huisartsenpraktijk Pulver &amp; Partners"/>
                    </agent>
                </requester>
                <dosageInstruction>
                    <sequence value="1"/>
                    <text value="vanaf 25/9/2019, gedurende 30 dagen, steeds 2x daags 1 à 2 tabletten voor een duur van 3 dagen, pauze van 2 dagen, gevolgd door een schema van 3x daags 1 tablet tot 3 tabletten gedurende 5 dagen, dit iedere 10 dagen herhalen."/>
                    <timing>
                        <repeat>
                            <boundsDuration>
                                <value value="3"/>
                                <unit value="dag"/>
                                <system value="http://unitsofmeasure.org"/>
                                <code value="d"/>
                            </boundsDuration>
                            <frequency value="2"/>
                            <period value="1"/>
                            <periodUnit value="d"/>
                        </repeat>
                    </timing>
                    <route>
                        <coding>
                            <system value="urn:oid:2.16.840.1.113883.2.4.4.9"/>
                            <code value="9"/>
                            <display value="oraal"/>
                        </coding>
                    </route>
                    <doseRange>
                        <low>
                            <value value="1"/>
                            <unit value="stuk"/>
                            <system value="urn:oid:2.16.840.1.113883.2.4.4.1.900.2"/>
                            <code value="245"/>
                        </low>
                        <high>
                            <value value="2"/>
                            <unit value="stuk"/>
                            <system value="urn:oid:2.16.840.1.113883.2.4.4.1.900.2"/>
                            <code value="245"/>
                        </high>
                    </doseRange>
                </dosageInstruction>
                <dosageInstruction>
                    <sequence value="2"/>
                    <text value="vanaf 25/9/2019, gedurende 30 dagen, steeds 2x daags 1 à 2 tabletten voor een duur van 3 dagen, pauze van 2 dagen, gevolgd door een schema van 3x daags 1 tablet tot 3 tabletten gedurende 5 dagen, dit iedere 10 dagen herhalen."/>
                    <timing>
                        <repeat>
                            <boundsDuration>
                                <value value="2"/>
                                <unit value="dag"/>
                                <system value="http://unitsofmeasure.org"/>
                                <code value="d"/>
                            </boundsDuration>
                        </repeat>
                    </timing>
                </dosageInstruction>
                <dosageInstruction>
                    <sequence value="3"/>
                    <text value="vanaf 25/9/2019, gedurende 30 dagen, steeds 2x daags 1 à 2 tabletten voor een duur van 3 dagen, pauze van 2 dagen, gevolgd door een schema van 3x daags 1 tablet tot 3 tabletten gedurende 5 dagen, dit iedere 10 dagen herhalen."/>
                    <timing>
                        <repeat>
                            <boundsDuration>
                                <value value="5"/>
                                <unit value="dag"/>
                                <system value="http://unitsofmeasure.org"/>
                                <code value="d"/>
                            </boundsDuration>
                            <frequency value="3"/>
                            <period value="1"/>
                            <periodUnit value="d"/>
                        </repeat>
                    </timing>
                    <route>
                        <coding>
                            <system value="urn:oid:2.16.840.1.113883.2.4.4.9"/>
                            <code value="9"/>
                            <display value="oraal"/>
                        </coding>
                    </route>
                    <doseRange>
                        <low>
                            <value value="1"/>
                            <unit value="stuk"/>
                            <system value="urn:oid:2.16.840.1.113883.2.4.4.1.900.2"/>
                            <code value="245"/>
                        </low>
                        <high>
                            <value value="3"/>
                            <unit value="stuk"/>
                            <system value="urn:oid:2.16.840.1.113883.2.4.4.1.900.2"/>
                            <code value="245"/>
                        </high>
                    </doseRange>
                </dosageInstruction>
            </MedicationRequest>
        </resource>
        <search>
            <mode value="match"/>
        </search>
    </entry>
    <entry>
        <fullUrl value="urn:uuid:b890318d-e04a-11e9-1134-020000000000"/>
        <resource>
            <Patient>
                <meta>
                    <profile value="http://fhir.nl/fhir/StructureDefinition/nl-core-patient"/>
                </meta>
                <identifier>
                    <system value="http://fhir.nl/fhir/NamingSystem/bsn"/>
                    <value value="999911533"/>
                </identifier>
                <name>
                    <extension url="http://hl7.org/fhir/StructureDefinition/humanname-assembly-order">
                        <valueCode value="NL1"/>
                    </extension>
                    <family value="XXX_Verweij">
                        <extension url="http://hl7.org/fhir/StructureDefinition/humanname-own-name">
                            <valueString value="XXX_Verweij"/>
                        </extension>
                    </family>
                    <given value="Antonius">
                        <extension url="http://hl7.org/fhir/StructureDefinition/iso21090-EN-qualifier">
                            <valueCode value="BR"/>
                        </extension>
                    </given>
                </name>
                <gender value="male"/>
                <birthDate value="1964-08-02"/>
            </Patient>
        </resource>
        <search>
            <mode value="include"/>
        </search>
    </entry>
    <entry>
        <fullUrl value="urn:oid:2.16.528.1.1007.3.1.1111"/>
        <resource>
            <Practitioner>
                <meta>
                    <profile value="http://fhir.nl/fhir/StructureDefinition/nl-core-practitioner"/>
                </meta>
                <identifier>
                    <system value="http://fhir.nl/fhir/NamingSystem/uzi-nr-pers"/>
                    <value value="000001111"/>
                </identifier>
                <name>
                    <family value="van Pulver">
                        <extension url="http://hl7.org/fhir/StructureDefinition/humanname-own-prefix">
                            <valueString value="van "/>
                        </extension>
                        <extension url="http://hl7.org/fhir/StructureDefinition/humanname-own-name">
                            <valueString value="Pulver"/>
                        </extension>
                    </family>
                    <given value="Peter">
                        <extension url="http://hl7.org/fhir/StructureDefinition/iso21090-EN-qualifier">
                            <valueCode value="BR"/>
                        </extension>
                    </given>
                </name>
            </Practitioner>
        </resource>
        <search>
            <mode value="include"/>
        </search>
    </entry>
    <entry>
        <fullUrl value="urn:oid:2.16.528.1.1007.3.3.1111"/>
        <resource>
            <Organization>
                <meta>
                    <profile value="http://fhir.nl/fhir/StructureDefinition/nl-core-organization"/>
                </meta>
                <identifier>
                    <system value="http://fhir.nl/fhir/NamingSystem/ura"/>
                    <value value="00001111"/>
                </identifier>
                <name value="Huisartsenpraktijk Pulver &amp; Partners"/>
                <address>
                    <use value="work"/>
                    <line value="Dorpsstraat 1">
                        <extension url="http://hl7.org/fhir/StructureDefinition/iso21090-ADXP-streetName">
                            <valueString value="Dorpsstraat"/>
                        </extension>
                        <extension url="http://hl7.org/fhir/StructureDefinition/iso21090-ADXP-houseNumber">
                            <valueString value="1"/>
                        </extension>
                    </line>
                    <city value="Ons Dorp"/>
                    <postalCode value="1234AA"/>
                </address>
            </Organization>
        </resource>
        <search>
            <mode value="include"/>
        </search>
    </entry>
    <entry>
        <fullUrl value="urn:uuid:b89035d5-e04a-11e9-1134-020000000000"/>
        <resource>
            <PractitionerRole>
                <meta>
                    <profile value="http://fhir.nl/fhir/StructureDefinition/nl-core-practitionerrole"/>
                </meta>
                <practitioner>
                    <reference value="urn:oid:2.16.528.1.1007.3.1.1111"/>
                    <display value="Peter van Pulver"/>
                </practitioner>
                <organization>
                    <reference value="urn:oid:2.16.528.1.1007.3.3.1111"/>
                    <display value="Huisartsenpraktijk Pulver &amp; Partners"/>
                </organization>
                <specialty>
                    <coding>
                        <system value="urn:oid:2.16.840.1.113883.2.4.6.7"/>
                        <code value="0100"/>
                        <display value="Huisartsen, niet nader gespecificeerd"/>
                    </coding>
                </specialty>
            </PractitionerRole>
        </resource>
        <search>
            <mode value="include"/>
        </search>
    </entry>
    <entry>
        <fullUrl value="urn:oid:2.16.840.1.113883.2.4.4.10.19844"/>
        <resource>
            <Medication>
                <meta>
                    <profile value="http://nictiz.nl/fhir/StructureDefinition/zib-Product"/>
                </meta>
                <code>
                    <coding>
                        <system value="urn:oid:2.16.840.1.113883.2.4.4.10"/>
                        <code value="19844"/>
                        <display value="DOXYCYCLINE TABLET 100MG"/>
                        <userSelected value="true"/>
                    </coding>
                    <coding>
                        <system value="urn:oid:2.16.840.1.113883.2.4.4.1"/>
                        <code value="22179"/>
                        <display value="DOXYCYCLINE TABLET 100MG"/>
                    </coding>
                </code>
            </Medication>
        </resource>
        <search>
            <mode value="include"/>
        </search>
    </entry>
</Bundle>
