<?xml-model href="http://hl7.org/fhir/STU3/bundle.sch" type="application/xml" schematypens="http://purl.oclc.org/dsdl/schematron"?>
<Bundle xsi:schemaLocation="http://hl7.org/fhir http://hl7.org/fhir/STU3/bundle.xsd"
        xmlns:xsi="http://www.w3.org/2001/XMLSchema-instance"
        xmlns="http://hl7.org/fhir">
   <id value="48dd0d68-6b78-11ec-0000-020000000000"/>
   <type value="searchset"/>
   <total value="24"/>
   <link>
      <relation value="self"/>
      <url value="http://dummy.nictiz.nl/dummyquery"/>
   </link>
   <entry>
      <fullUrl value="urn:uuid:29e88dfb-6a9c-11ec-0000-020000000000"/>
      <resource>
         <MedicationRequest>
            <meta>
               <profile value="http://nictiz.nl/fhir/StructureDefinition/zib-MedicationAgreement"/>
            </meta>
            <text>
               <status value="extensions"/>
               <div xmlns="http://www.w3.org/1999/xhtml">
                  <table>
                     <caption>Medicatieafspraak. Subject: J. XXX_Cnossen. Id: MBH_313_1_MA_1 (urn:oid:2.16.840.1.113883.2.4.3.11.999.77.16076005.1), Categorie: 
<span title="Prescription (procedure) (16076005 - SNOMED CT)">Prescription (procedure)</span>, 
<span style="display: block;">Intentie: aanvraag</span>
                        <span style="display: block;">Aangevraagd door: Peter van Pulver || Huisartsen, niet nader gespecificeerd || Huisartsenpraktijk Pulver &amp; Partners</span>
                     </caption>
                     <tbody>
                        <tr>
                           <th>Medicamenteuze behandel-id</th>
                           <td>MBH_313_1 (urn:oid:2.16.840.1.113883.2.4.3.11.999.77.1.1)</td>
                        </tr>
                        <tr>
                           <th>Medicatie</th>
                           <td>Tiotropium inhalatiecapsule 18ug</td>
                        </tr>
                        <tr>
                           <th>Gemaakt</th>
                           <td>${DATE, T, D, -100}T12:11:00+02:00</td>
                        </tr>
                        <tr>
                           <th>Gebruiksduur</th>
                           <td>Vanaf ${DATE, T, D, -100}T00:00:00+02:00</td>
                        </tr>
                        <tr>
                           <th>Doseerinstructie</th>
                           <td>
                              <div>Volgnummer: 1</div>
                              <div>Tekst: Vanaf T - 100 dagen, 1 maal per dag 1 dosis, inhalatie</div>
                              <div>Timing: 
<div>eenmalig per dag</div>
                              </div>
                              <div>Toedieningsweg: 
<span title="inhalatie (62 - G-Standaard thesaurus subtabel 0007)">inhalatie</span>
                              </div>
                              <div>Dosering: 1 dosis</div>
                           </td>
                        </tr>
                     </tbody>
                  </table>
               </div>
            </text>
            <extension url="http://nictiz.nl/fhir/StructureDefinition/zib-Medication-PeriodOfUse">
               <valuePeriod>
                  <start value="${DATE, T, D, -100}T00:00:00+02:00"/>
               </valuePeriod>
            </extension>
            <extension url="http://nictiz.nl/fhir/StructureDefinition/zib-Medication-MedicationTreatment">
               <valueIdentifier>
                  <system value="urn:oid:2.16.840.1.113883.2.4.3.11.999.77.1.1"/>
                  <value value="MBH_313_1"/>
               </valueIdentifier>
            </extension>
            <identifier>
               <system value="urn:oid:2.16.840.1.113883.2.4.3.11.999.77.16076005.1"/>
               <value value="MBH_313_1_MA_1"/>
            </identifier>
            <intent value="order"/>
            <category>
               <coding>
                  <system value="http://snomed.info/sct"/>
                  <code value="16076005"/>
                  <display value="Prescription (procedure)"/>
               </coding>
               <text value="Medicatieafspraak"/>
            </category>
            <medicationReference>
               <reference value="urn:oid:2.16.840.1.113883.2.4.4.10.59919"/>
               <display value="Tiotropium inhalatiecapsule 18ug"/>
            </medicationReference>
            <subject>
               <reference value="urn:uuid:47db3f28-6b04-11ec-0000-020000000000"/>
               <display value="J. XXX_Cnossen"/>
            </subject>
            <authoredOn value="${DATE, T, D, -100}T12:11:00+02:00"/>
            <requester>
               <agent>
                  <extension url="http://nictiz.nl/fhir/StructureDefinition/practitionerrole-reference">
                     <valueReference>
                        <reference value="urn:uuid:26763470-6acf-11ec-0000-020000000000"/>
                        <display value="Peter van Pulver || Huisartsen, niet nader gespecificeerd || Huisartsenpraktijk Pulver &amp; Partners"/>
                     </valueReference>
                  </extension>
                  <reference value="urn:oid:2.16.528.1.1007.3.1.1111"/>
                  <display value="Peter van Pulver"/>
               </agent>
            </requester>
            <dosageInstruction>
               <sequence value="1"/>
               <text value="Vanaf T - 100 dagen, 1 maal per dag 1 dosis, inhalatie"/>
               <timing>
                  <repeat>
                     <frequency value="1"/>
                     <period value="1"/>
                     <periodUnit value="d"/>
                  </repeat>
               </timing>
               <route>
                  <coding>
                     <system value="urn:oid:2.16.840.1.113883.2.4.4.9"/>
                     <code value="62"/>
                     <display value="inhalatie"/>
                  </coding>
               </route>
               <doseQuantity>
                  <value value="1"/>
                  <unit value="dosis"/>
                  <system value="urn:oid:2.16.840.1.113883.2.4.4.1.900.2"/>
                  <code value="208"/>
               </doseQuantity>
            </dosageInstruction>
         </MedicationRequest>
      </resource>
      <search>
         <mode value="match"/>
      </search>
   </entry>
   <entry>
      <fullUrl value="urn:uuid:4d3e3863-6ae8-11ec-0000-020000000000"/>
      <resource>
         <MedicationRequest>
            <meta>
               <profile value="http://nictiz.nl/fhir/StructureDefinition/zib-MedicationAgreement"/>
            </meta>
            <text>
               <status value="extensions"/>
               <div xmlns="http://www.w3.org/1999/xhtml">
                  <table>
                     <caption>Medicatieafspraak. Subject: J. XXX_Cnossen. Id: MBH_313_1_MA_2 (urn:oid:2.16.840.1.113883.2.4.3.11.999.77.16076005.1), Categorie: 
<span title="Prescription (procedure) (16076005 - SNOMED CT)">Prescription (procedure)</span>, 
<span style="display: block;">Intentie: aanvraag</span>
                        <span style="display: block;">Aangevraagd door: John de Vries || Huisartsen, niet nader gespecificeerd || Huisartsenpraktijk Pulver &amp; Partners</span>
                     </caption>
                     <tbody>
                        <tr>
                           <th colspan="2">Medicatie is gestopt: 
<span title="Definitief (2 - 2.16.840.1.113883.2.4.3.11.60.20.77.5.2.1)">Definitief</span>
                           </th>
                        </tr>
                        <tr>
                           <th>Medicamenteuze behandel-id</th>
                           <td>MBH_313_1 (urn:oid:2.16.840.1.113883.2.4.3.11.999.77.1.1)</td>
                        </tr>
                        <tr>
                           <th>Medicatie</th>
                           <td>Tiotropium inhalatiecapsule 18ug</td>
                        </tr>
                        <tr>
                           <th>Gemaakt</th>
                           <td>${DATE, T, D, -60}T13:54:00+02:00</td>
                        </tr>
                        <tr>
                           <th>Reden</th>
                           <td>
                              <span title="Toedieningsweg voldoet niet (8 - 2.16.840.1.113883.2.4.3.11.60.20.77.5.2.2)">Toedieningsweg voldoet niet</span>
                           </td>
                        </tr>
                        <tr>
                           <th>Gebruiksduur</th>
                           <td>${DATE, T, D, -100}T00:00:00+02:00 - ${DATE, T, D, -59}T23:59:00+02:00</td>
                        </tr>
                        <tr>
                           <th>Doseerinstructie</th>
                           <td>
                              <div>Volgnummer: 1</div>
                              <div>Tekst: Vanaf T - 100 dagen, tot en met T - 59 dagen, 1 maal per dag 1 dosis, inhalatie, definitief gestopt</div>
                              <div>Timing: 
<div>eenmalig per dag</div>
                              </div>
                              <div>Toedieningsweg: 
<span title="inhalatie (62 - G-Standaard thesaurus subtabel 0007)">inhalatie</span>
                              </div>
                              <div>Dosering: 1 dosis</div>
                           </td>
                        </tr>
                     </tbody>
                  </table>
               </div>
            </text>
            <extension url="http://nictiz.nl/fhir/StructureDefinition/zib-Medication-PeriodOfUse">
               <valuePeriod>
                  <start value="${DATE, T, D, -100}T00:00:00+02:00"/>
                  <end value="${DATE, T, D, -59}T23:59:00+02:00"/>
               </valuePeriod>
            </extension>
            <extension url="http://nictiz.nl/fhir/StructureDefinition/zib-Medication-MedicationTreatment">
               <valueIdentifier>
                  <system value="urn:oid:2.16.840.1.113883.2.4.3.11.999.77.1.1"/>
                  <value value="MBH_313_1"/>
               </valueIdentifier>
            </extension>
            <modifierExtension url="http://nictiz.nl/fhir/StructureDefinition/zib-Medication-StopType">
               <valueCodeableConcept>
                  <coding>
                     <system value="urn:oid:2.16.840.1.113883.2.4.3.11.60.20.77.5.2.1"/>
                     <code value="2"/>
                     <display value="Definitief"/>
                  </coding>
               </valueCodeableConcept>
            </modifierExtension>
            <identifier>
               <system value="urn:oid:2.16.840.1.113883.2.4.3.11.999.77.16076005.1"/>
               <value value="MBH_313_1_MA_2"/>
            </identifier>
            <intent value="order"/>
            <category>
               <coding>
                  <system value="http://snomed.info/sct"/>
                  <code value="16076005"/>
                  <display value="Prescription (procedure)"/>
               </coding>
               <text value="Medicatieafspraak"/>
            </category>
            <medicationReference>
               <reference value="urn:oid:2.16.840.1.113883.2.4.4.10.59919"/>
               <display value="Tiotropium inhalatiecapsule 18ug"/>
            </medicationReference>
            <subject>
               <reference value="urn:uuid:47db3f28-6b04-11ec-0000-020000000000"/>
               <display value="J. XXX_Cnossen"/>
            </subject>
            <authoredOn value="${DATE, T, D, -60}T13:54:00+02:00"/>
            <requester>
               <agent>
                  <extension url="http://nictiz.nl/fhir/StructureDefinition/practitionerrole-reference">
                     <valueReference>
                        <reference value="urn:uuid:9620e560-6b5c-11ec-0000-020000000000"/>
                        <display value="John de Vries || Huisartsen, niet nader gespecificeerd || Huisartsenpraktijk Pulver &amp; Partners"/>
                     </valueReference>
                  </extension>
                  <reference value="urn:uuid:c69509a9-6a95-11ec-0000-020000000000"/>
                  <display value="John de Vries"/>
               </agent>
            </requester>
            <reasonCode>
               <coding>
                  <system value="urn:oid:2.16.840.1.113883.2.4.3.11.60.20.77.5.2.2"/>
                  <code value="8"/>
                  <display value="Toedieningsweg voldoet niet"/>
               </coding>
            </reasonCode>
            <dosageInstruction>
               <sequence value="1"/>
               <text value="Vanaf T - 100 dagen, tot en met T - 59 dagen, 1 maal per dag 1 dosis, inhalatie, definitief gestopt"/>
               <timing>
                  <repeat>
                     <frequency value="1"/>
                     <period value="1"/>
                     <periodUnit value="d"/>
                  </repeat>
               </timing>
               <route>
                  <coding>
                     <system value="urn:oid:2.16.840.1.113883.2.4.4.9"/>
                     <code value="62"/>
                     <display value="inhalatie"/>
                  </coding>
               </route>
               <doseQuantity>
                  <value value="1"/>
                  <unit value="dosis"/>
                  <system value="urn:oid:2.16.840.1.113883.2.4.4.1.900.2"/>
                  <code value="208"/>
               </doseQuantity>
            </dosageInstruction>
         </MedicationRequest>
      </resource>
      <search>
         <mode value="match"/>
      </search>
   </entry>
   <entry>
      <fullUrl value="urn:uuid:29ed6f15-6a9c-11ec-0000-020000000000"/>
      <resource>
         <MedicationRequest>
            <meta>
               <profile value="http://nictiz.nl/fhir/StructureDefinition/zib-MedicationAgreement"/>
            </meta>
            <text>
               <status value="extensions"/>
               <div xmlns="http://www.w3.org/1999/xhtml">
                  <table>
                     <caption>Medicatieafspraak. Subject: J. XXX_Cnossen. Id: MBH_313_2_MA_1 (urn:oid:2.16.840.1.113883.2.4.3.11.999.77.16076005.1), Categorie: 
<span title="Prescription (procedure) (16076005 - SNOMED CT)">Prescription (procedure)</span>, 
<span style="display: block;">Intentie: aanvraag</span>
                        <span style="display: block;">Aangevraagd door: Peter van Pulver || Huisartsen, niet nader gespecificeerd || Huisartsenpraktijk Pulver &amp; Partners</span>
                     </caption>
                     <tbody>
                        <tr>
                           <th>Medicamenteuze behandel-id</th>
                           <td>MBH_313_2 (urn:oid:2.16.840.1.113883.2.4.3.11.999.77.1.1)</td>
                        </tr>
                        <tr>
                           <th>Medicatie</th>
                           <td>Timolol/Latanoprost oogdr 5mg/50ug/ml fl 2,5ml</td>
                        </tr>
                        <tr>
                           <th>Gemaakt</th>
                           <td>${DATE, T, D, -500}T10:19:00+02:00</td>
                        </tr>
                        <tr>
                           <th>Gebruiksduur</th>
                           <td>Vanaf ${DATE, T, D, -500}T00:00:00+02:00</td>
                        </tr>
                        <tr>
                           <th>Doseerinstructie</th>
                           <td>
                              <div>Volgnummer: 1</div>
                              <div>Tekst: Vanaf T - 500 dagen, 1 maal per dag 1 druppel, in beide ogen, oculair</div>
                              <div>Instructie: 
<span title="in beide ogen (1026 - nhg-tabel-25-gebruiksvoorschrift#aanvullend-numeriek)">in beide ogen</span>
                              </div>
                              <div>Timing: 
<div>eenmalig per dag</div>
                              </div>
                              <div>Toedieningsweg: 
<span title="oculair (7 - G-Standaard thesaurus subtabel 0007)">oculair</span>
                              </div>
                              <div>Dosering: 1 druppel</div>
                           </td>
                        </tr>
                     </tbody>
                  </table>
               </div>
            </text>
            <extension url="http://nictiz.nl/fhir/StructureDefinition/zib-Medication-PeriodOfUse">
               <valuePeriod>
                  <start value="${DATE, T, D, -500}T00:00:00+02:00"/>
               </valuePeriod>
            </extension>
            <extension url="http://nictiz.nl/fhir/StructureDefinition/zib-Medication-MedicationTreatment">
               <valueIdentifier>
                  <system value="urn:oid:2.16.840.1.113883.2.4.3.11.999.77.1.1"/>
                  <value value="MBH_313_2"/>
               </valueIdentifier>
            </extension>
            <identifier>
               <system value="urn:oid:2.16.840.1.113883.2.4.3.11.999.77.16076005.1"/>
               <value value="MBH_313_2_MA_1"/>
            </identifier>
            <intent value="order"/>
            <category>
               <coding>
                  <system value="http://snomed.info/sct"/>
                  <code value="16076005"/>
                  <display value="Prescription (procedure)"/>
               </coding>
               <text value="Medicatieafspraak"/>
            </category>
            <medicationReference>
               <reference value="urn:oid:2.16.840.1.113883.2.4.4.10.60526"/>
               <display value="Timolol/Latanoprost oogdr 5mg/50ug/ml fl 2,5ml"/>
            </medicationReference>
            <subject>
               <reference value="urn:uuid:47db3f28-6b04-11ec-0000-020000000000"/>
               <display value="J. XXX_Cnossen"/>
            </subject>
            <authoredOn value="${DATE, T, D, -500}T10:19:00+02:00"/>
            <requester>
               <agent>
                  <extension url="http://nictiz.nl/fhir/StructureDefinition/practitionerrole-reference">
                     <valueReference>
                        <reference value="urn:uuid:26763470-6acf-11ec-0000-020000000000"/>
                        <display value="Peter van Pulver || Huisartsen, niet nader gespecificeerd || Huisartsenpraktijk Pulver &amp; Partners"/>
                     </valueReference>
                  </extension>
                  <reference value="urn:oid:2.16.528.1.1007.3.1.1111"/>
                  <display value="Peter van Pulver"/>
               </agent>
            </requester>
            <dosageInstruction>
               <sequence value="1"/>
               <text value="Vanaf T - 500 dagen, 1 maal per dag 1 druppel, in beide ogen, oculair"/>
               <additionalInstruction>
                  <coding>
                     <system value="https://referentiemodel.nhg.org/tabellen/nhg-tabel-25-gebruiksvoorschrift#aanvullend-numeriek"/>
                     <code value="1026"/>
                     <display value="in beide ogen"/>
                  </coding>
               </additionalInstruction>
               <timing>
                  <repeat>
                     <frequency value="1"/>
                     <period value="1"/>
                     <periodUnit value="d"/>
                  </repeat>
               </timing>
               <route>
                  <coding>
                     <system value="urn:oid:2.16.840.1.113883.2.4.4.9"/>
                     <code value="7"/>
                     <display value="oculair"/>
                  </coding>
               </route>
               <doseQuantity>
                  <value value="1"/>
                  <unit value="druppel"/>
                  <system value="urn:oid:2.16.840.1.113883.2.4.4.1.900.2"/>
                  <code value="303"/>
               </doseQuantity>
            </dosageInstruction>
         </MedicationRequest>
      </resource>
      <search>
         <mode value="match"/>
      </search>
   </entry>
   <entry>
      <fullUrl value="urn:uuid:4d43197d-6ae8-11ec-0000-020000000000"/>
      <resource>
         <MedicationRequest>
            <meta>
               <profile value="http://nictiz.nl/fhir/StructureDefinition/zib-MedicationAgreement"/>
            </meta>
            <text>
               <status value="extensions"/>
               <div xmlns="http://www.w3.org/1999/xhtml">
                  <table>
                     <caption>Medicatieafspraak. Subject: J. XXX_Cnossen. Id: MBH_313_2_MA_2 (urn:oid:2.16.840.1.113883.2.4.3.11.999.77.16076005.1), Categorie: 
<span title="Prescription (procedure) (16076005 - SNOMED CT)">Prescription (procedure)</span>, 
<span style="display: block;">Intentie: aanvraag</span>
                        <span style="display: block;">Aangevraagd door: John de Vries || Huisartsen, niet nader gespecificeerd || Huisartsenpraktijk Pulver &amp; Partners</span>
                     </caption>
                     <tbody>
                        <tr>
                           <th colspan="2">Medicatie is gestopt: 
<span title="Definitief (2 - 2.16.840.1.113883.2.4.3.11.60.20.77.5.2.1)">Definitief</span>
                           </th>
                        </tr>
                        <tr>
                           <th>Medicamenteuze behandel-id</th>
                           <td>MBH_313_2 (urn:oid:2.16.840.1.113883.2.4.3.11.999.77.1.1)</td>
                        </tr>
                        <tr>
                           <th>Medicatie</th>
                           <td>Timolol/Latanoprost oogdr 5mg/50ug/ml fl 2,5ml</td>
                        </tr>
                        <tr>
                           <th>Gemaakt</th>
                           <td>${DATE, T, D, -366}T17:54:00+02:00</td>
                        </tr>
                        <tr>
                           <th>Reden</th>
                           <td>
                              <span title="Toedieningsweg voldoet niet (8 - 2.16.840.1.113883.2.4.3.11.60.20.77.5.2.2)">Toedieningsweg voldoet niet</span>
                           </td>
                        </tr>
                        <tr>
                           <th>Gebruiksduur</th>
                           <td>${DATE, T, D, -500}T00:00:00+02:00 - ${DATE, T, D, -366}T17:00:00+02:00</td>
                        </tr>
                        <tr>
                           <th>Doseerinstructie</th>
                           <td>
                              <div>Volgnummer: 1</div>
                              <div>Tekst: Vanaf T - 500 dagen, tot en met T - 366 dagen om 17:00 uur, 1 maal per dag 1 druppel, in beide ogen, oculair, definitief gestopt</div>
                              <div>Instructie: 
<span title="in beide ogen (1026 - nhg-tabel-25-gebruiksvoorschrift#aanvullend-numeriek)">in beide ogen</span>
                              </div>
                              <div>Timing: 
<div>eenmalig per dag</div>
                              </div>
                              <div>Toedieningsweg: 
<span title="oculair (7 - G-Standaard thesaurus subtabel 0007)">oculair</span>
                              </div>
                              <div>Dosering: 1 druppel</div>
                           </td>
                        </tr>
                     </tbody>
                  </table>
               </div>
            </text>
            <extension url="http://nictiz.nl/fhir/StructureDefinition/zib-Medication-PeriodOfUse">
               <valuePeriod>
                  <start value="${DATE, T, D, -500}T00:00:00+02:00"/>
                  <end value="${DATE, T, D, -366}T17:00:00+02:00"/>
               </valuePeriod>
            </extension>
            <extension url="http://nictiz.nl/fhir/StructureDefinition/zib-Medication-MedicationTreatment">
               <valueIdentifier>
                  <system value="urn:oid:2.16.840.1.113883.2.4.3.11.999.77.1.1"/>
                  <value value="MBH_313_2"/>
               </valueIdentifier>
            </extension>
            <modifierExtension url="http://nictiz.nl/fhir/StructureDefinition/zib-Medication-StopType">
               <valueCodeableConcept>
                  <coding>
                     <system value="urn:oid:2.16.840.1.113883.2.4.3.11.60.20.77.5.2.1"/>
                     <code value="2"/>
                     <display value="Definitief"/>
                  </coding>
               </valueCodeableConcept>
            </modifierExtension>
            <identifier>
               <system value="urn:oid:2.16.840.1.113883.2.4.3.11.999.77.16076005.1"/>
               <value value="MBH_313_2_MA_2"/>
            </identifier>
            <intent value="order"/>
            <category>
               <coding>
                  <system value="http://snomed.info/sct"/>
                  <code value="16076005"/>
                  <display value="Prescription (procedure)"/>
               </coding>
               <text value="Medicatieafspraak"/>
            </category>
            <medicationReference>
               <reference value="urn:oid:2.16.840.1.113883.2.4.4.10.60526"/>
               <display value="Timolol/Latanoprost oogdr 5mg/50ug/ml fl 2,5ml"/>
            </medicationReference>
            <subject>
               <reference value="urn:uuid:47db3f28-6b04-11ec-0000-020000000000"/>
               <display value="J. XXX_Cnossen"/>
            </subject>
            <authoredOn value="${DATE, T, D, -366}T17:54:00+02:00"/>
            <requester>
               <agent>
                  <extension url="http://nictiz.nl/fhir/StructureDefinition/practitionerrole-reference">
                     <valueReference>
                        <reference value="urn:uuid:9620e560-6b5c-11ec-0000-020000000000"/>
                        <display value="John de Vries || Huisartsen, niet nader gespecificeerd || Huisartsenpraktijk Pulver &amp; Partners"/>
                     </valueReference>
                  </extension>
                  <reference value="urn:uuid:c69509a9-6a95-11ec-0000-020000000000"/>
                  <display value="John de Vries"/>
               </agent>
            </requester>
            <reasonCode>
               <coding>
                  <system value="urn:oid:2.16.840.1.113883.2.4.3.11.60.20.77.5.2.2"/>
                  <code value="8"/>
                  <display value="Toedieningsweg voldoet niet"/>
               </coding>
            </reasonCode>
            <dosageInstruction>
               <sequence value="1"/>
               <text value="Vanaf T - 500 dagen, tot en met T - 366 dagen om 17:00 uur, 1 maal per dag 1 druppel, in beide ogen, oculair, definitief gestopt"/>
               <additionalInstruction>
                  <coding>
                     <system value="https://referentiemodel.nhg.org/tabellen/nhg-tabel-25-gebruiksvoorschrift#aanvullend-numeriek"/>
                     <code value="1026"/>
                     <display value="in beide ogen"/>
                  </coding>
               </additionalInstruction>
               <timing>
                  <repeat>
                     <frequency value="1"/>
                     <period value="1"/>
                     <periodUnit value="d"/>
                  </repeat>
               </timing>
               <route>
                  <coding>
                     <system value="urn:oid:2.16.840.1.113883.2.4.4.9"/>
                     <code value="7"/>
                     <display value="oculair"/>
                  </coding>
               </route>
               <doseQuantity>
                  <value value="1"/>
                  <unit value="druppel"/>
                  <system value="urn:oid:2.16.840.1.113883.2.4.4.1.900.2"/>
                  <code value="303"/>
               </doseQuantity>
            </dosageInstruction>
         </MedicationRequest>
      </resource>
      <search>
         <mode value="match"/>
      </search>
   </entry>
   <entry>
      <fullUrl value="urn:uuid:29f2502f-6a9c-11ec-0000-020000000000"/>
      <resource>
         <MedicationRequest>
            <meta>
               <profile value="http://nictiz.nl/fhir/StructureDefinition/zib-MedicationAgreement"/>
            </meta>
            <text>
               <status value="extensions"/>
               <div xmlns="http://www.w3.org/1999/xhtml">
                  <table>
                     <caption>Medicatieafspraak. Subject: J. XXX_Cnossen. Id: MBH_313_3_MA_1 (urn:oid:2.16.840.1.113883.2.4.3.11.999.77.16076005.1), Categorie: 
<span title="Prescription (procedure) (16076005 - SNOMED CT)">Prescription (procedure)</span>, 
<span style="display: block;">Intentie: aanvraag</span>
                        <span style="display: block;">Aangevraagd door: Peter van Pulver || Huisartsen, niet nader gespecificeerd || Huisartsenpraktijk Pulver &amp; Partners</span>
                     </caption>
                     <tbody>
                        <tr>
                           <th>Medicamenteuze behandel-id</th>
                           <td>MBH_313_3 (urn:oid:2.16.840.1.113883.2.4.3.11.999.77.1.1)</td>
                        </tr>
                        <tr>
                           <th>Medicatie</th>
                           <td>CARBASALAATCALCIUM 100MG PO</td>
                        </tr>
                        <tr>
                           <th>Gemaakt</th>
                           <td>${DATE, T, D, -100}T12:11:00+02:00</td>
                        </tr>
                        <tr>
                           <th>Gebruiksduur</th>
                           <td>Vanaf ${DATE, T, D, -100}T00:00:00+02:00</td>
                        </tr>
                        <tr>
                           <th>Doseerinstructie</th>
                           <td>
                              <div>Volgnummer: 1</div>
                              <div>Tekst: Vanaf T - 100 dagen, 1 maal per dag 1 stuk, oraal</div>
                              <div>Timing: 
<div>eenmalig per dag</div>
                              </div>
                              <div>Toedieningsweg: 
<span title="oraal (9 - G-Standaard thesaurus subtabel 0007)">oraal</span>
                              </div>
                              <div>Dosering: 1 stuk</div>
                           </td>
                        </tr>
                     </tbody>
                  </table>
               </div>
            </text>
            <extension url="http://nictiz.nl/fhir/StructureDefinition/zib-Medication-PeriodOfUse">
               <valuePeriod>
                  <start value="${DATE, T, D, -100}T00:00:00+02:00"/>
               </valuePeriod>
            </extension>
            <extension url="http://nictiz.nl/fhir/StructureDefinition/zib-Medication-MedicationTreatment">
               <valueIdentifier>
                  <system value="urn:oid:2.16.840.1.113883.2.4.3.11.999.77.1.1"/>
                  <value value="MBH_313_3"/>
               </valueIdentifier>
            </extension>
            <identifier>
               <system value="urn:oid:2.16.840.1.113883.2.4.3.11.999.77.16076005.1"/>
               <value value="MBH_313_3_MA_1"/>
            </identifier>
            <intent value="order"/>
            <category>
               <coding>
                  <system value="http://snomed.info/sct"/>
                  <code value="16076005"/>
                  <display value="Prescription (procedure)"/>
               </coding>
               <text value="Medicatieafspraak"/>
            </category>
            <medicationReference>
               <reference value="urn:oid:2.16.840.1.113883.2.4.4.10.13072"/>
               <display value="CARBASALAATCALCIUM 100MG PO"/>
            </medicationReference>
            <subject>
               <reference value="urn:uuid:47db3f28-6b04-11ec-0000-020000000000"/>
               <display value="J. XXX_Cnossen"/>
            </subject>
            <authoredOn value="${DATE, T, D, -100}T12:11:00+02:00"/>
            <requester>
               <agent>
                  <extension url="http://nictiz.nl/fhir/StructureDefinition/practitionerrole-reference">
                     <valueReference>
                        <reference value="urn:uuid:26763470-6acf-11ec-0000-020000000000"/>
                        <display value="Peter van Pulver || Huisartsen, niet nader gespecificeerd || Huisartsenpraktijk Pulver &amp; Partners"/>
                     </valueReference>
                  </extension>
                  <reference value="urn:oid:2.16.528.1.1007.3.1.1111"/>
                  <display value="Peter van Pulver"/>
               </agent>
            </requester>
            <dosageInstruction>
               <sequence value="1"/>
               <text value="Vanaf T - 100 dagen, 1 maal per dag 1 stuk, oraal"/>
               <timing>
                  <repeat>
                     <frequency value="1"/>
                     <period value="1"/>
                     <periodUnit value="d"/>
                  </repeat>
               </timing>
               <route>
                  <coding>
                     <system value="urn:oid:2.16.840.1.113883.2.4.4.9"/>
                     <code value="9"/>
                     <display value="oraal"/>
                  </coding>
               </route>
               <doseQuantity>
                  <value value="1"/>
                  <unit value="stuk"/>
                  <system value="urn:oid:2.16.840.1.113883.2.4.4.1.900.2"/>
                  <code value="245"/>
               </doseQuantity>
            </dosageInstruction>
         </MedicationRequest>
      </resource>
      <search>
         <mode value="match"/>
      </search>
   </entry>
   <entry>
      <fullUrl value="urn:uuid:4d47fa97-6ae8-11ec-0000-020000000000"/>
      <resource>
         <MedicationRequest>
            <meta>
               <profile value="http://nictiz.nl/fhir/StructureDefinition/zib-MedicationAgreement"/>
            </meta>
            <text>
               <status value="extensions"/>
               <div xmlns="http://www.w3.org/1999/xhtml">
                  <table>
                     <caption>Medicatieafspraak. Subject: J. XXX_Cnossen. Id: MBH_313_3_MA_2 (urn:oid:2.16.840.1.113883.2.4.3.11.999.77.16076005.1), Categorie: 
<span title="Prescription (procedure) (16076005 - SNOMED CT)">Prescription (procedure)</span>, 
<span style="display: block;">Intentie: aanvraag</span>
                        <span style="display: block;">Aangevraagd door: John de Vries || Huisartsen, niet nader gespecificeerd || Huisartsenpraktijk Pulver &amp; Partners</span>
                     </caption>
                     <tbody>
                        <tr>
                           <th colspan="2">Medicatie is gestopt: 
<span title="Tijdelijk (1 - 2.16.840.1.113883.2.4.3.11.60.20.77.5.2.1)">Tijdelijk</span>
                           </th>
                        </tr>
                        <tr>
                           <th>Medicamenteuze behandel-id</th>
                           <td>MBH_313_3 (urn:oid:2.16.840.1.113883.2.4.3.11.999.77.1.1)</td>
                        </tr>
                        <tr>
                           <th>Medicatie</th>
                           <td>CARBASALAATCALCIUM 100MG PO</td>
                        </tr>
                        <tr>
                           <th>Gemaakt</th>
                           <td>${DATE, T, D, -4}T13:54:00+02:00</td>
                        </tr>
                        <tr>
                           <th>Gebruiksduur</th>
                           <td>${DATE, T, D, -100}T00:00:00+02:00 - ${DATE, T, D, -5}T23:59:00+02:00</td>
                        </tr>
                        <tr>
                           <th>Doseerinstructie</th>
                           <td>
                              <div>Volgnummer: 1</div>
                              <div>Tekst: Vanaf T - 100 dagen, tot en met T - 5 dagen, 1 maal per dag 1 stuk, oraal, tijdelijk gestopt</div>
                              <div>Timing: 
<div>eenmalig per dag</div>
                              </div>
                              <div>Toedieningsweg: 
<span title="oraal (9 - G-Standaard thesaurus subtabel 0007)">oraal</span>
                              </div>
                              <div>Dosering: 1 stuk</div>
                           </td>
                        </tr>
                     </tbody>
                  </table>
               </div>
            </text>
            <extension url="http://nictiz.nl/fhir/StructureDefinition/zib-Medication-PeriodOfUse">
               <valuePeriod>
                  <start value="${DATE, T, D, -100}T00:00:00+02:00"/>
                  <end value="${DATE, T, D, -5}T23:59:00+02:00"/>
               </valuePeriod>
            </extension>
            <extension url="http://nictiz.nl/fhir/StructureDefinition/zib-Medication-MedicationTreatment">
               <valueIdentifier>
                  <system value="urn:oid:2.16.840.1.113883.2.4.3.11.999.77.1.1"/>
                  <value value="MBH_313_3"/>
               </valueIdentifier>
            </extension>
            <modifierExtension url="http://nictiz.nl/fhir/StructureDefinition/zib-Medication-StopType">
               <valueCodeableConcept>
                  <coding>
                     <system value="urn:oid:2.16.840.1.113883.2.4.3.11.60.20.77.5.2.1"/>
                     <code value="1"/>
                     <display value="Tijdelijk"/>
                  </coding>
               </valueCodeableConcept>
            </modifierExtension>
            <identifier>
               <system value="urn:oid:2.16.840.1.113883.2.4.3.11.999.77.16076005.1"/>
               <value value="MBH_313_3_MA_2"/>
            </identifier>
            <intent value="order"/>
            <category>
               <coding>
                  <system value="http://snomed.info/sct"/>
                  <code value="16076005"/>
                  <display value="Prescription (procedure)"/>
               </coding>
               <text value="Medicatieafspraak"/>
            </category>
            <medicationReference>
               <reference value="urn:oid:2.16.840.1.113883.2.4.4.10.13072"/>
               <display value="CARBASALAATCALCIUM 100MG PO"/>
            </medicationReference>
            <subject>
               <reference value="urn:uuid:47db3f28-6b04-11ec-0000-020000000000"/>
               <display value="J. XXX_Cnossen"/>
            </subject>
            <authoredOn value="${DATE, T, D, -4}T13:54:00+02:00"/>
            <requester>
               <agent>
                  <extension url="http://nictiz.nl/fhir/StructureDefinition/practitionerrole-reference">
                     <valueReference>
                        <reference value="urn:uuid:9620e560-6b5c-11ec-0000-020000000000"/>
                        <display value="John de Vries || Huisartsen, niet nader gespecificeerd || Huisartsenpraktijk Pulver &amp; Partners"/>
                     </valueReference>
                  </extension>
                  <reference value="urn:uuid:c69509a9-6a95-11ec-0000-020000000000"/>
                  <display value="John de Vries"/>
               </agent>
            </requester>
            <dosageInstruction>
               <sequence value="1"/>
               <text value="Vanaf T - 100 dagen, tot en met T - 5 dagen, 1 maal per dag 1 stuk, oraal, tijdelijk gestopt"/>
               <timing>
                  <repeat>
                     <frequency value="1"/>
                     <period value="1"/>
                     <periodUnit value="d"/>
                  </repeat>
               </timing>
               <route>
                  <coding>
                     <system value="urn:oid:2.16.840.1.113883.2.4.4.9"/>
                     <code value="9"/>
                     <display value="oraal"/>
                  </coding>
               </route>
               <doseQuantity>
                  <value value="1"/>
                  <unit value="stuk"/>
                  <system value="urn:oid:2.16.840.1.113883.2.4.4.1.900.2"/>
                  <code value="245"/>
               </doseQuantity>
            </dosageInstruction>
         </MedicationRequest>
      </resource>
      <search>
         <mode value="match"/>
      </search>
   </entry>
   <entry>
      <fullUrl value="urn:uuid:29f73149-6a9c-11ec-0000-020000000000"/>
      <resource>
         <MedicationRequest>
            <meta>
               <profile value="http://nictiz.nl/fhir/StructureDefinition/zib-MedicationAgreement"/>
            </meta>
            <text>
               <status value="extensions"/>
               <div xmlns="http://www.w3.org/1999/xhtml">
                  <table>
                     <caption>Medicatieafspraak. Subject: J. XXX_Cnossen. Id: MBH_313_4_MA_1 (urn:oid:2.16.840.1.113883.2.4.3.11.999.77.16076005.1), Categorie: 
<span title="Prescription (procedure) (16076005 - SNOMED CT)">Prescription (procedure)</span>, 
<span style="display: block;">Intentie: aanvraag</span>
                        <span style="display: block;">Aangevraagd door: Peter van Pulver || Huisartsen, niet nader gespecificeerd || Huisartsenpraktijk Pulver &amp; Partners</span>
                     </caption>
                     <tbody>
                        <tr>
                           <th>Medicamenteuze behandel-id</th>
                           <td>MBH_313_4 (urn:oid:2.16.840.1.113883.2.4.3.11.999.77.1.1)</td>
                        </tr>
                        <tr>
                           <th>Medicatie</th>
                           <td>Omeprazol tablet MSR 40mg</td>
                        </tr>
                        <tr>
                           <th>Gemaakt</th>
                           <td>${DATE, T, D, -300}T14:23:00+02:00</td>
                        </tr>
                        <tr>
                           <th>Gebruiksduur</th>
                           <td>Vanaf ${DATE, T, D, -300}T00:00:00+02:00</td>
                        </tr>
                        <tr>
                           <th>Doseerinstructie</th>
                           <td>
                              <div>Volgnummer: 1</div>
                              <div>Tekst: Vanaf T - 300 dagen, 1 maal per dag 1 stuk, oraal</div>
                              <div>Timing: 
<div>eenmalig per dag</div>
                              </div>
                              <div>Toedieningsweg: 
<span title="oraal (9 - G-Standaard thesaurus subtabel 0007)">oraal</span>
                              </div>
                              <div>Dosering: 1 stuk</div>
                           </td>
                        </tr>
                     </tbody>
                  </table>
               </div>
            </text>
            <extension url="http://nictiz.nl/fhir/StructureDefinition/zib-Medication-PeriodOfUse">
               <valuePeriod>
                  <start value="${DATE, T, D, -300}T00:00:00+02:00"/>
               </valuePeriod>
            </extension>
            <extension url="http://nictiz.nl/fhir/StructureDefinition/zib-Medication-MedicationTreatment">
               <valueIdentifier>
                  <system value="urn:oid:2.16.840.1.113883.2.4.3.11.999.77.1.1"/>
                  <value value="MBH_313_4"/>
               </valueIdentifier>
            </extension>
            <identifier>
               <system value="urn:oid:2.16.840.1.113883.2.4.3.11.999.77.16076005.1"/>
               <value value="MBH_313_4_MA_1"/>
            </identifier>
            <intent value="order"/>
            <category>
               <coding>
                  <system value="http://snomed.info/sct"/>
                  <code value="16076005"/>
                  <display value="Prescription (procedure)"/>
               </coding>
               <text value="Medicatieafspraak"/>
            </category>
            <medicationReference>
               <reference value="urn:oid:2.16.840.1.113883.2.4.4.10.88803"/>
               <display value="Omeprazol tablet MSR 40mg"/>
            </medicationReference>
            <subject>
               <reference value="urn:uuid:47db3f28-6b04-11ec-0000-020000000000"/>
               <display value="J. XXX_Cnossen"/>
            </subject>
            <authoredOn value="${DATE, T, D, -300}T14:23:00+02:00"/>
            <requester>
               <agent>
                  <extension url="http://nictiz.nl/fhir/StructureDefinition/practitionerrole-reference">
                     <valueReference>
                        <reference value="urn:uuid:26763470-6acf-11ec-0000-020000000000"/>
                        <display value="Peter van Pulver || Huisartsen, niet nader gespecificeerd || Huisartsenpraktijk Pulver &amp; Partners"/>
                     </valueReference>
                  </extension>
                  <reference value="urn:oid:2.16.528.1.1007.3.1.1111"/>
                  <display value="Peter van Pulver"/>
               </agent>
            </requester>
            <dosageInstruction>
               <sequence value="1"/>
               <text value="Vanaf T - 300 dagen, 1 maal per dag 1 stuk, oraal"/>
               <timing>
                  <repeat>
                     <frequency value="1"/>
                     <period value="1"/>
                     <periodUnit value="d"/>
                  </repeat>
               </timing>
               <route>
                  <coding>
                     <system value="urn:oid:2.16.840.1.113883.2.4.4.9"/>
                     <code value="9"/>
                     <display value="oraal"/>
                  </coding>
               </route>
               <doseQuantity>
                  <value value="1"/>
                  <unit value="stuk"/>
                  <system value="urn:oid:2.16.840.1.113883.2.4.4.1.900.2"/>
                  <code value="245"/>
               </doseQuantity>
            </dosageInstruction>
         </MedicationRequest>
      </resource>
      <search>
         <mode value="match"/>
      </search>
   </entry>
   <entry>
      <fullUrl value="urn:uuid:4d4cdbb1-6ae8-11ec-0000-020000000000"/>
      <resource>
         <MedicationRequest>
            <meta>
               <profile value="http://nictiz.nl/fhir/StructureDefinition/zib-MedicationAgreement"/>
            </meta>
            <text>
               <status value="extensions"/>
               <div xmlns="http://www.w3.org/1999/xhtml">
                  <table>
                     <caption>Medicatieafspraak. Subject: J. XXX_Cnossen. Id: MBH_313_4_MA_2 (urn:oid:2.16.840.1.113883.2.4.3.11.999.77.16076005.1), Categorie: 
<span title="Prescription (procedure) (16076005 - SNOMED CT)">Prescription (procedure)</span>, 
<span style="display: block;">Intentie: aanvraag</span>
                        <span style="display: block;">Aangevraagd door: John de Vries || Huisartsen, niet nader gespecificeerd || Huisartsenpraktijk Pulver &amp; Partners</span>
                     </caption>
                     <tbody>
                        <tr>
                           <th colspan="2">Medicatie is gestopt: 
<span title="Tijdelijk (1 - 2.16.840.1.113883.2.4.3.11.60.20.77.5.2.1)">Tijdelijk</span>
                           </th>
                        </tr>
                        <tr>
                           <th>Medicamenteuze behandel-id</th>
                           <td>MBH_313_4 (urn:oid:2.16.840.1.113883.2.4.3.11.999.77.1.1)</td>
                        </tr>
                        <tr>
                           <th>Medicatie</th>
                           <td>Omeprazol tablet MSR 40mg</td>
                        </tr>
                        <tr>
                           <th>Gemaakt</th>
                           <td>${DATE, T, D, -222}T08:54:00+02:00</td>
                        </tr>
                        <tr>
                           <th>Gebruiksduur</th>
                           <td>${DATE, T, D, -300}T00:00:00+02:00 - ${DATE, T, D, -223}T23:59:00+02:00</td>
                        </tr>
                        <tr>
                           <th>Doseerinstructie</th>
                           <td>
                              <div>Volgnummer: 1</div>
                              <div>Tekst: Vanaf T - 300 dagen, tot en met T - 223 dagen, 1 maal per dag 1 stuk, oraal, tijdelijk gestopt</div>
                              <div>Timing: 
<div>eenmalig per dag</div>
                              </div>
                              <div>Toedieningsweg: 
<span title="oraal (9 - G-Standaard thesaurus subtabel 0007)">oraal</span>
                              </div>
                              <div>Dosering: 1 stuk</div>
                           </td>
                        </tr>
                     </tbody>
                  </table>
               </div>
            </text>
            <extension url="http://nictiz.nl/fhir/StructureDefinition/zib-Medication-PeriodOfUse">
               <valuePeriod>
                  <start value="${DATE, T, D, -300}T00:00:00+02:00"/>
                  <end value="${DATE, T, D, -223}T23:59:00+02:00"/>
               </valuePeriod>
            </extension>
            <extension url="http://nictiz.nl/fhir/StructureDefinition/zib-Medication-MedicationTreatment">
               <valueIdentifier>
                  <system value="urn:oid:2.16.840.1.113883.2.4.3.11.999.77.1.1"/>
                  <value value="MBH_313_4"/>
               </valueIdentifier>
            </extension>
            <modifierExtension url="http://nictiz.nl/fhir/StructureDefinition/zib-Medication-StopType">
               <valueCodeableConcept>
                  <coding>
                     <system value="urn:oid:2.16.840.1.113883.2.4.3.11.60.20.77.5.2.1"/>
                     <code value="1"/>
                     <display value="Tijdelijk"/>
                  </coding>
               </valueCodeableConcept>
            </modifierExtension>
            <identifier>
               <system value="urn:oid:2.16.840.1.113883.2.4.3.11.999.77.16076005.1"/>
               <value value="MBH_313_4_MA_2"/>
            </identifier>
            <intent value="order"/>
            <category>
               <coding>
                  <system value="http://snomed.info/sct"/>
                  <code value="16076005"/>
                  <display value="Prescription (procedure)"/>
               </coding>
               <text value="Medicatieafspraak"/>
            </category>
            <medicationReference>
               <reference value="urn:oid:2.16.840.1.113883.2.4.4.10.88803"/>
               <display value="Omeprazol tablet MSR 40mg"/>
            </medicationReference>
            <subject>
               <reference value="urn:uuid:47db3f28-6b04-11ec-0000-020000000000"/>
               <display value="J. XXX_Cnossen"/>
            </subject>
            <authoredOn value="${DATE, T, D, -222}T08:54:00+02:00"/>
            <requester>
               <agent>
                  <extension url="http://nictiz.nl/fhir/StructureDefinition/practitionerrole-reference">
                     <valueReference>
                        <reference value="urn:uuid:9620e560-6b5c-11ec-0000-020000000000"/>
                        <display value="John de Vries || Huisartsen, niet nader gespecificeerd || Huisartsenpraktijk Pulver &amp; Partners"/>
                     </valueReference>
                  </extension>
                  <reference value="urn:uuid:c69509a9-6a95-11ec-0000-020000000000"/>
                  <display value="John de Vries"/>
               </agent>
            </requester>
            <dosageInstruction>
               <sequence value="1"/>
               <text value="Vanaf T - 300 dagen, tot en met T - 223 dagen, 1 maal per dag 1 stuk, oraal, tijdelijk gestopt"/>
               <timing>
                  <repeat>
                     <frequency value="1"/>
                     <period value="1"/>
                     <periodUnit value="d"/>
                  </repeat>
               </timing>
               <route>
                  <coding>
                     <system value="urn:oid:2.16.840.1.113883.2.4.4.9"/>
                     <code value="9"/>
                     <display value="oraal"/>
                  </coding>
               </route>
               <doseQuantity>
                  <value value="1"/>
                  <unit value="stuk"/>
                  <system value="urn:oid:2.16.840.1.113883.2.4.4.1.900.2"/>
                  <code value="245"/>
               </doseQuantity>
            </dosageInstruction>
         </MedicationRequest>
      </resource>
      <search>
         <mode value="match"/>
      </search>
   </entry>
   <entry>
      <fullUrl value="urn:uuid:041637b7-6adb-11ec-0000-020000000000"/>
      <resource>
         <MedicationDispense>
            <meta>
               <profile value="http://nictiz.nl/fhir/StructureDefinition/zib-AdministrationAgreement"/>
            </meta>
            <text>
               <status value="extensions"/>
               <div xmlns="http://www.w3.org/1999/xhtml">
                  <table>
                     <caption>Toedieningsafspraak. Subject: J. XXX_Cnossen. Id: MBH_313_1_TA_1 (urn:oid:2.16.840.1.113883.2.4.3.11.999.77.422037009.1), Categorie: 
<span title="Provider medication administration instructions (procedure) (422037009 - SNOMED CT)">Provider medication administration instructions (procedure)</span>
                        <span style="display: block;">Uitvoerende: Apotheek De Gulle Gaper</span>
                     </caption>
                     <tbody>
                        <tr>
                           <th>Medicamenteuze behandel-id</th>
                           <td>MBH_313_1 (urn:oid:2.16.840.1.113883.2.4.3.11.999.77.1.1)</td>
                        </tr>
                        <tr>
                           <th>Gemaakt</th>
                           <td>${DATE, T, D, -100}T12:11:00+02:00</td>
                        </tr>
                        <tr>
                           <th>Gebaseerd op</th>
                           <td>relatie naar medicatieafspraak: MBH_313_1_MA_1 || 2.16.840.1.113883.2.4.3.11.999.77.16076005.1 (Id: MBH_313_1_MA_1 (urn:oid:2.16.840.1.113883.2.4.3.11.999.77.16076005.1))</td>
                        </tr>
                        <tr>
                           <th>Medicatie</th>
                           <td>SPIRIVA INHALPDR 18MCG</td>
                        </tr>
                        <tr>
                           <th>Gebruiksduur</th>
                           <td>Vanaf ${DATE, T, D, -100}T00:00:00+02:00</td>
                        </tr>
                        <tr>
                           <th>Doseerinstructie</th>
                           <td>
                              <div>Volgnummer: 1</div>
                              <div>Tekst: Vanaf T - 100 dagen, 1 maal per dag 1 dosis, inhalatie</div>
                              <div>Timing: 
<div>eenmalig per dag</div>
                              </div>
                              <div>Toedieningsweg: 
<span title="inhalatie (62 - G-Standaard thesaurus subtabel 0007)">inhalatie</span>
                              </div>
                              <div>Dosering: 1 dosis</div>
                           </td>
                        </tr>
                     </tbody>
                  </table>
               </div>
            </text>
            <extension url="http://nictiz.nl/fhir/StructureDefinition/zib-AdministrationAgreement-AuthoredOn">
               <valueDateTime value="${DATE, T, D, -100}T12:11:00+02:00"/>
            </extension>
            <extension url="http://nictiz.nl/fhir/StructureDefinition/zib-Medication-PeriodOfUse">
               <valuePeriod>
                  <start value="${DATE, T, D, -100}T00:00:00+02:00"/>
               </valuePeriod>
            </extension>
            <extension url="http://nictiz.nl/fhir/StructureDefinition/zib-Medication-MedicationTreatment">
               <valueIdentifier>
                  <system value="urn:oid:2.16.840.1.113883.2.4.3.11.999.77.1.1"/>
                  <value value="MBH_313_1"/>
               </valueIdentifier>
            </extension>
            <identifier>
               <system value="urn:oid:2.16.840.1.113883.2.4.3.11.999.77.422037009.1"/>
               <value value="MBH_313_1_TA_1"/>
            </identifier>
            <category>
               <coding>
                  <system value="http://snomed.info/sct"/>
                  <code value="422037009"/>
                  <display value="Provider medication administration instructions (procedure)"/>
               </coding>
               <text value="Toedieningsafspraak"/>
            </category>
            <medicationReference>
               <reference value="urn:oid:2.16.840.1.113883.2.4.4.7.1476866"/>
               <display value="SPIRIVA INHALPDR 18MCG"/>
            </medicationReference>
            <subject>
               <reference value="urn:uuid:47db3f28-6b04-11ec-0000-020000000000"/>
               <display value="J. XXX_Cnossen"/>
            </subject>
            <performer>
               <actor>
                  <reference value="urn:oid:2.16.528.1.1007.3.3.1236578"/>
                  <display value="Apotheek De Gulle Gaper"/>
               </actor>
            </performer>
            <authorizingPrescription>
               <identifier>
                  <system value="urn:oid:2.16.840.1.113883.2.4.3.11.999.77.16076005.1"/>
                  <value value="MBH_313_1_MA_1"/>
               </identifier>
               <display value="relatie naar medicatieafspraak: MBH_313_1_MA_1 || 2.16.840.1.113883.2.4.3.11.999.77.16076005.1"/>
            </authorizingPrescription>
            <dosageInstruction>
               <sequence value="1"/>
               <text value="Vanaf T - 100 dagen, 1 maal per dag 1 dosis, inhalatie"/>
               <timing>
                  <repeat>
                     <frequency value="1"/>
                     <period value="1"/>
                     <periodUnit value="d"/>
                  </repeat>
               </timing>
               <route>
                  <coding>
                     <system value="urn:oid:2.16.840.1.113883.2.4.4.9"/>
                     <code value="62"/>
                     <display value="inhalatie"/>
                  </coding>
               </route>
               <doseQuantity>
                  <value value="1"/>
                  <unit value="dosis"/>
                  <system value="urn:oid:2.16.840.1.113883.2.4.4.1.900.2"/>
                  <code value="208"/>
               </doseQuantity>
            </dosageInstruction>
         </MedicationDispense>
      </resource>
      <search>
         <mode value="match"/>
      </search>
   </entry>
   <entry>
      <fullUrl value="urn:uuid:04c1acff-6adb-11ec-0000-020000000000"/>
      <resource>
         <MedicationDispense>
            <meta>
               <profile value="http://nictiz.nl/fhir/StructureDefinition/zib-AdministrationAgreement"/>
            </meta>
            <text>
               <status value="extensions"/>
               <div xmlns="http://www.w3.org/1999/xhtml">
                  <table>
                     <caption>Toedieningsafspraak. Subject: J. XXX_Cnossen. Id: MBH_313_1_TA_2 (urn:oid:2.16.840.1.113883.2.4.3.11.999.77.422037009.1), Categorie: 
<span title="Provider medication administration instructions (procedure) (422037009 - SNOMED CT)">Provider medication administration instructions (procedure)</span>
                        <span style="display: block;">Uitvoerende: Apotheek De Gulle Gaper</span>
                     </caption>
                     <tbody>
                        <tr>
                           <th colspan="2">Medicatie is gestopt: 
<span title="Definitief (2 - 2.16.840.1.113883.2.4.3.11.60.20.77.5.2.1)">Definitief</span>
                           </th>
                        </tr>
                        <tr>
                           <th>Medicamenteuze behandel-id</th>
                           <td>MBH_313_1 (urn:oid:2.16.840.1.113883.2.4.3.11.999.77.1.1)</td>
                        </tr>
                        <tr>
                           <th>Gemaakt</th>
                           <td>${DATE, T, D, -60}T13:54:00+02:00</td>
                        </tr>
                        <tr>
                           <th>Gebaseerd op</th>
                           <td>relatie naar medicatieafspraak: MBH_313_1_MA_2 || 2.16.840.1.113883.2.4.3.11.999.77.16076005.1 (Id: MBH_313_1_MA_2 (urn:oid:2.16.840.1.113883.2.4.3.11.999.77.16076005.1))</td>
                        </tr>
                        <tr>
                           <th>Medicatie</th>
                           <td>SPIRIVA INHALPDR 18MCG</td>
                        </tr>
                        <tr>
                           <th>Gebruiksduur</th>
                           <td>${DATE, T, D, -100}T00:00:00+02:00 - ${DATE, T, D, -59}T23:59:00+02:00</td>
                        </tr>
                        <tr>
                           <th>Doseerinstructie</th>
                           <td>
                              <div>Volgnummer: 1</div>
                              <div>Tekst: Vanaf T - 100 dagen, tot en met T - 59 dagen, 1 maal per dag 1 dosis, inhalatie, definitief gestopt</div>
                              <div>Timing: 
<div>eenmalig per dag</div>
                              </div>
                              <div>Toedieningsweg: 
<span title="inhalatie (62 - G-Standaard thesaurus subtabel 0007)">inhalatie</span>
                              </div>
                              <div>Dosering: 1 dosis</div>
                           </td>
                        </tr>
                     </tbody>
                  </table>
               </div>
            </text>
            <extension url="http://nictiz.nl/fhir/StructureDefinition/zib-AdministrationAgreement-AuthoredOn">
               <valueDateTime value="${DATE, T, D, -60}T13:54:00+02:00"/>
            </extension>
            <extension url="http://nictiz.nl/fhir/StructureDefinition/zib-Medication-PeriodOfUse">
               <valuePeriod>
                  <start value="${DATE, T, D, -100}T00:00:00+02:00"/>
                  <end value="${DATE, T, D, -59}T23:59:00+02:00"/>
               </valuePeriod>
            </extension>
            <extension url="http://nictiz.nl/fhir/StructureDefinition/zib-Medication-MedicationTreatment">
               <valueIdentifier>
                  <system value="urn:oid:2.16.840.1.113883.2.4.3.11.999.77.1.1"/>
                  <value value="MBH_313_1"/>
               </valueIdentifier>
            </extension>
            <modifierExtension url="http://nictiz.nl/fhir/StructureDefinition/zib-Medication-StopType">
               <valueCodeableConcept>
                  <coding>
                     <system value="urn:oid:2.16.840.1.113883.2.4.3.11.60.20.77.5.2.1"/>
                     <code value="2"/>
                     <display value="Definitief"/>
                  </coding>
               </valueCodeableConcept>
            </modifierExtension>
            <identifier>
               <system value="urn:oid:2.16.840.1.113883.2.4.3.11.999.77.422037009.1"/>
               <value value="MBH_313_1_TA_2"/>
            </identifier>
            <category>
               <coding>
                  <system value="http://snomed.info/sct"/>
                  <code value="422037009"/>
                  <display value="Provider medication administration instructions (procedure)"/>
               </coding>
               <text value="Toedieningsafspraak"/>
            </category>
            <medicationReference>
               <reference value="urn:oid:2.16.840.1.113883.2.4.4.7.1476866"/>
               <display value="SPIRIVA INHALPDR 18MCG"/>
            </medicationReference>
            <subject>
               <reference value="urn:uuid:47db3f28-6b04-11ec-0000-020000000000"/>
               <display value="J. XXX_Cnossen"/>
            </subject>
            <performer>
               <actor>
                  <reference value="urn:oid:2.16.528.1.1007.3.3.1236578"/>
                  <display value="Apotheek De Gulle Gaper"/>
               </actor>
            </performer>
            <authorizingPrescription>
               <identifier>
                  <system value="urn:oid:2.16.840.1.113883.2.4.3.11.999.77.16076005.1"/>
                  <value value="MBH_313_1_MA_2"/>
               </identifier>
               <display value="relatie naar medicatieafspraak: MBH_313_1_MA_2 || 2.16.840.1.113883.2.4.3.11.999.77.16076005.1"/>
            </authorizingPrescription>
            <dosageInstruction>
               <sequence value="1"/>
               <text value="Vanaf T - 100 dagen, tot en met T - 59 dagen, 1 maal per dag 1 dosis, inhalatie, definitief gestopt"/>
               <timing>
                  <repeat>
                     <frequency value="1"/>
                     <period value="1"/>
                     <periodUnit value="d"/>
                  </repeat>
               </timing>
               <route>
                  <coding>
                     <system value="urn:oid:2.16.840.1.113883.2.4.4.9"/>
                     <code value="62"/>
                     <display value="inhalatie"/>
                  </coding>
               </route>
               <doseQuantity>
                  <value value="1"/>
                  <unit value="dosis"/>
                  <system value="urn:oid:2.16.840.1.113883.2.4.4.1.900.2"/>
                  <code value="208"/>
               </doseQuantity>
            </dosageInstruction>
         </MedicationDispense>
      </resource>
      <search>
         <mode value="match"/>
      </search>
   </entry>
   <entry>
      <fullUrl value="urn:uuid:2ca2a03f-6ace-11ec-0000-020000000000"/>
      <resource>
         <MedicationDispense>
            <meta>
               <profile value="http://nictiz.nl/fhir/StructureDefinition/zib-AdministrationAgreement"/>
            </meta>
            <text>
               <status value="extensions"/>
               <div xmlns="http://www.w3.org/1999/xhtml">
                  <table>
                     <caption>Toedieningsafspraak. Subject: J. XXX_Cnossen. Id: MBH_313_2_TA_1 (urn:oid:2.16.840.1.113883.2.4.3.11.999.77.422037009.1), Categorie: 
<span title="Provider medication administration instructions (procedure) (422037009 - SNOMED CT)">Provider medication administration instructions (procedure)</span>
                        <span style="display: block;">Uitvoerende: Apotheek De Gulle Gaper</span>
                     </caption>
                     <tbody>
                        <tr>
                           <th>Medicamenteuze behandel-id</th>
                           <td>MBH_313_2 (urn:oid:2.16.840.1.113883.2.4.3.11.999.77.1.1)</td>
                        </tr>
                        <tr>
                           <th>Gemaakt</th>
                           <td>${DATE, T, D, -500}T10:19:00+02:00</td>
                        </tr>
                        <tr>
                           <th>Gebaseerd op</th>
                           <td>relatie naar medicatieafspraak: MBH_313_2_MA_1 || 2.16.840.1.113883.2.4.3.11.999.77.16076005.1 (Id: MBH_313_2_MA_1 (urn:oid:2.16.840.1.113883.2.4.3.11.999.77.16076005.1))</td>
                        </tr>
                        <tr>
                           <th>Medicatie</th>
                           <td>LATANOPROST/TIMOLOL SDZ OOGDR 0,05/5MG/ML FL 2,5ML</td>
                        </tr>
                        <tr>
                           <th>Gebruiksduur</th>
                           <td>Vanaf ${DATE, T, D, -500}T00:00:00+02:00</td>
                        </tr>
                        <tr>
                           <th>Doseerinstructie</th>
                           <td>
                              <div>Volgnummer: 1</div>
                              <div>Tekst: Vanaf T - 500 dagen, 1 maal per dag 1 druppel, in beide ogen, oculair</div>
                              <div>Instructie: 
<span title="in beide ogen (1026 - nhg-tabel-25-gebruiksvoorschrift#aanvullend-numeriek)">in beide ogen</span>
                              </div>
                              <div>Timing: 
<div>eenmalig per dag</div>
                              </div>
                              <div>Toedieningsweg: 
<span title="oculair (7 - G-Standaard thesaurus subtabel 0007)">oculair</span>
                              </div>
                              <div>Dosering: 1 druppel</div>
                           </td>
                        </tr>
                     </tbody>
                  </table>
               </div>
            </text>
            <extension url="http://nictiz.nl/fhir/StructureDefinition/zib-AdministrationAgreement-AuthoredOn">
               <valueDateTime value="${DATE, T, D, -500}T10:19:00+02:00"/>
            </extension>
            <extension url="http://nictiz.nl/fhir/StructureDefinition/zib-Medication-PeriodOfUse">
               <valuePeriod>
                  <start value="${DATE, T, D, -500}T00:00:00+02:00"/>
               </valuePeriod>
            </extension>
            <extension url="http://nictiz.nl/fhir/StructureDefinition/zib-Medication-MedicationTreatment">
               <valueIdentifier>
                  <system value="urn:oid:2.16.840.1.113883.2.4.3.11.999.77.1.1"/>
                  <value value="MBH_313_2"/>
               </valueIdentifier>
            </extension>
            <identifier>
               <system value="urn:oid:2.16.840.1.113883.2.4.3.11.999.77.422037009.1"/>
               <value value="MBH_313_2_TA_1"/>
            </identifier>
            <category>
               <coding>
                  <system value="http://snomed.info/sct"/>
                  <code value="422037009"/>
                  <display value="Provider medication administration instructions (procedure)"/>
               </coding>
               <text value="Toedieningsafspraak"/>
            </category>
            <medicationReference>
               <reference value="urn:oid:2.16.840.1.113883.2.4.4.7.2226294"/>
               <display value="LATANOPROST/TIMOLOL SDZ OOGDR 0,05/5MG/ML FL 2,5ML"/>
            </medicationReference>
            <subject>
               <reference value="urn:uuid:47db3f28-6b04-11ec-0000-020000000000"/>
               <display value="J. XXX_Cnossen"/>
            </subject>
            <performer>
               <actor>
                  <reference value="urn:oid:2.16.528.1.1007.3.3.1236578"/>
                  <display value="Apotheek De Gulle Gaper"/>
               </actor>
            </performer>
            <authorizingPrescription>
               <identifier>
                  <system value="urn:oid:2.16.840.1.113883.2.4.3.11.999.77.16076005.1"/>
                  <value value="MBH_313_2_MA_1"/>
               </identifier>
               <display value="relatie naar medicatieafspraak: MBH_313_2_MA_1 || 2.16.840.1.113883.2.4.3.11.999.77.16076005.1"/>
            </authorizingPrescription>
            <dosageInstruction>
               <sequence value="1"/>
               <text value="Vanaf T - 500 dagen, 1 maal per dag 1 druppel, in beide ogen, oculair"/>
               <additionalInstruction>
                  <coding>
                     <system value="https://referentiemodel.nhg.org/tabellen/nhg-tabel-25-gebruiksvoorschrift#aanvullend-numeriek"/>
                     <code value="1026"/>
                     <display value="in beide ogen"/>
                  </coding>
               </additionalInstruction>
               <timing>
                  <repeat>
                     <frequency value="1"/>
                     <period value="1"/>
                     <periodUnit value="d"/>
                  </repeat>
               </timing>
               <route>
                  <coding>
                     <system value="urn:oid:2.16.840.1.113883.2.4.4.9"/>
                     <code value="7"/>
                     <display value="oculair"/>
                  </coding>
               </route>
               <doseQuantity>
                  <value value="1"/>
                  <unit value="druppel"/>
                  <system value="urn:oid:2.16.840.1.113883.2.4.4.1.900.2"/>
                  <code value="303"/>
               </doseQuantity>
            </dosageInstruction>
         </MedicationDispense>
      </resource>
      <search>
         <mode value="match"/>
      </search>
   </entry>
   <entry>
      <fullUrl value="urn:uuid:2d51954f-6ace-11ec-0000-020000000000"/>
      <resource>
         <MedicationDispense>
            <meta>
               <profile value="http://nictiz.nl/fhir/StructureDefinition/zib-AdministrationAgreement"/>
            </meta>
            <text>
               <status value="extensions"/>
               <div xmlns="http://www.w3.org/1999/xhtml">
                  <table>
                     <caption>Toedieningsafspraak. Subject: J. XXX_Cnossen. Id: MBH_313_2_TA_2 (urn:oid:2.16.840.1.113883.2.4.3.11.999.77.422037009.1), Categorie: 
<span title="Provider medication administration instructions (procedure) (422037009 - SNOMED CT)">Provider medication administration instructions (procedure)</span>
                        <span style="display: block;">Uitvoerende: Apotheek De Gulle Gaper</span>
                     </caption>
                     <tbody>
                        <tr>
                           <th colspan="2">Medicatie is gestopt: 
<span title="Definitief (2 - 2.16.840.1.113883.2.4.3.11.60.20.77.5.2.1)">Definitief</span>
                           </th>
                        </tr>
                        <tr>
                           <th>Medicamenteuze behandel-id</th>
                           <td>MBH_313_2 (urn:oid:2.16.840.1.113883.2.4.3.11.999.77.1.1)</td>
                        </tr>
                        <tr>
                           <th>Gemaakt</th>
                           <td>${DATE, T, D, -366}T17:54:00+02:00</td>
                        </tr>
                        <tr>
                           <th>Gebaseerd op</th>
                           <td>relatie naar medicatieafspraak: MBH_313_2_MA_2 || 2.16.840.1.113883.2.4.3.11.999.77.16076005.1 (Id: MBH_313_2_MA_2 (urn:oid:2.16.840.1.113883.2.4.3.11.999.77.16076005.1))</td>
                        </tr>
                        <tr>
                           <th>Medicatie</th>
                           <td>LATANOPROST/TIMOLOL SDZ OOGDR 0,05/5MG/ML FL 2,5ML</td>
                        </tr>
                        <tr>
                           <th>Gebruiksduur</th>
                           <td>${DATE, T, D, -500}T00:00:00+02:00 - ${DATE, T, D, -366}T17:00:00+02:00</td>
                        </tr>
                        <tr>
                           <th>Doseerinstructie</th>
                           <td>
                              <div>Volgnummer: 1</div>
                              <div>Tekst: Vanaf T - 500 dagen, tot en met T - 366 dagen om 17:00 uur, 1 maal per dag 1 druppel, in beide ogen, oculair, definitief gestopt</div>
                              <div>Instructie: 
<span title="in beide ogen (1026 - nhg-tabel-25-gebruiksvoorschrift#aanvullend-numeriek)">in beide ogen</span>
                              </div>
                              <div>Timing: 
<div>eenmalig per dag</div>
                              </div>
                              <div>Toedieningsweg: 
<span title="oculair (7 - G-Standaard thesaurus subtabel 0007)">oculair</span>
                              </div>
                              <div>Dosering: 1 druppel</div>
                           </td>
                        </tr>
                     </tbody>
                  </table>
               </div>
            </text>
            <extension url="http://nictiz.nl/fhir/StructureDefinition/zib-AdministrationAgreement-AuthoredOn">
               <valueDateTime value="${DATE, T, D, -366}T17:54:00+02:00"/>
            </extension>
            <extension url="http://nictiz.nl/fhir/StructureDefinition/zib-Medication-PeriodOfUse">
               <valuePeriod>
                  <start value="${DATE, T, D, -500}T00:00:00+02:00"/>
                  <end value="${DATE, T, D, -366}T17:00:00+02:00"/>
               </valuePeriod>
            </extension>
            <extension url="http://nictiz.nl/fhir/StructureDefinition/zib-Medication-MedicationTreatment">
               <valueIdentifier>
                  <system value="urn:oid:2.16.840.1.113883.2.4.3.11.999.77.1.1"/>
                  <value value="MBH_313_2"/>
               </valueIdentifier>
            </extension>
            <modifierExtension url="http://nictiz.nl/fhir/StructureDefinition/zib-Medication-StopType">
               <valueCodeableConcept>
                  <coding>
                     <system value="urn:oid:2.16.840.1.113883.2.4.3.11.60.20.77.5.2.1"/>
                     <code value="2"/>
                     <display value="Definitief"/>
                  </coding>
               </valueCodeableConcept>
            </modifierExtension>
            <identifier>
               <system value="urn:oid:2.16.840.1.113883.2.4.3.11.999.77.422037009.1"/>
               <value value="MBH_313_2_TA_2"/>
            </identifier>
            <category>
               <coding>
                  <system value="http://snomed.info/sct"/>
                  <code value="422037009"/>
                  <display value="Provider medication administration instructions (procedure)"/>
               </coding>
               <text value="Toedieningsafspraak"/>
            </category>
            <medicationReference>
               <reference value="urn:oid:2.16.840.1.113883.2.4.4.7.2226294"/>
               <display value="LATANOPROST/TIMOLOL SDZ OOGDR 0,05/5MG/ML FL 2,5ML"/>
            </medicationReference>
            <subject>
               <reference value="urn:uuid:47db3f28-6b04-11ec-0000-020000000000"/>
               <display value="J. XXX_Cnossen"/>
            </subject>
            <performer>
               <actor>
                  <reference value="urn:oid:2.16.528.1.1007.3.3.1236578"/>
                  <display value="Apotheek De Gulle Gaper"/>
               </actor>
            </performer>
            <authorizingPrescription>
               <identifier>
                  <system value="urn:oid:2.16.840.1.113883.2.4.3.11.999.77.16076005.1"/>
                  <value value="MBH_313_2_MA_2"/>
               </identifier>
               <display value="relatie naar medicatieafspraak: MBH_313_2_MA_2 || 2.16.840.1.113883.2.4.3.11.999.77.16076005.1"/>
            </authorizingPrescription>
            <dosageInstruction>
               <sequence value="1"/>
               <text value="Vanaf T - 500 dagen, tot en met T - 366 dagen om 17:00 uur, 1 maal per dag 1 druppel, in beide ogen, oculair, definitief gestopt"/>
               <additionalInstruction>
                  <coding>
                     <system value="https://referentiemodel.nhg.org/tabellen/nhg-tabel-25-gebruiksvoorschrift#aanvullend-numeriek"/>
                     <code value="1026"/>
                     <display value="in beide ogen"/>
                  </coding>
               </additionalInstruction>
               <timing>
                  <repeat>
                     <frequency value="1"/>
                     <period value="1"/>
                     <periodUnit value="d"/>
                  </repeat>
               </timing>
               <route>
                  <coding>
                     <system value="urn:oid:2.16.840.1.113883.2.4.4.9"/>
                     <code value="7"/>
                     <display value="oculair"/>
                  </coding>
               </route>
               <doseQuantity>
                  <value value="1"/>
                  <unit value="druppel"/>
                  <system value="urn:oid:2.16.840.1.113883.2.4.4.1.900.2"/>
                  <code value="303"/>
               </doseQuantity>
            </dosageInstruction>
         </MedicationDispense>
      </resource>
      <search>
         <mode value="match"/>
      </search>
   </entry>
   <entry>
      <fullUrl value="urn:uuid:552f08c7-6ac1-11ec-0000-020000000000"/>
      <resource>
         <MedicationDispense>
            <meta>
               <profile value="http://nictiz.nl/fhir/StructureDefinition/zib-AdministrationAgreement"/>
            </meta>
            <text>
               <status value="extensions"/>
               <div xmlns="http://www.w3.org/1999/xhtml">
                  <table>
                     <caption>Toedieningsafspraak. Subject: J. XXX_Cnossen. Id: MBH_313_3_TA_1 (urn:oid:2.16.840.1.113883.2.4.3.11.999.77.422037009.1), Categorie: 
<span title="Provider medication administration instructions (procedure) (422037009 - SNOMED CT)">Provider medication administration instructions (procedure)</span>
                        <span style="display: block;">Uitvoerende: Apotheek De Gulle Gaper</span>
                     </caption>
                     <tbody>
                        <tr>
                           <th>Medicamenteuze behandel-id</th>
                           <td>MBH_313_3 (urn:oid:2.16.840.1.113883.2.4.3.11.999.77.1.1)</td>
                        </tr>
                        <tr>
                           <th>Gemaakt</th>
                           <td>${DATE, T, D, -100}T12:30:00+02:00</td>
                        </tr>
                        <tr>
                           <th>Gebaseerd op</th>
                           <td>relatie naar medicatieafspraak: MBH_313_3_MA_1 || 2.16.840.1.113883.2.4.3.11.999.77.16076005.1 (Id: MBH_313_3_MA_1 (urn:oid:2.16.840.1.113883.2.4.3.11.999.77.16076005.1))</td>
                        </tr>
                        <tr>
                           <th>Medicatie</th>
                           <td>CARBASALAATCALCIUM CF SACHET 100MG</td>
                        </tr>
                        <tr>
                           <th>Gebruiksduur</th>
                           <td>Vanaf ${DATE, T, D, -100}T00:00:00+02:00</td>
                        </tr>
                        <tr>
                           <th>Doseerinstructie</th>
                           <td>
                              <div>Volgnummer: 1</div>
                              <div>Tekst: Vanaf T - 100 dagen, 1 maal per dag 1 stuk, oraal</div>
                              <div>Timing: 
<div>eenmalig per dag</div>
                              </div>
                              <div>Toedieningsweg: 
<span title="oraal (9 - G-Standaard thesaurus subtabel 0007)">oraal</span>
                              </div>
                              <div>Dosering: 1 stuk</div>
                           </td>
                        </tr>
                     </tbody>
                  </table>
               </div>
            </text>
            <extension url="http://nictiz.nl/fhir/StructureDefinition/zib-AdministrationAgreement-AuthoredOn">
               <valueDateTime value="${DATE, T, D, -100}T12:30:00+02:00"/>
            </extension>
            <extension url="http://nictiz.nl/fhir/StructureDefinition/zib-Medication-PeriodOfUse">
               <valuePeriod>
                  <start value="${DATE, T, D, -100}T00:00:00+02:00"/>
               </valuePeriod>
            </extension>
            <extension url="http://nictiz.nl/fhir/StructureDefinition/zib-Medication-MedicationTreatment">
               <valueIdentifier>
                  <system value="urn:oid:2.16.840.1.113883.2.4.3.11.999.77.1.1"/>
                  <value value="MBH_313_3"/>
               </valueIdentifier>
            </extension>
            <identifier>
               <system value="urn:oid:2.16.840.1.113883.2.4.3.11.999.77.422037009.1"/>
               <value value="MBH_313_3_TA_1"/>
            </identifier>
            <category>
               <coding>
                  <system value="http://snomed.info/sct"/>
                  <code value="422037009"/>
                  <display value="Provider medication administration instructions (procedure)"/>
               </coding>
               <text value="Toedieningsafspraak"/>
            </category>
            <medicationReference>
               <reference value="urn:oid:2.16.840.1.113883.2.4.4.7.1113534"/>
               <display value="CARBASALAATCALCIUM CF SACHET 100MG"/>
            </medicationReference>
            <subject>
               <reference value="urn:uuid:47db3f28-6b04-11ec-0000-020000000000"/>
               <display value="J. XXX_Cnossen"/>
            </subject>
            <performer>
               <actor>
                  <reference value="urn:oid:2.16.528.1.1007.3.3.1236578"/>
                  <display value="Apotheek De Gulle Gaper"/>
               </actor>
            </performer>
            <authorizingPrescription>
               <identifier>
                  <system value="urn:oid:2.16.840.1.113883.2.4.3.11.999.77.16076005.1"/>
                  <value value="MBH_313_3_MA_1"/>
               </identifier>
               <display value="relatie naar medicatieafspraak: MBH_313_3_MA_1 || 2.16.840.1.113883.2.4.3.11.999.77.16076005.1"/>
            </authorizingPrescription>
            <dosageInstruction>
               <sequence value="1"/>
               <text value="Vanaf T - 100 dagen, 1 maal per dag 1 stuk, oraal"/>
               <timing>
                  <repeat>
                     <frequency value="1"/>
                     <period value="1"/>
                     <periodUnit value="d"/>
                  </repeat>
               </timing>
               <route>
                  <coding>
                     <system value="urn:oid:2.16.840.1.113883.2.4.4.9"/>
                     <code value="9"/>
                     <display value="oraal"/>
                  </coding>
               </route>
               <doseQuantity>
                  <value value="1"/>
                  <unit value="stuk"/>
                  <system value="urn:oid:2.16.840.1.113883.2.4.4.1.900.2"/>
                  <code value="245"/>
               </doseQuantity>
            </dosageInstruction>
         </MedicationDispense>
      </resource>
      <search>
         <mode value="match"/>
      </search>
   </entry>
   <entry>
      <fullUrl value="urn:uuid:55e17d9f-6ac1-11ec-0000-020000000000"/>
      <resource>
         <MedicationDispense>
            <meta>
               <profile value="http://nictiz.nl/fhir/StructureDefinition/zib-AdministrationAgreement"/>
            </meta>
            <text>
               <status value="extensions"/>
               <div xmlns="http://www.w3.org/1999/xhtml">
                  <table>
                     <caption>Toedieningsafspraak. Subject: J. XXX_Cnossen. Id: MBH_313_3_TA_2 (urn:oid:2.16.840.1.113883.2.4.3.11.999.77.422037009.1), Categorie: 
<span title="Provider medication administration instructions (procedure) (422037009 - SNOMED CT)">Provider medication administration instructions (procedure)</span>
                        <span style="display: block;">Uitvoerende: Apotheek De Gulle Gaper</span>
                     </caption>
                     <tbody>
                        <tr>
                           <th colspan="2">Medicatie is gestopt: 
<span title="Tijdelijk (1 - 2.16.840.1.113883.2.4.3.11.60.20.77.5.2.1)">Tijdelijk</span>
                           </th>
                        </tr>
                        <tr>
                           <th>Medicamenteuze behandel-id</th>
                           <td>MBH_313_3 (urn:oid:2.16.840.1.113883.2.4.3.11.999.77.1.1)</td>
                        </tr>
                        <tr>
                           <th>Gemaakt</th>
                           <td>${DATE, T, D, -4}T14:54:00+02:00</td>
                        </tr>
                        <tr>
                           <th>Gebaseerd op</th>
                           <td>relatie naar medicatieafspraak: MBH_313_3_MA_2 || 2.16.840.1.113883.2.4.3.11.999.77.16076005.1 (Id: MBH_313_3_MA_2 (urn:oid:2.16.840.1.113883.2.4.3.11.999.77.16076005.1))</td>
                        </tr>
                        <tr>
                           <th>Medicatie</th>
                           <td>CARBASALAATCALCIUM CF SACHET 100MG</td>
                        </tr>
                        <tr>
                           <th>Gebruiksduur</th>
                           <td>${DATE, T, D, -100}T00:00:00+02:00 - ${DATE, T, D, -5}T23:59:00+02:00</td>
                        </tr>
                        <tr>
                           <th>Doseerinstructie</th>
                           <td>
                              <div>Volgnummer: 1</div>
                              <div>Tekst: Vanaf T - 100 dagen, tot en met T - 5 dagen, 1 maal per dag 1 stuk, oraal, tijdelijk gestopt</div>
                              <div>Timing: 
<div>eenmalig per dag</div>
                              </div>
                              <div>Toedieningsweg: 
<span title="oraal (9 - G-Standaard thesaurus subtabel 0007)">oraal</span>
                              </div>
                              <div>Dosering: 1 stuk</div>
                           </td>
                        </tr>
                     </tbody>
                  </table>
               </div>
            </text>
            <extension url="http://nictiz.nl/fhir/StructureDefinition/zib-AdministrationAgreement-AuthoredOn">
               <valueDateTime value="${DATE, T, D, -4}T14:54:00+02:00"/>
            </extension>
            <extension url="http://nictiz.nl/fhir/StructureDefinition/zib-Medication-PeriodOfUse">
               <valuePeriod>
                  <start value="${DATE, T, D, -100}T00:00:00+02:00"/>
                  <end value="${DATE, T, D, -5}T23:59:00+02:00"/>
               </valuePeriod>
            </extension>
            <extension url="http://nictiz.nl/fhir/StructureDefinition/zib-Medication-MedicationTreatment">
               <valueIdentifier>
                  <system value="urn:oid:2.16.840.1.113883.2.4.3.11.999.77.1.1"/>
                  <value value="MBH_313_3"/>
               </valueIdentifier>
            </extension>
            <modifierExtension url="http://nictiz.nl/fhir/StructureDefinition/zib-Medication-StopType">
               <valueCodeableConcept>
                  <coding>
                     <system value="urn:oid:2.16.840.1.113883.2.4.3.11.60.20.77.5.2.1"/>
                     <code value="1"/>
                     <display value="Tijdelijk"/>
                  </coding>
               </valueCodeableConcept>
            </modifierExtension>
            <identifier>
               <system value="urn:oid:2.16.840.1.113883.2.4.3.11.999.77.422037009.1"/>
               <value value="MBH_313_3_TA_2"/>
            </identifier>
            <category>
               <coding>
                  <system value="http://snomed.info/sct"/>
                  <code value="422037009"/>
                  <display value="Provider medication administration instructions (procedure)"/>
               </coding>
               <text value="Toedieningsafspraak"/>
            </category>
            <medicationReference>
               <reference value="urn:oid:2.16.840.1.113883.2.4.4.7.1113534"/>
               <display value="CARBASALAATCALCIUM CF SACHET 100MG"/>
            </medicationReference>
            <subject>
               <reference value="urn:uuid:47db3f28-6b04-11ec-0000-020000000000"/>
               <display value="J. XXX_Cnossen"/>
            </subject>
            <performer>
               <actor>
                  <reference value="urn:oid:2.16.528.1.1007.3.3.1236578"/>
                  <display value="Apotheek De Gulle Gaper"/>
               </actor>
            </performer>
            <authorizingPrescription>
               <identifier>
                  <system value="urn:oid:2.16.840.1.113883.2.4.3.11.999.77.16076005.1"/>
                  <value value="MBH_313_3_MA_2"/>
               </identifier>
               <display value="relatie naar medicatieafspraak: MBH_313_3_MA_2 || 2.16.840.1.113883.2.4.3.11.999.77.16076005.1"/>
            </authorizingPrescription>
            <dosageInstruction>
               <sequence value="1"/>
               <text value="Vanaf T - 100 dagen, tot en met T - 5 dagen, 1 maal per dag 1 stuk, oraal, tijdelijk gestopt"/>
               <timing>
                  <repeat>
                     <frequency value="1"/>
                     <period value="1"/>
                     <periodUnit value="d"/>
                  </repeat>
               </timing>
               <route>
                  <coding>
                     <system value="urn:oid:2.16.840.1.113883.2.4.4.9"/>
                     <code value="9"/>
                     <display value="oraal"/>
                  </coding>
               </route>
               <doseQuantity>
                  <value value="1"/>
                  <unit value="stuk"/>
                  <system value="urn:oid:2.16.840.1.113883.2.4.4.1.900.2"/>
                  <code value="245"/>
               </doseQuantity>
            </dosageInstruction>
         </MedicationDispense>
      </resource>
      <search>
         <mode value="match"/>
      </search>
   </entry>
   <entry>
      <fullUrl value="urn:uuid:7dbb714f-6ab4-11ec-0000-020000000000"/>
      <resource>
         <MedicationDispense>
            <meta>
               <profile value="http://nictiz.nl/fhir/StructureDefinition/zib-AdministrationAgreement"/>
            </meta>
            <text>
               <status value="extensions"/>
               <div xmlns="http://www.w3.org/1999/xhtml">
                  <table>
                     <caption>Toedieningsafspraak. Subject: J. XXX_Cnossen. Id: MBH_313_4_TA_1 (urn:oid:2.16.840.1.113883.2.4.3.11.999.77.422037009.1), Categorie: 
<span title="Provider medication administration instructions (procedure) (422037009 - SNOMED CT)">Provider medication administration instructions (procedure)</span>
                        <span style="display: block;">Uitvoerende: Apotheek De Gulle Gaper</span>
                     </caption>
                     <tbody>
                        <tr>
                           <th>Medicamenteuze behandel-id</th>
                           <td>MBH_313_4 (urn:oid:2.16.840.1.113883.2.4.3.11.999.77.1.1)</td>
                        </tr>
                        <tr>
                           <th>Gemaakt</th>
                           <td>${DATE, T, D, -300}T15:23:00+02:00</td>
                        </tr>
                        <tr>
                           <th>Gebaseerd op</th>
                           <td>relatie naar medicatieafspraak: MBH_313_4_MA_1 || 2.16.840.1.113883.2.4.3.11.999.77.16076005.1 (Id: MBH_313_4_MA_1 (urn:oid:2.16.840.1.113883.2.4.3.11.999.77.16076005.1))</td>
                        </tr>
                        <tr>
                           <th>Medicatie</th>
                           <td>OMEPRAZOL SANDOZ MUT TABLET MSR 40MG</td>
                        </tr>
                        <tr>
                           <th>Gebruiksduur</th>
                           <td>Vanaf ${DATE, T, D, -300}T00:00:00+02:00</td>
                        </tr>
                        <tr>
                           <th>Doseerinstructie</th>
                           <td>
                              <div>Volgnummer: 1</div>
                              <div>Tekst: Vanaf T - 300 dagen, 1 maal per dag 1 stuk, oraal</div>
                              <div>Timing: 
<div>eenmalig per dag</div>
                              </div>
                              <div>Toedieningsweg: 
<span title="oraal (9 - G-Standaard thesaurus subtabel 0007)">oraal</span>
                              </div>
                              <div>Dosering: 1 stuk</div>
                           </td>
                        </tr>
                     </tbody>
                  </table>
               </div>
            </text>
            <extension url="http://nictiz.nl/fhir/StructureDefinition/zib-AdministrationAgreement-AuthoredOn">
               <valueDateTime value="${DATE, T, D, -300}T15:23:00+02:00"/>
            </extension>
            <extension url="http://nictiz.nl/fhir/StructureDefinition/zib-Medication-PeriodOfUse">
               <valuePeriod>
                  <start value="${DATE, T, D, -300}T00:00:00+02:00"/>
               </valuePeriod>
            </extension>
            <extension url="http://nictiz.nl/fhir/StructureDefinition/zib-Medication-MedicationTreatment">
               <valueIdentifier>
                  <system value="urn:oid:2.16.840.1.113883.2.4.3.11.999.77.1.1"/>
                  <value value="MBH_313_4"/>
               </valueIdentifier>
            </extension>
            <identifier>
               <system value="urn:oid:2.16.840.1.113883.2.4.3.11.999.77.422037009.1"/>
               <value value="MBH_313_4_TA_1"/>
            </identifier>
            <category>
               <coding>
                  <system value="http://snomed.info/sct"/>
                  <code value="422037009"/>
                  <display value="Provider medication administration instructions (procedure)"/>
               </coding>
               <text value="Toedieningsafspraak"/>
            </category>
            <medicationReference>
               <reference value="urn:oid:2.16.840.1.113883.2.4.4.7.2124971"/>
               <display value="OMEPRAZOL SANDOZ MUT TABLET MSR 40MG"/>
            </medicationReference>
            <subject>
               <reference value="urn:uuid:47db3f28-6b04-11ec-0000-020000000000"/>
               <display value="J. XXX_Cnossen"/>
            </subject>
            <performer>
               <actor>
                  <reference value="urn:oid:2.16.528.1.1007.3.3.1236578"/>
                  <display value="Apotheek De Gulle Gaper"/>
               </actor>
            </performer>
            <authorizingPrescription>
               <identifier>
                  <system value="urn:oid:2.16.840.1.113883.2.4.3.11.999.77.16076005.1"/>
                  <value value="MBH_313_4_MA_1"/>
               </identifier>
               <display value="relatie naar medicatieafspraak: MBH_313_4_MA_1 || 2.16.840.1.113883.2.4.3.11.999.77.16076005.1"/>
            </authorizingPrescription>
            <dosageInstruction>
               <sequence value="1"/>
               <text value="Vanaf T - 300 dagen, 1 maal per dag 1 stuk, oraal"/>
               <timing>
                  <repeat>
                     <frequency value="1"/>
                     <period value="1"/>
                     <periodUnit value="d"/>
                  </repeat>
               </timing>
               <route>
                  <coding>
                     <system value="urn:oid:2.16.840.1.113883.2.4.4.9"/>
                     <code value="9"/>
                     <display value="oraal"/>
                  </coding>
               </route>
               <doseQuantity>
                  <value value="1"/>
                  <unit value="stuk"/>
                  <system value="urn:oid:2.16.840.1.113883.2.4.4.1.900.2"/>
                  <code value="245"/>
               </doseQuantity>
            </dosageInstruction>
         </MedicationDispense>
      </resource>
      <search>
         <mode value="match"/>
      </search>
   </entry>
   <entry>
      <fullUrl value="urn:uuid:7e7165ef-6ab4-11ec-0000-020000000000"/>
      <resource>
         <MedicationDispense>
            <meta>
               <profile value="http://nictiz.nl/fhir/StructureDefinition/zib-AdministrationAgreement"/>
            </meta>
            <text>
               <status value="extensions"/>
               <div xmlns="http://www.w3.org/1999/xhtml">
                  <table>
                     <caption>Toedieningsafspraak. Subject: J. XXX_Cnossen. Id: MBH_313_4_TA_2 (urn:oid:2.16.840.1.113883.2.4.3.11.999.77.422037009.1), Categorie: 
<span title="Provider medication administration instructions (procedure) (422037009 - SNOMED CT)">Provider medication administration instructions (procedure)</span>
                        <span style="display: block;">Uitvoerende: Apotheek De Gulle Gaper</span>
                     </caption>
                     <tbody>
                        <tr>
                           <th colspan="2">Medicatie is gestopt: 
<span title="Tijdelijk (1 - 2.16.840.1.113883.2.4.3.11.60.20.77.5.2.1)">Tijdelijk</span>
                           </th>
                        </tr>
                        <tr>
                           <th>Medicamenteuze behandel-id</th>
                           <td>MBH_313_4 (urn:oid:2.16.840.1.113883.2.4.3.11.999.77.1.1)</td>
                        </tr>
                        <tr>
                           <th>Gemaakt</th>
                           <td>${DATE, T, D, -222}T09:54:00+02:00</td>
                        </tr>
                        <tr>
                           <th>Gebaseerd op</th>
                           <td>relatie naar medicatieafspraak: MBH_313_4_MA_2 || 2.16.840.1.113883.2.4.3.11.999.77.16076005.1 (Id: MBH_313_4_MA_2 (urn:oid:2.16.840.1.113883.2.4.3.11.999.77.16076005.1))</td>
                        </tr>
                        <tr>
                           <th>Medicatie</th>
                           <td>OMEPRAZOL SANDOZ MUT TABLET MSR 40MG</td>
                        </tr>
                        <tr>
                           <th>Gebruiksduur</th>
                           <td>${DATE, T, D, -300}T00:00:00+02:00 - ${DATE, T, D, -223}T23:59:00+02:00</td>
                        </tr>
                        <tr>
                           <th>Doseerinstructie</th>
                           <td>
                              <div>Volgnummer: 1</div>
                              <div>Tekst: Vanaf T - 300 dagen, tot en met T - 223 dagen, 1 maal per dag 1 stuk, oraal, tijdelijk gestopt</div>
                              <div>Timing: 
<div>eenmalig per dag</div>
                              </div>
                              <div>Toedieningsweg: 
<span title="oraal (9 - G-Standaard thesaurus subtabel 0007)">oraal</span>
                              </div>
                              <div>Dosering: 1 stuk</div>
                           </td>
                        </tr>
                     </tbody>
                  </table>
               </div>
            </text>
            <extension url="http://nictiz.nl/fhir/StructureDefinition/zib-AdministrationAgreement-AuthoredOn">
               <valueDateTime value="${DATE, T, D, -222}T09:54:00+02:00"/>
            </extension>
            <extension url="http://nictiz.nl/fhir/StructureDefinition/zib-Medication-PeriodOfUse">
               <valuePeriod>
                  <start value="${DATE, T, D, -300}T00:00:00+02:00"/>
                  <end value="${DATE, T, D, -223}T23:59:00+02:00"/>
               </valuePeriod>
            </extension>
            <extension url="http://nictiz.nl/fhir/StructureDefinition/zib-Medication-MedicationTreatment">
               <valueIdentifier>
                  <system value="urn:oid:2.16.840.1.113883.2.4.3.11.999.77.1.1"/>
                  <value value="MBH_313_4"/>
               </valueIdentifier>
            </extension>
            <modifierExtension url="http://nictiz.nl/fhir/StructureDefinition/zib-Medication-StopType">
               <valueCodeableConcept>
                  <coding>
                     <system value="urn:oid:2.16.840.1.113883.2.4.3.11.60.20.77.5.2.1"/>
                     <code value="1"/>
                     <display value="Tijdelijk"/>
                  </coding>
               </valueCodeableConcept>
            </modifierExtension>
            <identifier>
               <system value="urn:oid:2.16.840.1.113883.2.4.3.11.999.77.422037009.1"/>
               <value value="MBH_313_4_TA_2"/>
            </identifier>
            <category>
               <coding>
                  <system value="http://snomed.info/sct"/>
                  <code value="422037009"/>
                  <display value="Provider medication administration instructions (procedure)"/>
               </coding>
               <text value="Toedieningsafspraak"/>
            </category>
            <medicationReference>
               <reference value="urn:oid:2.16.840.1.113883.2.4.4.7.2124971"/>
               <display value="OMEPRAZOL SANDOZ MUT TABLET MSR 40MG"/>
            </medicationReference>
            <subject>
               <reference value="urn:uuid:47db3f28-6b04-11ec-0000-020000000000"/>
               <display value="J. XXX_Cnossen"/>
            </subject>
            <performer>
               <actor>
                  <reference value="urn:oid:2.16.528.1.1007.3.3.1236578"/>
                  <display value="Apotheek De Gulle Gaper"/>
               </actor>
            </performer>
            <authorizingPrescription>
               <identifier>
                  <system value="urn:oid:2.16.840.1.113883.2.4.3.11.999.77.16076005.1"/>
                  <value value="MBH_313_4_MA_2"/>
               </identifier>
               <display value="relatie naar medicatieafspraak: MBH_313_4_MA_2 || 2.16.840.1.113883.2.4.3.11.999.77.16076005.1"/>
            </authorizingPrescription>
            <dosageInstruction>
               <sequence value="1"/>
               <text value="Vanaf T - 300 dagen, tot en met T - 223 dagen, 1 maal per dag 1 stuk, oraal, tijdelijk gestopt"/>
               <timing>
                  <repeat>
                     <frequency value="1"/>
                     <period value="1"/>
                     <periodUnit value="d"/>
                  </repeat>
               </timing>
               <route>
                  <coding>
                     <system value="urn:oid:2.16.840.1.113883.2.4.4.9"/>
                     <code value="9"/>
                     <display value="oraal"/>
                  </coding>
               </route>
               <doseQuantity>
                  <value value="1"/>
                  <unit value="stuk"/>
                  <system value="urn:oid:2.16.840.1.113883.2.4.4.1.900.2"/>
                  <code value="245"/>
               </doseQuantity>
            </dosageInstruction>
         </MedicationDispense>
      </resource>
      <search>
         <mode value="match"/>
      </search>
   </entry>
   <entry>
      <fullUrl value="urn:uuid:8ac4def1-6b35-11ec-0000-020000000000"/>
      <resource>
         <MedicationStatement>
            <meta>
               <profile value="http://nictiz.nl/fhir/StructureDefinition/zib-MedicationUse"/>
            </meta>
            <text>
               <status value="extensions"/>
               <div xmlns="http://www.w3.org/1999/xhtml">
                  <table>
                     <caption>MedicationStatement. Subject: J. XXX_Cnossen. Id: MBH_313_1_MGB_1 (urn:oid:2.16.840.1.113883.2.4.3.11.999.77.6.1), Categorie: 
<span title="Medicatiegebruik (6 - 2.16.840.1.113883.2.4.3.11.60.20.77.5.3)">Medicatiegebruik</span>, Status: actief
<span style="display: block;">Auteur: J. XXX_Cnossen</span>
                     </caption>
                     <tbody>
                        <tr>
                           <th>Medicamenteuze behandel-id</th>
                           <td>MBH_313_1 (urn:oid:2.16.840.1.113883.2.4.3.11.999.77.1.1)</td>
                        </tr>
                        <tr>
                           <th>Voorschrijver</th>
                           <td>Peter van Pulver || Huisartsen, niet nader gespecificeerd || Huisartsenpraktijk Pulver &amp; Partners</td>
                        </tr>
                        <tr>
                           <th>Medicatie</th>
                           <td>Tiotropium inhalatiecapsule 18ug</td>
                        </tr>
                        <tr>
                           <th>Datum/tijd</th>
                           <td>Vanaf ${DATE, T, D, -100}T00:00:00+02:00</td>
                        </tr>
                        <tr>
                           <th>Informant</th>
                           <td>${DATE, T, D, -100}T12:11:00+02:00</td>
                        </tr>
                        <tr>
                           <th>Ondersteunende informatie</th>
                           <td>relatie naar medicatieafspraak (Id: MBH_313_1_MA_1 (urn:oid:2.16.840.1.113883.2.4.3.11.999.77.16076005.1))</td>
                        </tr>
                        <tr>
                           <th>Dosering</th>
                           <td>
                              <div>Volgnummer: 1</div>
                              <div>Tekst: Vanaf T - 100 dagen, 1 maal per dag 1 dosis, inhalatie</div>
                              <div>Timing: 
<div>eenmalig per dag</div>
                              </div>
                              <div>Toedieningsweg: 
<span title="inhalatie (62 - G-Standaard thesaurus subtabel 0007)">inhalatie</span>
                              </div>
                              <div>Dosering: 1 dosis</div>
                           </td>
                        </tr>
                        <tr>
                           <th>Medicatie gebruikt</th>
                           <td>ja</td>
                        </tr>
                     </tbody>
                  </table>
               </div>
            </text>
            <extension url="http://nictiz.nl/fhir/StructureDefinition/zib-MedicationUse-Prescriber">
               <valueReference>
                  <reference value="urn:uuid:a2355d00-6b2f-11ec-0000-020000000000"/>
                  <display value="Peter van Pulver || Huisartsen, niet nader gespecificeerd || Huisartsenpraktijk Pulver &amp; Partners"/>
               </valueReference>
            </extension>
            <extension url="http://nictiz.nl/fhir/StructureDefinition/zib-MedicationUse-Author">
               <valueReference>
                  <reference value="urn:uuid:47db3f28-6b04-11ec-0000-020000000000"/>
                  <display value="J. XXX_Cnossen"/>
               </valueReference>
            </extension>
            <extension url="http://nictiz.nl/fhir/StructureDefinition/zib-Medication-MedicationTreatment">
               <valueIdentifier>
                  <system value="urn:oid:2.16.840.1.113883.2.4.3.11.999.77.1.1"/>
                  <value value="MBH_313_1"/>
               </valueIdentifier>
            </extension>
            <identifier>
               <system value="urn:oid:2.16.840.1.113883.2.4.3.11.999.77.6.1"/>
               <value value="MBH_313_1_MGB_1"/>
            </identifier>
            <status value="active"/>
            <category>
               <coding>
                  <system value="urn:oid:2.16.840.1.113883.2.4.3.11.60.20.77.5.3"/>
                  <code value="6"/>
                  <display value="Medicatiegebruik"/>
               </coding>
               <text value="Medicatiegebruik"/>
            </category>
            <medicationReference>
               <reference value="urn:oid:2.16.840.1.113883.2.4.4.10.59919"/>
               <display value="Tiotropium inhalatiecapsule 18ug"/>
            </medicationReference>
            <effectivePeriod>
               <start value="${DATE, T, D, -100}T00:00:00+02:00"/>
            </effectivePeriod>
            <dateAsserted value="${DATE, T, D, -100}T12:11:00+02:00"/>
            <subject>
               <reference value="urn:uuid:47db3f28-6b04-11ec-0000-020000000000"/>
               <display value="J. XXX_Cnossen"/>
            </subject>
            <derivedFrom>
               <identifier>
                  <system value="urn:oid:2.16.840.1.113883.2.4.3.11.999.77.16076005.1"/>
                  <value value="MBH_313_1_MA_1"/>
               </identifier>
               <display value="relatie naar medicatieafspraak"/>
            </derivedFrom>
            <taken value="y"/>
            <dosage>
               <sequence value="1"/>
               <text value="Vanaf T - 100 dagen, 1 maal per dag 1 dosis, inhalatie"/>
               <timing>
                  <repeat>
                     <frequency value="1"/>
                     <period value="1"/>
                     <periodUnit value="d"/>
                  </repeat>
               </timing>
               <route>
                  <coding>
                     <system value="urn:oid:2.16.840.1.113883.2.4.4.9"/>
                     <code value="62"/>
                     <display value="inhalatie"/>
                  </coding>
               </route>
               <doseQuantity>
                  <value value="1"/>
                  <unit value="dosis"/>
                  <system value="urn:oid:2.16.840.1.113883.2.4.4.1.900.2"/>
                  <code value="208"/>
               </doseQuantity>
            </dosage>
         </MedicationStatement>
      </resource>
      <search>
         <mode value="match"/>
      </search>
   </entry>
   <entry>
      <fullUrl value="urn:uuid:65eb78af-6b21-11ec-0000-020000000000"/>
      <resource>
         <MedicationStatement>
            <meta>
               <profile value="http://nictiz.nl/fhir/StructureDefinition/zib-MedicationUse"/>
            </meta>
            <text>
               <status value="extensions"/>
               <div xmlns="http://www.w3.org/1999/xhtml">
                  <table>
                     <caption>MedicationStatement. Subject: J. XXX_Cnossen. Id: MBH_313_1_MGB_2 (urn:oid:2.16.840.1.113883.2.4.3.11.999.77.6.1), Categorie: 
<span title="Medicatiegebruik (6 - 2.16.840.1.113883.2.4.3.11.60.20.77.5.3)">Medicatiegebruik</span>, Status: gestopt
<span style="display: block;">Auteur: J. XXX_Cnossen</span>
                     </caption>
                     <tbody>
                        <tr>
                           <th>Medicamenteuze behandel-id</th>
                           <td>MBH_313_1 (urn:oid:2.16.840.1.113883.2.4.3.11.999.77.1.1)</td>
                        </tr>
                        <tr>
                           <th>Voorschrijver</th>
                           <td>John de Vries || Huisartsen, niet nader gespecificeerd || Huisartsenpraktijk Pulver &amp; Partners</td>
                        </tr>
                        <tr>
                           <th>Medicatie</th>
                           <td>Tiotropium inhalatiecapsule 18ug</td>
                        </tr>
                        <tr>
                           <th>Datum/tijd</th>
                           <td>Vanaf ${DATE, T, D, -60}T07:00:00+02:00</td>
                        </tr>
                        <tr>
                           <th>Informant</th>
                           <td>${DATE, T, D, -60}T15:25:00+02:00</td>
                        </tr>
                        <tr>
                           <th>Ondersteunende informatie</th>
                           <td>relatie naar medicatieafspraak (Id: MBH_313_1_MA_2 (urn:oid:2.16.840.1.113883.2.4.3.11.999.77.16076005.1))</td>
                        </tr>
                        <tr>
                           <th>Dosering</th>
                           <td>
                              <div>Tekst: Vanaf T - 60 dagen om 07:00 uur, geneesmiddel niet in gebruik, definitief gestopt</div>
                           </td>
                        </tr>
                        <tr>
                           <th>Medicatie gebruikt</th>
                           <td>nee</td>
                        </tr>
                     </tbody>
                  </table>
               </div>
            </text>
            <extension url="http://nictiz.nl/fhir/StructureDefinition/zib-MedicationUse-AsAgreedIndicator">
               <valueBoolean value="true"/>
            </extension>
            <extension url="http://nictiz.nl/fhir/StructureDefinition/zib-MedicationUse-Prescriber">
               <valueReference>
                  <reference value="urn:uuid:3a4fc4a9-6b79-11ec-0000-020000000000"/>
                  <display value="John de Vries || Huisartsen, niet nader gespecificeerd || Huisartsenpraktijk Pulver &amp; Partners"/>
               </valueReference>
            </extension>
            <extension url="http://nictiz.nl/fhir/StructureDefinition/zib-MedicationUse-Author">
               <valueReference>
                  <reference value="urn:uuid:47db3f28-6b04-11ec-0000-020000000000"/>
                  <display value="J. XXX_Cnossen"/>
               </valueReference>
            </extension>
            <extension url="http://nictiz.nl/fhir/StructureDefinition/zib-Medication-MedicationTreatment">
               <valueIdentifier>
                  <system value="urn:oid:2.16.840.1.113883.2.4.3.11.999.77.1.1"/>
                  <value value="MBH_313_1"/>
               </valueIdentifier>
            </extension>
            <identifier>
               <system value="urn:oid:2.16.840.1.113883.2.4.3.11.999.77.6.1"/>
               <value value="MBH_313_1_MGB_2"/>
            </identifier>
            <status value="stopped"/>
            <category>
               <coding>
                  <system value="urn:oid:2.16.840.1.113883.2.4.3.11.60.20.77.5.3"/>
                  <code value="6"/>
                  <display value="Medicatiegebruik"/>
               </coding>
               <text value="Medicatiegebruik"/>
            </category>
            <medicationReference>
               <reference value="urn:oid:2.16.840.1.113883.2.4.4.10.59919"/>
               <display value="Tiotropium inhalatiecapsule 18ug"/>
            </medicationReference>
            <effectivePeriod>
               <start value="${DATE, T, D, -60}T07:00:00+02:00"/>
            </effectivePeriod>
            <dateAsserted value="${DATE, T, D, -60}T15:25:00+02:00"/>
            <subject>
               <reference value="urn:uuid:47db3f28-6b04-11ec-0000-020000000000"/>
               <display value="J. XXX_Cnossen"/>
            </subject>
            <derivedFrom>
               <identifier>
                  <system value="urn:oid:2.16.840.1.113883.2.4.3.11.999.77.16076005.1"/>
                  <value value="MBH_313_1_MA_2"/>
               </identifier>
               <display value="relatie naar medicatieafspraak"/>
            </derivedFrom>
            <taken value="n"/>
            <dosage>
               <text value="Vanaf T - 60 dagen om 07:00 uur, geneesmiddel niet in gebruik, definitief gestopt"/>
            </dosage>
         </MedicationStatement>
      </resource>
      <search>
         <mode value="match"/>
      </search>
   </entry>
   <entry>
      <fullUrl value="urn:uuid:85eb4fa5-6b5d-11ec-0000-020000000000"/>
      <resource>
         <MedicationStatement>
            <meta>
               <profile value="http://nictiz.nl/fhir/StructureDefinition/zib-MedicationUse"/>
            </meta>
            <text>
               <status value="extensions"/>
               <div xmlns="http://www.w3.org/1999/xhtml">
                  <table>
                     <caption>MedicationStatement. Subject: J. XXX_Cnossen. Id: MBH_313_2_MGB_1 (urn:oid:2.16.840.1.113883.2.4.3.11.999.77.6.1), Categorie: 
<span title="Medicatiegebruik (6 - 2.16.840.1.113883.2.4.3.11.60.20.77.5.3)">Medicatiegebruik</span>, Status: actief
<span style="display: block;">Auteur: J. XXX_Cnossen</span>
                     </caption>
                     <tbody>
                        <tr>
                           <th>Medicamenteuze behandel-id</th>
                           <td>MBH_313_2 (urn:oid:2.16.840.1.113883.2.4.3.11.999.77.1.1)</td>
                        </tr>
                        <tr>
                           <th>Voorschrijver</th>
                           <td>Peter van Pulver || Huisartsen, niet nader gespecificeerd || Huisartsenpraktijk Pulver &amp; Partners</td>
                        </tr>
                        <tr>
                           <th>Medicatie</th>
                           <td>Timolol/Latanoprost oogdr 5mg/50ug/ml fl 2,5ml</td>
                        </tr>
                        <tr>
                           <th>Datum/tijd</th>
                           <td>Vanaf ${DATE, T, D, -500}T00:00:00+02:00</td>
                        </tr>
                        <tr>
                           <th>Informant</th>
                           <td>${DATE, T, D, -500}T10:19:00+02:00</td>
                        </tr>
                        <tr>
                           <th>Ondersteunende informatie</th>
                           <td>relatie naar medicatieafspraak (Id: MBH_313_2_MA_1 (urn:oid:2.16.840.1.113883.2.4.3.11.999.77.16076005.1))</td>
                        </tr>
                        <tr>
                           <th>Dosering</th>
                           <td>
                              <div>Volgnummer: 1</div>
                              <div>Tekst: Vanaf T - 500 dagen, 1 maal per dag 1 druppel, in beide ogen, oculair</div>
                              <div>Instructie: 
<span title="in beide ogen (1026 - nhg-tabel-25-gebruiksvoorschrift#aanvullend-numeriek)">in beide ogen</span>
                              </div>
                              <div>Timing: 
<div>eenmalig per dag</div>
                              </div>
                              <div>Toedieningsweg: 
<span title="oculair (7 - G-Standaard thesaurus subtabel 0007)">oculair</span>
                              </div>
                              <div>Dosering: 1 druppel</div>
                           </td>
                        </tr>
                        <tr>
                           <th>Medicatie gebruikt</th>
                           <td>ja</td>
                        </tr>
                     </tbody>
                  </table>
               </div>
            </text>
            <extension url="http://nictiz.nl/fhir/StructureDefinition/zib-MedicationUse-AsAgreedIndicator">
               <valueBoolean value="true"/>
            </extension>
            <extension url="http://nictiz.nl/fhir/StructureDefinition/zib-MedicationUse-Prescriber">
               <valueReference>
                  <reference value="urn:uuid:a2355d00-6b2f-11ec-0000-020000000000"/>
                  <display value="Peter van Pulver || Huisartsen, niet nader gespecificeerd || Huisartsenpraktijk Pulver &amp; Partners"/>
               </valueReference>
            </extension>
            <extension url="http://nictiz.nl/fhir/StructureDefinition/zib-MedicationUse-Author">
               <valueReference>
                  <reference value="urn:uuid:47db3f28-6b04-11ec-0000-020000000000"/>
                  <display value="J. XXX_Cnossen"/>
               </valueReference>
            </extension>
            <extension url="http://nictiz.nl/fhir/StructureDefinition/zib-Medication-MedicationTreatment">
               <valueIdentifier>
                  <system value="urn:oid:2.16.840.1.113883.2.4.3.11.999.77.1.1"/>
                  <value value="MBH_313_2"/>
               </valueIdentifier>
            </extension>
            <identifier>
               <system value="urn:oid:2.16.840.1.113883.2.4.3.11.999.77.6.1"/>
               <value value="MBH_313_2_MGB_1"/>
            </identifier>
            <status value="active"/>
            <category>
               <coding>
                  <system value="urn:oid:2.16.840.1.113883.2.4.3.11.60.20.77.5.3"/>
                  <code value="6"/>
                  <display value="Medicatiegebruik"/>
               </coding>
               <text value="Medicatiegebruik"/>
            </category>
            <medicationReference>
               <reference value="urn:oid:2.16.840.1.113883.2.4.4.10.60526"/>
               <display value="Timolol/Latanoprost oogdr 5mg/50ug/ml fl 2,5ml"/>
            </medicationReference>
            <effectivePeriod>
               <start value="${DATE, T, D, -500}T00:00:00+02:00"/>
            </effectivePeriod>
            <dateAsserted value="${DATE, T, D, -500}T10:19:00+02:00"/>
            <subject>
               <reference value="urn:uuid:47db3f28-6b04-11ec-0000-020000000000"/>
               <display value="J. XXX_Cnossen"/>
            </subject>
            <derivedFrom>
               <identifier>
                  <system value="urn:oid:2.16.840.1.113883.2.4.3.11.999.77.16076005.1"/>
                  <value value="MBH_313_2_MA_1"/>
               </identifier>
               <display value="relatie naar medicatieafspraak"/>
            </derivedFrom>
            <taken value="y"/>
            <dosage>
               <sequence value="1"/>
               <text value="Vanaf T - 500 dagen, 1 maal per dag 1 druppel, in beide ogen, oculair"/>
               <additionalInstruction>
                  <coding>
                     <system value="https://referentiemodel.nhg.org/tabellen/nhg-tabel-25-gebruiksvoorschrift#aanvullend-numeriek"/>
                     <code value="1026"/>
                     <display value="in beide ogen"/>
                  </coding>
               </additionalInstruction>
               <timing>
                  <repeat>
                     <frequency value="1"/>
                     <period value="1"/>
                     <periodUnit value="d"/>
                  </repeat>
               </timing>
               <route>
                  <coding>
                     <system value="urn:oid:2.16.840.1.113883.2.4.4.9"/>
                     <code value="7"/>
                     <display value="oculair"/>
                  </coding>
               </route>
               <doseQuantity>
                  <value value="1"/>
                  <unit value="druppel"/>
                  <system value="urn:oid:2.16.840.1.113883.2.4.4.1.900.2"/>
                  <code value="303"/>
               </doseQuantity>
            </dosage>
         </MedicationStatement>
      </resource>
      <search>
         <mode value="match"/>
      </search>
   </entry>
   <entry>
      <fullUrl value="urn:uuid:279c2c0b-6b0f-11ec-0000-020000000000"/>
      <resource>
         <MedicationStatement>
            <meta>
               <profile value="http://nictiz.nl/fhir/StructureDefinition/zib-MedicationUse"/>
            </meta>
            <text>
               <status value="extensions"/>
               <div xmlns="http://www.w3.org/1999/xhtml">
                  <table>
                     <caption>MedicationStatement. Subject: J. XXX_Cnossen. Id: MBH_313_2_MGB_2 (urn:oid:2.16.840.1.113883.2.4.3.11.999.77.6.1), Categorie: 
<span title="Medicatiegebruik (6 - 2.16.840.1.113883.2.4.3.11.60.20.77.5.3)">Medicatiegebruik</span>, Status: gestopt
<span style="display: block;">Auteur: J. XXX_Cnossen</span>
                     </caption>
                     <tbody>
                        <tr>
                           <th>Medicamenteuze behandel-id</th>
                           <td>MBH_313_2 (urn:oid:2.16.840.1.113883.2.4.3.11.999.77.1.1)</td>
                        </tr>
                        <tr>
                           <th>Voorschrijver</th>
                           <td>John de Vries || Huisartsen, niet nader gespecificeerd || Huisartsenpraktijk Pulver &amp; Partners</td>
                        </tr>
                        <tr>
                           <th>Medicatie</th>
                           <td>Timolol/Latanoprost oogdr 5mg/50ug/ml fl 2,5ml</td>
                        </tr>
                        <tr>
                           <th>Datum/tijd</th>
                           <td>Vanaf ${DATE, T, D, -366}T00:00:00+02:00</td>
                        </tr>
                        <tr>
                           <th>Informant</th>
                           <td>${DATE, T, D, -365}T17:54:00+02:00</td>
                        </tr>
                        <tr>
                           <th>Ondersteunende informatie</th>
                           <td>relatie naar medicatieafspraak (Id: MBH_313_2_MA_2 (urn:oid:2.16.840.1.113883.2.4.3.11.999.77.16076005.1))</td>
                        </tr>
                        <tr>
                           <th>Dosering</th>
                           <td>
                              <div>Tekst: Vanaf T - 366 dagen, geneesmiddel niet in gebruik, definitief gestopt</div>
                           </td>
                        </tr>
                        <tr>
                           <th>Medicatie gebruikt</th>
                           <td>nee</td>
                        </tr>
                     </tbody>
                  </table>
               </div>
            </text>
            <extension url="http://nictiz.nl/fhir/StructureDefinition/zib-MedicationUse-AsAgreedIndicator">
               <valueBoolean value="true"/>
            </extension>
            <extension url="http://nictiz.nl/fhir/StructureDefinition/zib-MedicationUse-Prescriber">
               <valueReference>
                  <reference value="urn:uuid:3a4fc4a9-6b79-11ec-0000-020000000000"/>
                  <display value="John de Vries || Huisartsen, niet nader gespecificeerd || Huisartsenpraktijk Pulver &amp; Partners"/>
               </valueReference>
            </extension>
            <extension url="http://nictiz.nl/fhir/StructureDefinition/zib-MedicationUse-Author">
               <valueReference>
                  <reference value="urn:uuid:47db3f28-6b04-11ec-0000-020000000000"/>
                  <display value="J. XXX_Cnossen"/>
               </valueReference>
            </extension>
            <extension url="http://nictiz.nl/fhir/StructureDefinition/zib-Medication-MedicationTreatment">
               <valueIdentifier>
                  <system value="urn:oid:2.16.840.1.113883.2.4.3.11.999.77.1.1"/>
                  <value value="MBH_313_2"/>
               </valueIdentifier>
            </extension>
            <identifier>
               <system value="urn:oid:2.16.840.1.113883.2.4.3.11.999.77.6.1"/>
               <value value="MBH_313_2_MGB_2"/>
            </identifier>
            <status value="stopped"/>
            <category>
               <coding>
                  <system value="urn:oid:2.16.840.1.113883.2.4.3.11.60.20.77.5.3"/>
                  <code value="6"/>
                  <display value="Medicatiegebruik"/>
               </coding>
               <text value="Medicatiegebruik"/>
            </category>
            <medicationReference>
               <reference value="urn:oid:2.16.840.1.113883.2.4.4.10.60526"/>
               <display value="Timolol/Latanoprost oogdr 5mg/50ug/ml fl 2,5ml"/>
            </medicationReference>
            <effectivePeriod>
               <start value="${DATE, T, D, -366}T00:00:00+02:00"/>
            </effectivePeriod>
            <dateAsserted value="${DATE, T, D, -365}T17:54:00+02:00"/>
            <subject>
               <reference value="urn:uuid:47db3f28-6b04-11ec-0000-020000000000"/>
               <display value="J. XXX_Cnossen"/>
            </subject>
            <derivedFrom>
               <identifier>
                  <system value="urn:oid:2.16.840.1.113883.2.4.3.11.999.77.16076005.1"/>
                  <value value="MBH_313_2_MA_2"/>
               </identifier>
               <display value="relatie naar medicatieafspraak"/>
            </derivedFrom>
            <taken value="n"/>
            <dosage>
               <text value="Vanaf T - 366 dagen, geneesmiddel niet in gebruik, definitief gestopt"/>
            </dosage>
         </MedicationStatement>
      </resource>
      <search>
         <mode value="match"/>
      </search>
   </entry>
   <entry>
      <fullUrl value="urn:uuid:f5f78ef1-6b2d-11ec-0000-020000000000"/>
      <resource>
         <MedicationStatement>
            <meta>
               <profile value="http://nictiz.nl/fhir/StructureDefinition/zib-MedicationUse"/>
            </meta>
            <text>
               <status value="extensions"/>
               <div xmlns="http://www.w3.org/1999/xhtml">
                  <table>
                     <caption>MedicationStatement. Subject: J. XXX_Cnossen. Id: MBH_313_3_MGB_1 (urn:oid:2.16.840.1.113883.2.4.3.11.999.77.6.1), Categorie: 
<span title="Medicatiegebruik (6 - 2.16.840.1.113883.2.4.3.11.60.20.77.5.3)">Medicatiegebruik</span>, Status: actief
<span style="display: block;">Auteur: J. XXX_Cnossen</span>
                     </caption>
                     <tbody>
                        <tr>
                           <th>Medicamenteuze behandel-id</th>
                           <td>MBH_313_3 (urn:oid:2.16.840.1.113883.2.4.3.11.999.77.1.1)</td>
                        </tr>
                        <tr>
                           <th>Voorschrijver</th>
                           <td>Peter van Pulver || Huisartsen, niet nader gespecificeerd || Huisartsenpraktijk Pulver &amp; Partners</td>
                        </tr>
                        <tr>
                           <th>Medicatie</th>
                           <td>CARBASALAATCALCIUM 100MG PO</td>
                        </tr>
                        <tr>
                           <th>Datum/tijd</th>
                           <td>Vanaf ${DATE, T, D, -100}T00:00:00+02:00</td>
                        </tr>
                        <tr>
                           <th>Informant</th>
                           <td>${DATE, T, D, -100}T14:11:00+02:00</td>
                        </tr>
                        <tr>
                           <th>Ondersteunende informatie</th>
                           <td>relatie naar medicatieafspraak (Id: MBH_313_3_MA_1 (urn:oid:2.16.840.1.113883.2.4.3.11.999.77.16076005.1))</td>
                        </tr>
                        <tr>
                           <th>Dosering</th>
                           <td>
                              <div>Volgnummer: 1</div>
                              <div>Tekst: Vanaf T - 100 dagen, 1 maal per dag 1 stuk, oraal</div>
                              <div>Timing: 
<div>eenmalig per dag</div>
                              </div>
                              <div>Toedieningsweg: 
<span title="oraal (9 - G-Standaard thesaurus subtabel 0007)">oraal</span>
                              </div>
                              <div>Dosering: 1 stuk</div>
                           </td>
                        </tr>
                        <tr>
                           <th>Medicatie gebruikt</th>
                           <td>ja</td>
                        </tr>
                     </tbody>
                  </table>
               </div>
            </text>
            <extension url="http://nictiz.nl/fhir/StructureDefinition/zib-MedicationUse-AsAgreedIndicator">
               <valueBoolean value="true"/>
            </extension>
            <extension url="http://nictiz.nl/fhir/StructureDefinition/zib-MedicationUse-Prescriber">
               <valueReference>
                  <reference value="urn:uuid:a2355d00-6b2f-11ec-0000-020000000000"/>
                  <display value="Peter van Pulver || Huisartsen, niet nader gespecificeerd || Huisartsenpraktijk Pulver &amp; Partners"/>
               </valueReference>
            </extension>
            <extension url="http://nictiz.nl/fhir/StructureDefinition/zib-MedicationUse-Author">
               <valueReference>
                  <reference value="urn:uuid:47db3f28-6b04-11ec-0000-020000000000"/>
                  <display value="J. XXX_Cnossen"/>
               </valueReference>
            </extension>
            <extension url="http://nictiz.nl/fhir/StructureDefinition/zib-Medication-MedicationTreatment">
               <valueIdentifier>
                  <system value="urn:oid:2.16.840.1.113883.2.4.3.11.999.77.1.1"/>
                  <value value="MBH_313_3"/>
               </valueIdentifier>
            </extension>
            <identifier>
               <system value="urn:oid:2.16.840.1.113883.2.4.3.11.999.77.6.1"/>
               <value value="MBH_313_3_MGB_1"/>
            </identifier>
            <status value="active"/>
            <category>
               <coding>
                  <system value="urn:oid:2.16.840.1.113883.2.4.3.11.60.20.77.5.3"/>
                  <code value="6"/>
                  <display value="Medicatiegebruik"/>
               </coding>
               <text value="Medicatiegebruik"/>
            </category>
            <medicationReference>
               <reference value="urn:oid:2.16.840.1.113883.2.4.4.10.13072"/>
               <display value="CARBASALAATCALCIUM 100MG PO"/>
            </medicationReference>
            <effectivePeriod>
               <start value="${DATE, T, D, -100}T00:00:00+02:00"/>
            </effectivePeriod>
            <dateAsserted value="${DATE, T, D, -100}T14:11:00+02:00"/>
            <subject>
               <reference value="urn:uuid:47db3f28-6b04-11ec-0000-020000000000"/>
               <display value="J. XXX_Cnossen"/>
            </subject>
            <derivedFrom>
               <identifier>
                  <system value="urn:oid:2.16.840.1.113883.2.4.3.11.999.77.16076005.1"/>
                  <value value="MBH_313_3_MA_1"/>
               </identifier>
               <display value="relatie naar medicatieafspraak"/>
            </derivedFrom>
            <taken value="y"/>
            <dosage>
               <sequence value="1"/>
               <text value="Vanaf T - 100 dagen, 1 maal per dag 1 stuk, oraal"/>
               <timing>
                  <repeat>
                     <frequency value="1"/>
                     <period value="1"/>
                     <periodUnit value="d"/>
                  </repeat>
               </timing>
               <route>
                  <coding>
                     <system value="urn:oid:2.16.840.1.113883.2.4.4.9"/>
                     <code value="9"/>
                     <display value="oraal"/>
                  </coding>
               </route>
               <doseQuantity>
                  <value value="1"/>
                  <unit value="stuk"/>
                  <system value="urn:oid:2.16.840.1.113883.2.4.4.1.900.2"/>
                  <code value="245"/>
               </doseQuantity>
            </dosage>
         </MedicationStatement>
      </resource>
      <search>
         <mode value="match"/>
      </search>
   </entry>
   <entry>
      <fullUrl value="urn:uuid:952b28cd-6ae7-11ec-0000-020000000000"/>
      <resource>
         <MedicationStatement>
            <meta>
               <profile value="http://nictiz.nl/fhir/StructureDefinition/zib-MedicationUse"/>
            </meta>
            <text>
               <status value="extensions"/>
               <div xmlns="http://www.w3.org/1999/xhtml">
                  <table>
                     <caption>MedicationStatement. Subject: J. XXX_Cnossen. Id: MBH_313_3_MGB_2 (urn:oid:2.16.840.1.113883.2.4.3.11.999.77.6.1), Categorie: 
<span title="Medicatiegebruik (6 - 2.16.840.1.113883.2.4.3.11.60.20.77.5.3)">Medicatiegebruik</span>, Status: in de wacht
<span style="display: block;">Auteur: J. XXX_Cnossen</span>
                     </caption>
                     <tbody>
                        <tr>
                           <th>Medicamenteuze behandel-id</th>
                           <td>MBH_313_3 (urn:oid:2.16.840.1.113883.2.4.3.11.999.77.1.1)</td>
                        </tr>
                        <tr>
                           <th>Voorschrijver</th>
                           <td>John de Vries || Huisartsen, niet nader gespecificeerd || Huisartsenpraktijk Pulver &amp; Partners</td>
                        </tr>
                        <tr>
                           <th>Medicatie</th>
                           <td>CARBASALAATCALCIUM 100MG PO</td>
                        </tr>
                        <tr>
                           <th>Datum/tijd</th>
                           <td>Vanaf ${DATE, T, D, -4}T00:00:00+02:00</td>
                        </tr>
                        <tr>
                           <th>Informant</th>
                           <td>${DATE, T, D, -4}T13:54:00+02:00</td>
                        </tr>
                        <tr>
                           <th>Ondersteunende informatie</th>
                           <td>relatie naar medicatieafspraak (Id: MBH_313_3_MA_2 (urn:oid:2.16.840.1.113883.2.4.3.11.999.77.16076005.1))</td>
                        </tr>
                        <tr>
                           <th>Dosering</th>
                           <td>
                              <div>Tekst: Vanaf T - 4 dagen, geneesmiddel niet in gebruik, tijdelijk gestopt</div>
                           </td>
                        </tr>
                        <tr>
                           <th>Medicatie gebruikt</th>
                           <td>nee</td>
                        </tr>
                     </tbody>
                  </table>
               </div>
            </text>
            <extension url="http://nictiz.nl/fhir/StructureDefinition/zib-MedicationUse-AsAgreedIndicator">
               <valueBoolean value="true"/>
            </extension>
            <extension url="http://nictiz.nl/fhir/StructureDefinition/zib-MedicationUse-Prescriber">
               <valueReference>
                  <reference value="urn:uuid:3a4fc4a9-6b79-11ec-0000-020000000000"/>
                  <display value="John de Vries || Huisartsen, niet nader gespecificeerd || Huisartsenpraktijk Pulver &amp; Partners"/>
               </valueReference>
            </extension>
            <extension url="http://nictiz.nl/fhir/StructureDefinition/zib-MedicationUse-Author">
               <valueReference>
                  <reference value="urn:uuid:47db3f28-6b04-11ec-0000-020000000000"/>
                  <display value="J. XXX_Cnossen"/>
               </valueReference>
            </extension>
            <extension url="http://nictiz.nl/fhir/StructureDefinition/zib-Medication-MedicationTreatment">
               <valueIdentifier>
                  <system value="urn:oid:2.16.840.1.113883.2.4.3.11.999.77.1.1"/>
                  <value value="MBH_313_3"/>
               </valueIdentifier>
            </extension>
            <identifier>
               <system value="urn:oid:2.16.840.1.113883.2.4.3.11.999.77.6.1"/>
               <value value="MBH_313_3_MGB_2"/>
            </identifier>
            <status value="on-hold"/>
            <category>
               <coding>
                  <system value="urn:oid:2.16.840.1.113883.2.4.3.11.60.20.77.5.3"/>
                  <code value="6"/>
                  <display value="Medicatiegebruik"/>
               </coding>
               <text value="Medicatiegebruik"/>
            </category>
            <medicationReference>
               <reference value="urn:oid:2.16.840.1.113883.2.4.4.10.13072"/>
               <display value="CARBASALAATCALCIUM 100MG PO"/>
            </medicationReference>
            <effectivePeriod>
               <start value="${DATE, T, D, -4}T00:00:00+02:00"/>
            </effectivePeriod>
            <dateAsserted value="${DATE, T, D, -4}T13:54:00+02:00"/>
            <subject>
               <reference value="urn:uuid:47db3f28-6b04-11ec-0000-020000000000"/>
               <display value="J. XXX_Cnossen"/>
            </subject>
            <derivedFrom>
               <identifier>
                  <system value="urn:oid:2.16.840.1.113883.2.4.3.11.999.77.16076005.1"/>
                  <value value="MBH_313_3_MA_2"/>
               </identifier>
               <display value="relatie naar medicatieafspraak"/>
            </derivedFrom>
            <taken value="n"/>
            <dosage>
               <text value="Vanaf T - 4 dagen, geneesmiddel niet in gebruik, tijdelijk gestopt"/>
            </dosage>
         </MedicationStatement>
      </resource>
      <search>
         <mode value="match"/>
      </search>
   </entry>
   <entry>
      <fullUrl value="urn:uuid:cb8d06a5-6afa-11ec-0000-020000000000"/>
      <resource>
         <MedicationStatement>
            <meta>
               <profile value="http://nictiz.nl/fhir/StructureDefinition/zib-MedicationUse"/>
            </meta>
            <text>
               <status value="extensions"/>
               <div xmlns="http://www.w3.org/1999/xhtml">
                  <table>
                     <caption>MedicationStatement. Subject: J. XXX_Cnossen. Id: MBH_313_4_MGB_1 (urn:oid:2.16.840.1.113883.2.4.3.11.999.77.6.1), Categorie: 
<span title="Medicatiegebruik (6 - 2.16.840.1.113883.2.4.3.11.60.20.77.5.3)">Medicatiegebruik</span>, Status: actief
<span style="display: block;">Auteur: J. XXX_Cnossen</span>
                     </caption>
                     <tbody>
                        <tr>
                           <th>Medicamenteuze behandel-id</th>
                           <td>MBH_313_4 (urn:oid:2.16.840.1.113883.2.4.3.11.999.77.1.1)</td>
                        </tr>
                        <tr>
                           <th>Voorschrijver</th>
                           <td>Peter van Pulver || Huisartsen, niet nader gespecificeerd || Huisartsenpraktijk Pulver &amp; Partners</td>
                        </tr>
                        <tr>
                           <th>Medicatie</th>
                           <td>Omeprazol tablet MSR 40mg</td>
                        </tr>
                        <tr>
                           <th>Datum/tijd</th>
                           <td>Vanaf ${DATE, T, D, -300}T00:00:00+02:00</td>
                        </tr>
                        <tr>
                           <th>Informant</th>
                           <td>${DATE, T, D, -300}T17:23:00+02:00</td>
                        </tr>
                        <tr>
                           <th>Ondersteunende informatie</th>
                           <td>relatie naar medicatieafspraak (Id: MBH_313_4_MA_1 (urn:oid:2.16.840.1.113883.2.4.3.11.999.77.16076005.1))</td>
                        </tr>
                        <tr>
                           <th>Dosering</th>
                           <td>
                              <div>Volgnummer: 1</div>
                              <div>Tekst: Vanaf T - 300 dagen, 1 maal per dag 1 stuk, oraal, geneesmiddel niet in gebruik</div>
                              <div>Timing: 
<div>eenmalig per dag</div>
                              </div>
                              <div>Toedieningsweg: 
<span title="oraal (9 - G-Standaard thesaurus subtabel 0007)">oraal</span>
                              </div>
                              <div>Dosering: 1 stuk</div>
                           </td>
                        </tr>
                        <tr>
                           <th>Medicatie gebruikt</th>
                           <td>nee</td>
                        </tr>
                     </tbody>
                  </table>
               </div>
            </text>
            <extension url="http://nictiz.nl/fhir/StructureDefinition/zib-MedicationUse-Prescriber">
               <valueReference>
                  <reference value="urn:uuid:a2355d00-6b2f-11ec-0000-020000000000"/>
                  <display value="Peter van Pulver || Huisartsen, niet nader gespecificeerd || Huisartsenpraktijk Pulver &amp; Partners"/>
               </valueReference>
            </extension>
            <extension url="http://nictiz.nl/fhir/StructureDefinition/zib-MedicationUse-Author">
               <valueReference>
                  <reference value="urn:uuid:47db3f28-6b04-11ec-0000-020000000000"/>
                  <display value="J. XXX_Cnossen"/>
               </valueReference>
            </extension>
            <extension url="http://nictiz.nl/fhir/StructureDefinition/zib-Medication-MedicationTreatment">
               <valueIdentifier>
                  <system value="urn:oid:2.16.840.1.113883.2.4.3.11.999.77.1.1"/>
                  <value value="MBH_313_4"/>
               </valueIdentifier>
            </extension>
            <identifier>
               <system value="urn:oid:2.16.840.1.113883.2.4.3.11.999.77.6.1"/>
               <value value="MBH_313_4_MGB_1"/>
            </identifier>
            <status value="active"/>
            <category>
               <coding>
                  <system value="urn:oid:2.16.840.1.113883.2.4.3.11.60.20.77.5.3"/>
                  <code value="6"/>
                  <display value="Medicatiegebruik"/>
               </coding>
               <text value="Medicatiegebruik"/>
            </category>
            <medicationReference>
               <reference value="urn:oid:2.16.840.1.113883.2.4.4.10.88803"/>
               <display value="Omeprazol tablet MSR 40mg"/>
            </medicationReference>
            <effectivePeriod>
               <start value="${DATE, T, D, -300}T00:00:00+02:00"/>
            </effectivePeriod>
            <dateAsserted value="${DATE, T, D, -300}T17:23:00+02:00"/>
            <subject>
               <reference value="urn:uuid:47db3f28-6b04-11ec-0000-020000000000"/>
               <display value="J. XXX_Cnossen"/>
            </subject>
            <derivedFrom>
               <identifier>
                  <system value="urn:oid:2.16.840.1.113883.2.4.3.11.999.77.16076005.1"/>
                  <value value="MBH_313_4_MA_1"/>
               </identifier>
               <display value="relatie naar medicatieafspraak"/>
            </derivedFrom>
            <taken value="n"/>
            <dosage>
               <sequence value="1"/>
               <text value="Vanaf T - 300 dagen, 1 maal per dag 1 stuk, oraal, geneesmiddel niet in gebruik"/>
               <timing>
                  <repeat>
                     <frequency value="1"/>
                     <period value="1"/>
                     <periodUnit value="d"/>
                  </repeat>
               </timing>
               <route>
                  <coding>
                     <system value="urn:oid:2.16.840.1.113883.2.4.4.9"/>
                     <code value="9"/>
                     <display value="oraal"/>
                  </coding>
               </route>
               <doseQuantity>
                  <value value="1"/>
                  <unit value="stuk"/>
                  <system value="urn:oid:2.16.840.1.113883.2.4.4.1.900.2"/>
                  <code value="245"/>
               </doseQuantity>
            </dosage>
         </MedicationStatement>
      </resource>
      <search>
         <mode value="match"/>
      </search>
   </entry>
   <entry>
      <fullUrl value="urn:uuid:89d9fcbc-6b1b-11ec-0000-020000000000"/>
      <resource>
         <MedicationStatement>
            <meta>
               <profile value="http://nictiz.nl/fhir/StructureDefinition/zib-MedicationUse"/>
            </meta>
            <text>
               <status value="extensions"/>
               <div xmlns="http://www.w3.org/1999/xhtml">
                  <table>
                     <caption>MedicationStatement. Subject: J. XXX_Cnossen. Id: MBH_313_4_MGB_2 (urn:oid:2.16.840.1.113883.2.4.3.11.999.77.6.1), Categorie: 
<span title="Medicatiegebruik (6 - 2.16.840.1.113883.2.4.3.11.60.20.77.5.3)">Medicatiegebruik</span>, Status: in de wacht
<span style="display: block;">Auteur: J. XXX_Cnossen</span>
                     </caption>
                     <tbody>
                        <tr>
                           <th>Medicamenteuze behandel-id</th>
                           <td>MBH_313_4 (urn:oid:2.16.840.1.113883.2.4.3.11.999.77.1.1)</td>
                        </tr>
                        <tr>
                           <th>Voorschrijver</th>
                           <td>John de Vries || Huisartsen, niet nader gespecificeerd || Huisartsenpraktijk Pulver &amp; Partners</td>
                        </tr>
                        <tr>
                           <th>Medicatie</th>
                           <td>Omeprazol tablet MSR 40mg</td>
                        </tr>
                        <tr>
                           <th>Datum/tijd</th>
                           <td>Vanaf ${DATE, T, D, -222}T00:00:00+02:00</td>
                        </tr>
                        <tr>
                           <th>Informant</th>
                           <td>${DATE, T, D, -222}T19:35:00+02:00</td>
                        </tr>
                        <tr>
                           <th>Ondersteunende informatie</th>
                           <td>relatie naar medicatieafspraak (Id: MBH_313_4_MA_2 (urn:oid:2.16.840.1.113883.2.4.3.11.999.77.16076005.1))</td>
                        </tr>
                        <tr>
                           <th>Dosering</th>
                           <td>
                              <div>Tekst: Vanaf T - 222 dagen, geneesmiddel niet in gebruik, tijdelijk gestopt</div>
                           </td>
                        </tr>
                        <tr>
                           <th>Medicatie gebruikt</th>
                           <td>nee</td>
                        </tr>
                     </tbody>
                  </table>
               </div>
            </text>
            <extension url="http://nictiz.nl/fhir/StructureDefinition/zib-MedicationUse-AsAgreedIndicator">
               <valueBoolean value="true"/>
            </extension>
            <extension url="http://nictiz.nl/fhir/StructureDefinition/zib-MedicationUse-Prescriber">
               <valueReference>
                  <reference value="urn:uuid:3a4fc4a9-6b79-11ec-0000-020000000000"/>
                  <display value="John de Vries || Huisartsen, niet nader gespecificeerd || Huisartsenpraktijk Pulver &amp; Partners"/>
               </valueReference>
            </extension>
            <extension url="http://nictiz.nl/fhir/StructureDefinition/zib-MedicationUse-Author">
               <valueReference>
                  <reference value="urn:uuid:47db3f28-6b04-11ec-0000-020000000000"/>
                  <display value="J. XXX_Cnossen"/>
               </valueReference>
            </extension>
            <extension url="http://nictiz.nl/fhir/StructureDefinition/zib-Medication-MedicationTreatment">
               <valueIdentifier>
                  <system value="urn:oid:2.16.840.1.113883.2.4.3.11.999.77.1.1"/>
                  <value value="MBH_313_4"/>
               </valueIdentifier>
            </extension>
            <identifier>
               <system value="urn:oid:2.16.840.1.113883.2.4.3.11.999.77.6.1"/>
               <value value="MBH_313_4_MGB_2"/>
            </identifier>
            <status value="on-hold"/>
            <category>
               <coding>
                  <system value="urn:oid:2.16.840.1.113883.2.4.3.11.60.20.77.5.3"/>
                  <code value="6"/>
                  <display value="Medicatiegebruik"/>
               </coding>
               <text value="Medicatiegebruik"/>
            </category>
            <medicationReference>
               <reference value="urn:oid:2.16.840.1.113883.2.4.4.10.88803"/>
               <display value="Omeprazol tablet MSR 40mg"/>
            </medicationReference>
            <effectivePeriod>
               <start value="${DATE, T, D, -222}T00:00:00+02:00"/>
            </effectivePeriod>
            <dateAsserted value="${DATE, T, D, -222}T19:35:00+02:00"/>
            <subject>
               <reference value="urn:uuid:47db3f28-6b04-11ec-0000-020000000000"/>
               <display value="J. XXX_Cnossen"/>
            </subject>
            <derivedFrom>
               <identifier>
                  <system value="urn:oid:2.16.840.1.113883.2.4.3.11.999.77.16076005.1"/>
                  <value value="MBH_313_4_MA_2"/>
               </identifier>
               <display value="relatie naar medicatieafspraak"/>
            </derivedFrom>
            <taken value="n"/>
            <dosage>
               <text value="Vanaf T - 222 dagen, geneesmiddel niet in gebruik, tijdelijk gestopt"/>
            </dosage>
         </MedicationStatement>
      </resource>
      <search>
         <mode value="match"/>
      </search>
   </entry>
   <entry>
      <fullUrl value="urn:uuid:47db3f28-6b04-11ec-0000-020000000000"/>
      <resource>
         <Patient>
            <meta>
               <profile value="http://fhir.nl/fhir/StructureDefinition/nl-core-patient"/>
            </meta>
            <text>
               <status value="extensions"/>
               <div xmlns="http://www.w3.org/1999/xhtml">
                  <div>Id 
<i>afgeschermd (ontbrekend gegeven)</i> (BSN), Id 31105 (urn:oid:2.16.840.1.113883.2.4.3.11.999.77.19829.1), 
<span title="Naamsamenstelling: Eigennaam">J. XXX_Cnossen</span>, Man, 4 augustus 1964</div>
               </div>
            </text>
            <identifier>
               <system value="http://fhir.nl/fhir/NamingSystem/bsn"/>
               <value>
                  <extension url="http://hl7.org/fhir/StructureDefinition/data-absent-reason">
                     <valueCode value="masked"/>
                  </extension>
               </value>
            </identifier>
            <identifier>
               <system value="urn:oid:2.16.840.1.113883.2.4.3.11.999.77.19829.1"/>
               <value value="31105"/>
            </identifier>
            <name>
               <extension url="http://hl7.org/fhir/StructureDefinition/humanname-assembly-order">
                  <valueCode value="NL1"/>
               </extension>
               <family value="XXX_Cnossen">
                  <extension url="http://hl7.org/fhir/StructureDefinition/humanname-own-name">
                     <valueString value="XXX_Cnossen"/>
                  </extension>
               </family>
               <given value="J.">
                  <extension url="http://hl7.org/fhir/StructureDefinition/iso21090-EN-qualifier">
                     <valueCode value="IN"/>
                  </extension>
               </given>
            </name>
            <gender value="male">
               <extension url="http://nictiz.nl/fhir/StructureDefinition/code-specification">
                  <valueCodeableConcept>
                     <coding>
                        <system value="http://hl7.org/fhir/v3/AdministrativeGender"/>
                        <code value="M"/>
                        <display value="Man"/>
                     </coding>
                  </valueCodeableConcept>
               </extension>
            </gender>
            <birthDate value="1964-08-04"/>
         </Patient>
      </resource>
      <search>
         <mode value="include"/>
      </search>
   </entry>
   <entry>
      <fullUrl value="urn:oid:2.16.528.1.1007.3.1.1111"/>
      <resource>
         <Practitioner>
            <meta>
               <profile value="http://fhir.nl/fhir/StructureDefinition/nl-core-practitioner"/>
            </meta>
            <text>
               <status value="extensions"/>
               <div xmlns="http://www.w3.org/1999/xhtml">
                  <div>Id 000001111 (UZI-NR-PERS), Peter van Pulver</div>
                  <div>Dorpsstraat 1, 1234AA Ons Dorp (WP)</div>
               </div>
            </text>
            <identifier>
               <system value="http://fhir.nl/fhir/NamingSystem/uzi-nr-pers"/>
               <value value="000001111"/>
            </identifier>
            <name>
               <family value="van Pulver">
                  <extension url="http://hl7.org/fhir/StructureDefinition/humanname-own-prefix">
                     <valueString value="van"/>
                  </extension>
                  <extension url="http://hl7.org/fhir/StructureDefinition/humanname-own-name">
                     <valueString value="Pulver"/>
                  </extension>
               </family>
               <given value="Peter">
                  <extension url="http://hl7.org/fhir/StructureDefinition/iso21090-EN-qualifier">
                     <valueCode value="BR"/>
                  </extension>
               </given>
            </name>
            <address>
               <extension url="http://nictiz.nl/fhir/StructureDefinition/zib-AddressInformation-AddressType">
                  <valueCodeableConcept>
                     <coding>
                        <system value="http://hl7.org/fhir/v3/AddressUse"/>
                        <code value="WP"/>
                        <display value="Werkadres"/>
                     </coding>
                  </valueCodeableConcept>
               </extension>
               <use value="work"/>
               <line value="Dorpsstraat 1">
                  <extension url="http://hl7.org/fhir/StructureDefinition/iso21090-ADXP-streetName">
                     <valueString value="Dorpsstraat"/>
                  </extension>
                  <extension url="http://hl7.org/fhir/StructureDefinition/iso21090-ADXP-houseNumber">
                     <valueString value="1"/>
                  </extension>
               </line>
               <city value="Ons Dorp"/>
               <postalCode value="1234AA"/>
            </address>
         </Practitioner>
      </resource>
      <search>
         <mode value="include"/>
      </search>
   </entry>
   <entry>
      <fullUrl value="urn:uuid:c69509a9-6a95-11ec-0000-020000000000"/>
      <resource>
         <Practitioner>
            <meta>
               <profile value="http://fhir.nl/fhir/StructureDefinition/nl-core-practitioner"/>
            </meta>
            <text>
               <status value="extensions"/>
               <div xmlns="http://www.w3.org/1999/xhtml">
                  <div>John de Vries</div>
                  <div>Dorpsstraat 1, 1234AA Ons Dorp (WP)</div>
               </div>
            </text>
            <name>
               <family value="de Vries">
                  <extension url="http://hl7.org/fhir/StructureDefinition/humanname-own-prefix">
                     <valueString value="de"/>
                  </extension>
                  <extension url="http://hl7.org/fhir/StructureDefinition/humanname-own-name">
                     <valueString value="Vries"/>
                  </extension>
               </family>
               <given value="John">
                  <extension url="http://hl7.org/fhir/StructureDefinition/iso21090-EN-qualifier">
                     <valueCode value="BR"/>
                  </extension>
               </given>
            </name>
            <address>
               <extension url="http://nictiz.nl/fhir/StructureDefinition/zib-AddressInformation-AddressType">
                  <valueCodeableConcept>
                     <coding>
                        <system value="http://hl7.org/fhir/v3/AddressUse"/>
                        <code value="WP"/>
                        <display value="Werkadres"/>
                     </coding>
                  </valueCodeableConcept>
               </extension>
               <use value="work"/>
               <line value="Dorpsstraat 1">
                  <extension url="http://hl7.org/fhir/StructureDefinition/iso21090-ADXP-streetName">
                     <valueString value="Dorpsstraat"/>
                  </extension>
                  <extension url="http://hl7.org/fhir/StructureDefinition/iso21090-ADXP-houseNumber">
                     <valueString value="1"/>
                  </extension>
               </line>
               <city value="Ons Dorp"/>
               <postalCode value="1234AA"/>
            </address>
         </Practitioner>
      </resource>
      <search>
         <mode value="include"/>
      </search>
   </entry>
   <entry>
      <fullUrl value="urn:oid:2.16.528.1.1007.3.3.1111"/>
      <resource>
         <Organization>
            <meta>
               <profile value="http://fhir.nl/fhir/StructureDefinition/nl-core-organization"/>
            </meta>
            <text>
               <status value="extensions"/>
               <div xmlns="http://www.w3.org/1999/xhtml">
                  <table>
                     <caption>Organisatie. Id: 00001111 (URA)</caption>
                     <tbody>
                        <tr>
                           <th>Naam</th>
                           <td>Huisartsenpraktijk Pulver &amp; Partners</td>
                        </tr>
                        <tr>
                           <th>Adres</th>
                           <td>Dorpsstraat 1, 1234AA Ons Dorp (WP)</td>
                        </tr>
                     </tbody>
                  </table>
               </div>
            </text>
            <identifier>
               <system value="http://fhir.nl/fhir/NamingSystem/ura"/>
               <value value="00001111"/>
            </identifier>
            <name value="Huisartsenpraktijk Pulver &amp; Partners"/>
            <address>
               <extension url="http://nictiz.nl/fhir/StructureDefinition/zib-AddressInformation-AddressType">
                  <valueCodeableConcept>
                     <coding>
                        <system value="http://hl7.org/fhir/v3/AddressUse"/>
                        <code value="WP"/>
                        <display value="Werkadres"/>
                     </coding>
                  </valueCodeableConcept>
               </extension>
               <use value="work"/>
               <line value="Dorpsstraat 1">
                  <extension url="http://hl7.org/fhir/StructureDefinition/iso21090-ADXP-streetName">
                     <valueString value="Dorpsstraat"/>
                  </extension>
                  <extension url="http://hl7.org/fhir/StructureDefinition/iso21090-ADXP-houseNumber">
                     <valueString value="1"/>
                  </extension>
               </line>
               <city value="Ons Dorp"/>
               <postalCode value="1234AA"/>
            </address>
         </Organization>
      </resource>
      <search>
         <mode value="include"/>
      </search>
   </entry>
   <entry>
      <fullUrl value="urn:uuid:71e44400-6b21-11ec-0000-020000000000"/>
      <resource>
         <Organization>
            <meta>
               <profile value="http://fhir.nl/fhir/StructureDefinition/nl-core-organization"/>
            </meta>
            <text>
               <status value="extensions"/>
               <div xmlns="http://www.w3.org/1999/xhtml">
                  <table>
                     <caption>Organisatie. Id: 00001111 (URA)</caption>
                     <tbody>
                        <tr>
                           <th>Naam</th>
                           <td>Huisartsenpraktijk Pulver &amp; Partners</td>
                        </tr>
                     </tbody>
                  </table>
               </div>
            </text>
            <identifier>
               <system value="http://fhir.nl/fhir/NamingSystem/ura"/>
               <value value="00001111"/>
            </identifier>
            <name value="Huisartsenpraktijk Pulver &amp; Partners"/>
         </Organization>
      </resource>
      <search>
         <mode value="include"/>
      </search>
   </entry>
   <entry>
      <fullUrl value="urn:oid:2.16.528.1.1007.3.3.1236578"/>
      <resource>
         <Organization>
            <meta>
               <profile value="http://fhir.nl/fhir/StructureDefinition/nl-core-organization"/>
            </meta>
            <text>
               <status value="extensions"/>
               <div xmlns="http://www.w3.org/1999/xhtml">
                  <table>
                     <caption>Organisatie. Id: 01236578 (URA)</caption>
                     <tbody>
                        <tr>
                           <th>Naam</th>
                           <td>Apotheek De Gulle Gaper</td>
                        </tr>
                     </tbody>
                  </table>
               </div>
            </text>
            <identifier>
               <system value="http://fhir.nl/fhir/NamingSystem/ura"/>
               <value value="01236578"/>
            </identifier>
            <name value="Apotheek De Gulle Gaper"/>
         </Organization>
      </resource>
      <search>
         <mode value="include"/>
      </search>
   </entry>
   <entry>
      <fullUrl value="urn:uuid:26763470-6acf-11ec-0000-020000000000"/>
      <resource>
         <PractitionerRole>
            <meta>
               <profile value="http://fhir.nl/fhir/StructureDefinition/nl-core-practitionerrole"/>
            </meta>
            <text>
               <status value="extensions"/>
               <div xmlns="http://www.w3.org/1999/xhtml">
                  <table>
                     <caption>Zorgverlenerrol. </caption>
                     <tbody>
                        <tr>
                           <th>Zorgverlener</th>
                           <td>
                              <div>Peter van Pulver</div>
                              <div>Huisartsenpraktijk Pulver &amp; Partners</div>
                           </td>
                        </tr>
                        <tr>
                           <th>Specialisme</th>
                           <td>
                              <span title="Huisartsen, niet nader gespecificeerd (0100 - AGB-medisch specialisme)">Huisartsen, niet nader gespecificeerd</span>
                           </td>
                        </tr>
                     </tbody>
                  </table>
               </div>
            </text>
            <practitioner>
               <reference value="urn:oid:2.16.528.1.1007.3.1.1111"/>
               <display value="Peter van Pulver"/>
            </practitioner>
            <organization>
               <reference value="urn:oid:2.16.528.1.1007.3.3.1111"/>
               <display value="Huisartsenpraktijk Pulver &amp; Partners"/>
            </organization>
            <specialty>
               <coding>
                  <system value="urn:oid:2.16.840.1.113883.2.4.6.7"/>
                  <version value="2017-12-14T00:00:00"/>
                  <code value="0100"/>
                  <display value="Huisartsen, niet nader gespecificeerd"/>
               </coding>
            </specialty>
         </PractitionerRole>
      </resource>
      <search>
         <mode value="include"/>
      </search>
   </entry>
   <entry>
      <fullUrl value="urn:uuid:a2355d00-6b2f-11ec-0000-020000000000"/>
      <resource>
         <PractitionerRole>
            <meta>
               <profile value="http://fhir.nl/fhir/StructureDefinition/nl-core-practitionerrole"/>
            </meta>
            <text>
               <status value="extensions"/>
               <div xmlns="http://www.w3.org/1999/xhtml">
                  <table>
                     <caption>Zorgverlenerrol. </caption>
                     <tbody>
                        <tr>
                           <th>Zorgverlener</th>
                           <td>
                              <div>Peter van Pulver</div>
                              <div>Huisartsenpraktijk Pulver &amp; Partners</div>
                           </td>
                        </tr>
                        <tr>
                           <th>Specialisme</th>
                           <td>
                              <span title="Huisartsen, niet nader gespecificeerd (0100 - AGB-medisch specialisme)">Huisartsen, niet nader gespecificeerd</span>
                           </td>
                        </tr>
                     </tbody>
                  </table>
               </div>
            </text>
            <practitioner>
               <reference value="urn:oid:2.16.528.1.1007.3.1.1111"/>
               <display value="Peter van Pulver"/>
            </practitioner>
            <organization>
               <reference value="urn:uuid:71e44400-6b21-11ec-0000-020000000000"/>
               <display value="Huisartsenpraktijk Pulver &amp; Partners"/>
            </organization>
            <specialty>
               <coding>
                  <system value="urn:oid:2.16.840.1.113883.2.4.6.7"/>
                  <version value="2017-12-14T00:00:00"/>
                  <code value="0100"/>
                  <display value="Huisartsen, niet nader gespecificeerd"/>
               </coding>
            </specialty>
         </PractitionerRole>
      </resource>
      <search>
         <mode value="include"/>
      </search>
   </entry>
   <entry>
      <fullUrl value="urn:uuid:9620e560-6b5c-11ec-0000-020000000000"/>
      <resource>
         <PractitionerRole>
            <meta>
               <profile value="http://fhir.nl/fhir/StructureDefinition/nl-core-practitionerrole"/>
            </meta>
            <text>
               <status value="extensions"/>
               <div xmlns="http://www.w3.org/1999/xhtml">
                  <table>
                     <caption>Zorgverlenerrol. </caption>
                     <tbody>
                        <tr>
                           <th>Zorgverlener</th>
                           <td>
                              <div>John de Vries</div>
                              <div>Huisartsenpraktijk Pulver &amp; Partners</div>
                           </td>
                        </tr>
                        <tr>
                           <th>Specialisme</th>
                           <td>
                              <span title="Huisartsen, niet nader gespecificeerd (0100 - AGB-medisch specialisme)">Huisartsen, niet nader gespecificeerd</span>
                           </td>
                        </tr>
                     </tbody>
                  </table>
               </div>
            </text>
            <practitioner>
               <reference value="urn:uuid:c69509a9-6a95-11ec-0000-020000000000"/>
               <display value="John de Vries"/>
            </practitioner>
            <organization>
               <reference value="urn:oid:2.16.528.1.1007.3.3.1111"/>
               <display value="Huisartsenpraktijk Pulver &amp; Partners"/>
            </organization>
            <specialty>
               <coding>
                  <system value="urn:oid:2.16.840.1.113883.2.4.6.7"/>
                  <version value="2017-12-14T00:00:00"/>
                  <code value="0100"/>
                  <display value="Huisartsen, niet nader gespecificeerd"/>
               </coding>
            </specialty>
         </PractitionerRole>
      </resource>
      <search>
         <mode value="include"/>
      </search>
   </entry>
   <entry>
      <fullUrl value="urn:uuid:3a4fc4a9-6b79-11ec-0000-020000000000"/>
      <resource>
         <PractitionerRole>
            <meta>
               <profile value="http://fhir.nl/fhir/StructureDefinition/nl-core-practitionerrole"/>
            </meta>
            <text>
               <status value="extensions"/>
               <div xmlns="http://www.w3.org/1999/xhtml">
                  <table>
                     <caption>Zorgverlenerrol. </caption>
                     <tbody>
                        <tr>
                           <th>Zorgverlener</th>
                           <td>
                              <div>John de Vries</div>
                              <div>Huisartsenpraktijk Pulver &amp; Partners</div>
                           </td>
                        </tr>
                        <tr>
                           <th>Specialisme</th>
                           <td>
                              <span title="Huisartsen, niet nader gespecificeerd (0100 - AGB-medisch specialisme)">Huisartsen, niet nader gespecificeerd</span>
                           </td>
                        </tr>
                     </tbody>
                  </table>
               </div>
            </text>
            <practitioner>
               <reference value="urn:uuid:c69509a9-6a95-11ec-0000-020000000000"/>
               <display value="John de Vries"/>
            </practitioner>
            <organization>
               <reference value="urn:uuid:71e44400-6b21-11ec-0000-020000000000"/>
               <display value="Huisartsenpraktijk Pulver &amp; Partners"/>
            </organization>
            <specialty>
               <coding>
                  <system value="urn:oid:2.16.840.1.113883.2.4.6.7"/>
                  <version value="2017-12-14T00:00:00"/>
                  <code value="0100"/>
                  <display value="Huisartsen, niet nader gespecificeerd"/>
               </coding>
            </specialty>
         </PractitionerRole>
      </resource>
      <search>
         <mode value="include"/>
      </search>
   </entry>
   <entry>
      <fullUrl value="urn:oid:2.16.840.1.113883.2.4.4.10.59919"/>
      <resource>
         <Medication>
            <meta>
               <profile value="http://nictiz.nl/fhir/StructureDefinition/zib-Product"/>
            </meta>
            <text>
               <status value="extensions"/>
               <div xmlns="http://www.w3.org/1999/xhtml">
                  <table>
                     <tbody>
                        <tr>
                           <th>Code</th>
                           <td>
                              <span title="Tiotropium inhalatiecapsule 18ug (59919 - G-Standaard PRK)">Tiotropium inhalatiecapsule 18ug</span>
                           </td>
                        </tr>
                     </tbody>
                  </table>
               </div>
            </text>
            <code>
               <coding>
                  <system value="urn:oid:2.16.840.1.113883.2.4.4.10"/>
                  <code value="59919"/>
                  <display value="Tiotropium inhalatiecapsule 18ug"/>
                  <userSelected value="true"/>
               </coding>
               <coding>
                  <system value="urn:oid:2.16.840.1.113883.2.4.4.1"/>
                  <code value="115371"/>
                  <display value="TIOTROPIUM 18UG INHALCAPS"/>
               </coding>
               <text value="Tiotropium inhalatiecapsule 18ug"/>
            </code>
         </Medication>
      </resource>
      <search>
         <mode value="include"/>
      </search>
   </entry>
   <entry>
      <fullUrl value="urn:oid:2.16.840.1.113883.2.4.4.7.1476866"/>
      <resource>
         <Medication>
            <meta>
               <profile value="http://nictiz.nl/fhir/StructureDefinition/zib-Product"/>
            </meta>
            <text>
               <status value="extensions"/>
               <div xmlns="http://www.w3.org/1999/xhtml">
                  <table>
                     <tbody>
                        <tr>
                           <th>Code</th>
                           <td>
                              <span title="SPIRIVA INHALPDR 18MCG (1476866 - G-Standaard HPK)">SPIRIVA INHALPDR 18MCG</span>
                           </td>
                        </tr>
                     </tbody>
                  </table>
               </div>
            </text>
            <code>
               <coding>
                  <system value="urn:oid:2.16.840.1.113883.2.4.4.7"/>
                  <code value="1476866"/>
                  <display value="SPIRIVA INHALPDR 18MCG"/>
                  <userSelected value="true"/>
               </coding>
               <coding>
                  <system value="urn:oid:2.16.840.1.113883.2.4.4.10"/>
                  <code value="59919"/>
                  <display value="TIOTROPIUM 18UG INHALCAPS"/>
               </coding>
               <coding>
                  <system value="urn:oid:2.16.840.1.113883.2.4.4.1"/>
                  <code value="115371"/>
                  <display value="TIOTROPIUM 18UG INHALCAPS"/>
               </coding>
               <text value="SPIRIVA INHALPDR 18MCG"/>
            </code>
         </Medication>
      </resource>
      <search>
         <mode value="include"/>
      </search>
   </entry>
   <entry>
      <fullUrl value="urn:oid:2.16.840.1.113883.2.4.4.10.60526"/>
      <resource>
         <Medication>
            <meta>
               <profile value="http://nictiz.nl/fhir/StructureDefinition/zib-Product"/>
            </meta>
            <text>
               <status value="extensions"/>
               <div xmlns="http://www.w3.org/1999/xhtml">
                  <table>
                     <tbody>
                        <tr>
                           <th>Code</th>
                           <td>
                              <span title="Timolol/Latanoprost oogdr 5mg/50ug/ml fl 2,5ml (60526 - G-Standaard PRK)">Timolol/Latanoprost oogdr 5mg/50ug/ml fl 2,5ml</span>
                           </td>
                        </tr>
                     </tbody>
                  </table>
               </div>
            </text>
            <code>
               <coding>
                  <system value="urn:oid:2.16.840.1.113883.2.4.4.10"/>
                  <code value="60526"/>
                  <display value="Timolol/Latanoprost oogdr 5mg/50ug/ml fl 2,5ml"/>
                  <userSelected value="true"/>
               </coding>
               <coding>
                  <system value="urn:oid:2.16.840.1.113883.2.4.4.1"/>
                  <code value="114251"/>
                  <display value="TIMOL/LATA 5MG/50UG/ML OOGD"/>
               </coding>
               <text value="Timolol/Latanoprost oogdr 5mg/50ug/ml fl 2,5ml"/>
            </code>
         </Medication>
      </resource>
      <search>
         <mode value="include"/>
      </search>
   </entry>
   <entry>
      <fullUrl value="urn:oid:2.16.840.1.113883.2.4.4.7.2226294"/>
      <resource>
         <Medication>
            <meta>
               <profile value="http://nictiz.nl/fhir/StructureDefinition/zib-Product"/>
            </meta>
            <text>
               <status value="extensions"/>
               <div xmlns="http://www.w3.org/1999/xhtml">
                  <table>
                     <tbody>
                        <tr>
                           <th>Code</th>
                           <td>
                              <span title="LATANOPROST/TIMOLOL SDZ OOGDR 0,05/5MG/ML FL 2,5ML (2226294 - G-Standaard HPK)">LATANOPROST/TIMOLOL SDZ OOGDR 0,05/5MG/ML FL 2,5ML</span>
                           </td>
                        </tr>
                     </tbody>
                  </table>
               </div>
            </text>
            <code>
               <coding>
                  <system value="urn:oid:2.16.840.1.113883.2.4.4.7"/>
                  <code value="2226294"/>
                  <display value="LATANOPROST/TIMOLOL SDZ OOGDR 0,05/5MG/ML FL 2,5ML"/>
                  <userSelected value="true"/>
               </coding>
               <coding>
                  <system value="urn:oid:2.16.840.1.113883.2.4.4.10"/>
                  <code value="60526"/>
                  <display value="Timolol/Latanoprost oogdr 5mg/50ug/ml fl 2,5ml"/>
               </coding>
               <coding>
                  <system value="urn:oid:2.16.840.1.113883.2.4.4.1"/>
                  <code value="114251"/>
                  <display value="TIMOL/LATA 5MG/50UG/ML OOGD"/>
               </coding>
               <text value="LATANOPROST/TIMOLOL SDZ OOGDR 0,05/5MG/ML FL 2,5ML"/>
            </code>
         </Medication>
      </resource>
      <search>
         <mode value="include"/>
      </search>
   </entry>
   <entry>
      <fullUrl value="urn:oid:2.16.840.1.113883.2.4.4.10.13072"/>
      <resource>
         <Medication>
            <meta>
               <profile value="http://nictiz.nl/fhir/StructureDefinition/zib-Product"/>
            </meta>
            <text>
               <status value="extensions"/>
               <div xmlns="http://www.w3.org/1999/xhtml">
                  <table>
                     <tbody>
                        <tr>
                           <th>Code</th>
                           <td>
                              <span title="CARBASALAATCALCIUM 100MG PO (13072 - G-Standaard PRK)">CARBASALAATCALCIUM 100MG PO</span>
                           </td>
                        </tr>
                     </tbody>
                  </table>
               </div>
            </text>
            <code>
               <coding>
                  <system value="urn:oid:2.16.840.1.113883.2.4.4.10"/>
                  <code value="13072"/>
                  <display value="CARBASALAATCALCIUM 100MG PO"/>
                  <userSelected value="true"/>
               </coding>
               <coding>
                  <system value="urn:oid:2.16.840.1.113883.2.4.4.1"/>
                  <code value="82562"/>
                  <display value="CARBASALAATCALCIUM 100MG PO"/>
               </coding>
               <text value="CARBASALAATCALCIUM 100MG PO"/>
            </code>
         </Medication>
      </resource>
      <search>
         <mode value="include"/>
      </search>
   </entry>
   <entry>
      <fullUrl value="urn:oid:2.16.840.1.113883.2.4.4.7.1113534"/>
      <resource>
         <Medication>
            <meta>
               <profile value="http://nictiz.nl/fhir/StructureDefinition/zib-Product"/>
            </meta>
            <text>
               <status value="extensions"/>
               <div xmlns="http://www.w3.org/1999/xhtml">
                  <table>
                     <tbody>
                        <tr>
                           <th>Code</th>
                           <td>
                              <span title="CARBASALAATCALCIUM CF SACHET 100MG (1113534 - G-Standaard HPK)">CARBASALAATCALCIUM CF SACHET 100MG</span>
                           </td>
                        </tr>
                     </tbody>
                  </table>
               </div>
            </text>
            <code>
               <coding>
                  <system value="urn:oid:2.16.840.1.113883.2.4.4.7"/>
                  <code value="1113534"/>
                  <display value="CARBASALAATCALCIUM CF SACHET 100MG"/>
                  <userSelected value="true"/>
               </coding>
               <coding>
                  <system value="urn:oid:2.16.840.1.113883.2.4.4.10"/>
                  <code value="13072"/>
                  <display value="CARBASALAATCALCIUM 100MG PO"/>
               </coding>
               <coding>
                  <system value="urn:oid:2.16.840.1.113883.2.4.4.1"/>
                  <code value="82562"/>
                  <display value="CARBASALAATCALCIUM 100MG PO"/>
               </coding>
               <text value="CARBASALAATCALCIUM CF SACHET 100MG"/>
            </code>
         </Medication>
      </resource>
      <search>
         <mode value="include"/>
      </search>
   </entry>
   <entry>
      <fullUrl value="urn:oid:2.16.840.1.113883.2.4.4.10.88803"/>
      <resource>
         <Medication>
            <meta>
               <profile value="http://nictiz.nl/fhir/StructureDefinition/zib-Product"/>
            </meta>
            <text>
               <status value="extensions"/>
               <div xmlns="http://www.w3.org/1999/xhtml">
                  <table>
                     <tbody>
                        <tr>
                           <th>Code</th>
                           <td>
                              <span title="Omeprazol tablet MSR 40mg (88803 - G-Standaard PRK)">Omeprazol tablet MSR 40mg</span>
                           </td>
                        </tr>
                     </tbody>
                  </table>
               </div>
            </text>
            <code>
               <coding>
                  <system value="urn:oid:2.16.840.1.113883.2.4.4.10"/>
                  <code value="88803"/>
                  <display value="Omeprazol tablet MSR 40mg"/>
                  <userSelected value="true"/>
               </coding>
               <coding>
                  <system value="urn:oid:2.16.840.1.113883.2.4.4.1"/>
                  <code value="130621"/>
                  <display value="OMEPRAZOL 40MG TABLET MSR"/>
               </coding>
               <text value="Omeprazol tablet MSR 40mg"/>
            </code>
         </Medication>
      </resource>
      <search>
         <mode value="include"/>
      </search>
   </entry>
   <entry>
      <fullUrl value="urn:oid:2.16.840.1.113883.2.4.4.7.2124971"/>
      <resource>
         <Medication>
            <meta>
               <profile value="http://nictiz.nl/fhir/StructureDefinition/zib-Product"/>
            </meta>
            <text>
               <status value="extensions"/>
               <div xmlns="http://www.w3.org/1999/xhtml">
                  <table>
                     <tbody>
                        <tr>
                           <th>Code</th>
                           <td>
                              <span title="OMEPRAZOL SANDOZ MUT TABLET MSR 40MG (2124971 - G-Standaard HPK)">OMEPRAZOL SANDOZ MUT TABLET MSR 40MG</span>
                           </td>
                        </tr>
                     </tbody>
                  </table>
               </div>
            </text>
            <code>
               <coding>
                  <system value="urn:oid:2.16.840.1.113883.2.4.4.7"/>
                  <code value="2124971"/>
                  <display value="OMEPRAZOL SANDOZ MUT TABLET MSR 40MG"/>
                  <userSelected value="true"/>
               </coding>
               <coding>
                  <system value="urn:oid:2.16.840.1.113883.2.4.4.10"/>
                  <code value="88803"/>
                  <display value="Omeprazol tablet MSR 40mg"/>
               </coding>
               <coding>
                  <system value="urn:oid:2.16.840.1.113883.2.4.4.1"/>
                  <code value="130621"/>
                  <display value="OMEPRAZOL 40MG TABLET MSR"/>
               </coding>
               <text value="OMEPRAZOL SANDOZ MUT TABLET MSR 40MG"/>
            </code>
         </Medication>
      </resource>
      <search>
         <mode value="include"/>
      </search>
   </entry>
</Bundle>