<?xml-model href="http://hl7.org/fhir/STU3/bundle.sch" type="application/xml" schematypens="http://purl.oclc.org/dsdl/schematron"?><Bundle xmlns="http://hl7.org/fhir"
        xmlns:xsi="http://www.w3.org/2001/XMLSchema-instance"
        xsi:schemaLocation="http://hl7.org/fhir http://hl7.org/fhir/STU3/bundle.xsd">
   <type value="searchset"/>
   <total value="7"/>
   <entry>
      <fullUrl value="urn:uuid:c11655a0-12c2-11ea-1259-020000000000"/>
      <resource>
         <AllergyIntolerance>
            <meta>
               <profile value="http://nictiz.nl/fhir/StructureDefinition/zib-AllergyIntolerance"/>
            </meta>
            <identifier>
               <system value="urn:oid:2.16.840.1.113883.2.4.3.11.999.26.1.1"/>
               <value value="AI_01_01"/>
            </identifier>
            <clinicalStatus value="active">
               <extension url="http://nictiz.nl/fhir/StructureDefinition/code-specification">
                  <valueCodeableConcept>
                     <coding>
                        <system value="http://hl7.org/fhir/v3/ActStatus"/>
                        <code value="active"/>
                        <display value="Actief"/>
                     </coding>
                  </valueCodeableConcept>
               </extension>
            </clinicalStatus>
            <verificationStatus>
               <extension url="http://hl7.org/fhir/StructureDefinition/data-absent-reason">
                  <valueCode value="unknown"/>
               </extension>
            </verificationStatus>
            <category value="medication">
               <extension url="http://nictiz.nl/fhir/StructureDefinition/code-specification">
                  <valueCodeableConcept>
                     <coding>
                        <system value="http://snomed.info/sct"/>
                        <code value="419511003"/>
                        <display value="Medicijn"/>
                     </coding>
                  </valueCodeableConcept>
               </extension>
            </category>
            <criticality value="high">
               <extension url="http://nictiz.nl/fhir/StructureDefinition/code-specification">
                  <valueCodeableConcept>
                     <coding>
                        <system value="http://snomed.info/sct"/>
                        <code value="24484000"/>
                        <display value="Ernstig"/>
                     </coding>
                  </valueCodeableConcept>
               </extension>
            </criticality>
            <code>
               <coding>
                  <system value="urn:oid:2.16.840.1.113883.2.4.4.7"/>
                  <code value="1112821"/>
                  <display value="PREDNISOLON CAPSULE 65MG FNA MR"/>
               </coding>
            </code>
            <patient>
               <reference value="urn:uuid:c1164a45-12c2-11ea-1259-020000000000"/>
               <display value="Kendrick K. Ken YYY_Yong20"/>
            </patient>
            <onsetDateTime value="2019-10-10"/>
            <recorder>
               <extension url="http://nictiz.nl/fhir/StructureDefinition/practitionerrole-reference">
                  <valueReference>
                     <reference value="urn:uuid:c11655a5-12c2-11ea-1259-020000000000"/>
                     <display value="M. Boot || Allergoloog (gesloten register)"/>
                  </valueReference>
               </extension>
            </recorder>
            <asserter>
               <extension url="http://nictiz.nl/fhir/StructureDefinition/practitionerrole-reference">
                  <valueReference>
                     <reference value="urn:uuid:c11655a5-12c2-11ea-1259-020000000000"/>
                     <display value="M. Boot || Allergoloog (gesloten register)"/>
                  </valueReference>
               </extension>
            </asserter>
            <lastOccurrence value="${DATE, T, D, -50}T17:45:00+02:00"/>
            <note>
               <text value="Geldt alleen voor dit merk."/>
            </note>
            <reaction>
               <substance>
                  <coding>
                     <system value="urn:oid:2.16.840.1.113883.2.4.4.1.750"/>
                     <code value="4170"/>
                     <display value="Prednisolon"/>
                  </coding>
               </substance>
               <manifestation>
                  <coding>
                     <system value="http://snomed.info/sct"/>
                     <code value="23067006"/>
                     <display value="Toxische epidermale necrolyse"/>
                  </coding>
               </manifestation>
               <description value="Blaren op grote delen van de huid"/>
               <onset value="${DATE, T, D, -50}T17:45:00+02:00"/>
               <severity value="severe">
                  <extension url="http://nictiz.nl/fhir/StructureDefinition/code-specification">
                     <valueCodeableConcept>
                        <coding>
                           <system value="http://snomed.info/sct"/>
                           <code value="24484000"/>
                           <display value="Ernstig"/>
                        </coding>
                     </valueCodeableConcept>
                  </extension>
               </severity>
            </reaction>
         </AllergyIntolerance>
      </resource>
      <search>
         <mode value="match"/>
      </search>
   </entry>
   <entry>
      <fullUrl value="urn:uuid:c11655b9-12c2-11ea-1259-020000000000"/>
      <resource>
         <AllergyIntolerance>
            <meta>
               <profile value="http://nictiz.nl/fhir/StructureDefinition/zib-AllergyIntolerance"/>
            </meta>
            <identifier>
               <system value="urn:oid:2.16.840.1.113883.2.4.3.11.999.26.1.1"/>
               <value value="AI_01_02"/>
            </identifier>
            <clinicalStatus value="active">
               <extension url="http://nictiz.nl/fhir/StructureDefinition/code-specification">
                  <valueCodeableConcept>
                     <coding>
                        <system value="http://hl7.org/fhir/v3/ActStatus"/>
                        <code value="active"/>
                        <display value="Actief"/>
                     </coding>
                  </valueCodeableConcept>
               </extension>
            </clinicalStatus>
            <verificationStatus>
               <extension url="http://hl7.org/fhir/StructureDefinition/data-absent-reason">
                  <valueCode value="unknown"/>
               </extension>
            </verificationStatus>
            <category value="medication">
               <extension url="http://nictiz.nl/fhir/StructureDefinition/code-specification">
                  <valueCodeableConcept>
                     <coding>
                        <system value="http://snomed.info/sct"/>
                        <code value="419511003"/>
                        <display value="Medicijn"/>
                     </coding>
                  </valueCodeableConcept>
               </extension>
            </category>
            <criticality value="high">
               <extension url="http://nictiz.nl/fhir/StructureDefinition/code-specification">
                  <valueCodeableConcept>
                     <coding>
                        <system value="http://snomed.info/sct"/>
                        <code value="24484000"/>
                        <display value="Ernstig"/>
                     </coding>
                  </valueCodeableConcept>
               </extension>
            </criticality>
            <code>
               <coding>
                  <system value="urn:oid:2.16.840.1.113883.2.4.4.1.750"/>
                  <code value="4170"/>
                  <display value="Prednisolon"/>
               </coding>
            </code>
            <patient>
               <reference value="urn:uuid:c1164a45-12c2-11ea-1259-020000000000"/>
               <display value="Kendrick K. Ken YYY_Yong20"/>
            </patient>
            <onsetDateTime value="2019-08-21"/>
            <recorder>
               <extension url="http://nictiz.nl/fhir/StructureDefinition/practitionerrole-reference">
                  <valueReference>
                     <reference value="urn:uuid:c11655a5-12c2-11ea-1259-020000000000"/>
                     <display value="M. Boot || Allergoloog (gesloten register)"/>
                  </valueReference>
               </extension>
            </recorder>
            <asserter>
               <extension url="http://nictiz.nl/fhir/StructureDefinition/practitionerrole-reference">
                  <valueReference>
                     <reference value="urn:uuid:c11655a5-12c2-11ea-1259-020000000000"/>
                     <display value="M. Boot || Allergoloog (gesloten register)"/>
                  </valueReference>
               </extension>
            </asserter>
            <lastOccurrence value="${DATE, T, D, -100}"/>
            <reaction>
               <manifestation>
                  <coding>
                     <system value="http://snomed.info/sct"/>
                     <code value="23067006"/>
                     <display value="Toxische epidermale necrolyse"/>
                  </coding>
               </manifestation>
               <description value="Blaren op grote delen van de huid"/>
               <onset value="${DATE, T, D, -100}T11:00:00+02:00"/>
               <severity value="severe">
                  <extension url="http://nictiz.nl/fhir/StructureDefinition/code-specification">
                     <valueCodeableConcept>
                        <coding>
                           <system value="http://snomed.info/sct"/>
                           <code value="24484000"/>
                           <display value="Ernstig"/>
                        </coding>
                     </valueCodeableConcept>
                  </extension>
               </severity>
               <exposureRoute>
                  <coding>
                     <system value="http://snomed.info/sct"/>
                     <code value="445768003"/>
                     <display value="via de maag"/>
                  </coding>
               </exposureRoute>
            </reaction>
         </AllergyIntolerance>
      </resource>
      <search>
         <mode value="match"/>
      </search>
   </entry>
   <entry>
      <fullUrl value="urn:uuid:c11655d1-12c2-11ea-1259-020000000000"/>
      <resource>
         <AllergyIntolerance>
            <meta>
               <profile value="http://nictiz.nl/fhir/StructureDefinition/zib-AllergyIntolerance"/>
            </meta>
            <identifier>
               <system value="urn:oid:2.16.840.1.113883.2.4.3.11.999.26.1.1"/>
               <value value="AI_01_03"/>
            </identifier>
            <clinicalStatus value="active">
               <extension url="http://nictiz.nl/fhir/StructureDefinition/code-specification">
                  <valueCodeableConcept>
                     <coding>
                        <system value="http://hl7.org/fhir/v3/ActStatus"/>
                        <code value="active"/>
                        <display value="Actief"/>
                     </coding>
                  </valueCodeableConcept>
               </extension>
            </clinicalStatus>
            <verificationStatus>
               <extension url="http://hl7.org/fhir/StructureDefinition/data-absent-reason">
                  <valueCode value="unknown"/>
               </extension>
            </verificationStatus>
            <category value="medication">
               <extension url="http://nictiz.nl/fhir/StructureDefinition/code-specification">
                  <valueCodeableConcept>
                     <coding>
                        <system value="http://snomed.info/sct"/>
                        <code value="419511003"/>
                        <display value="Medicijn"/>
                     </coding>
                  </valueCodeableConcept>
               </extension>
            </category>
            <criticality value="high">
               <extension url="http://nictiz.nl/fhir/StructureDefinition/code-specification">
                  <valueCodeableConcept>
                     <coding>
                        <system value="http://snomed.info/sct"/>
                        <code value="24484000"/>
                        <display value="Ernstig"/>
                     </coding>
                  </valueCodeableConcept>
               </extension>
            </criticality>
            <code>
               <coding>
                  <system value="urn:oid:2.16.840.1.113883.2.4.4.1.725"/>
                  <code value="3158"/>
                  <display value="Prednisolon oraal"/>
               </coding>
            </code>
            <patient>
               <reference value="urn:uuid:c1164a45-12c2-11ea-1259-020000000000"/>
               <display value="Kendrick K. Ken YYY_Yong20"/>
            </patient>
            <onsetDateTime value="2019-07-02"/>
            <recorder>
               <extension url="http://nictiz.nl/fhir/StructureDefinition/practitionerrole-reference">
                  <valueReference>
                     <reference value="urn:uuid:c11655a5-12c2-11ea-1259-020000000000"/>
                     <display value="M. Boot || Allergoloog (gesloten register)"/>
                  </valueReference>
               </extension>
            </recorder>
            <asserter>
               <extension url="http://nictiz.nl/fhir/StructureDefinition/practitionerrole-reference">
                  <valueReference>
                     <reference value="urn:uuid:c11655a5-12c2-11ea-1259-020000000000"/>
                     <display value="M. Boot || Allergoloog (gesloten register)"/>
                  </valueReference>
               </extension>
            </asserter>
            <lastOccurrence value="${DATE, T, D, -150}"/>
            <reaction>
               <manifestation>
                  <coding>
                     <system value="http://snomed.info/sct"/>
                     <code value="271807003"/>
                     <display value="Exantheem"/>
                  </coding>
               </manifestation>
               <description value="Vlekken en bultjes op de huid"/>
               <severity value="severe">
                  <extension url="http://nictiz.nl/fhir/StructureDefinition/code-specification">
                     <valueCodeableConcept>
                        <coding>
                           <system value="http://snomed.info/sct"/>
                           <code value="24484000"/>
                           <display value="Ernstig"/>
                        </coding>
                     </valueCodeableConcept>
                  </extension>
               </severity>
            </reaction>
         </AllergyIntolerance>
      </resource>
      <search>
         <mode value="match"/>
      </search>
   </entry>
   <entry>
      <fullUrl value="urn:uuid:c1165137-12c2-11ea-1259-020000000000"/>
      <resource>
         <AllergyIntolerance>
            <meta>
               <profile value="http://nictiz.nl/fhir/StructureDefinition/zib-AllergyIntolerance"/>
            </meta>
            <identifier>
               <system value="urn:oid:2.16.840.1.113883.2.4.3.11.999.26.1.1"/>
               <value value="AI_01_04"/>
            </identifier>
            <clinicalStatus value="active">
               <extension url="http://nictiz.nl/fhir/StructureDefinition/code-specification">
                  <valueCodeableConcept>
                     <coding>
                        <system value="http://hl7.org/fhir/v3/ActStatus"/>
                        <code value="active"/>
                        <display value="Actief"/>
                     </coding>
                  </valueCodeableConcept>
               </extension>
            </clinicalStatus>
            <verificationStatus>
               <extension url="http://hl7.org/fhir/StructureDefinition/data-absent-reason">
                  <valueCode value="unknown"/>
               </extension>
            </verificationStatus>
            <category value="medication">
               <extension url="http://nictiz.nl/fhir/StructureDefinition/code-specification">
                  <valueCodeableConcept>
                     <coding>
                        <system value="http://snomed.info/sct"/>
                        <code value="419511003"/>
                        <display value="Medicijn"/>
                     </coding>
                  </valueCodeableConcept>
               </extension>
            </category>
            <criticality value="high">
               <extension url="http://nictiz.nl/fhir/StructureDefinition/code-specification">
                  <valueCodeableConcept>
                     <coding>
                        <system value="http://snomed.info/sct"/>
                        <code value="24484000"/>
                        <display value="Ernstig"/>
                     </coding>
                  </valueCodeableConcept>
               </extension>
            </criticality>
            <code>
               <coding>
                  <system value="urn:oid:2.16.840.1.113883.2.4.4.1.902.122"/>
                  <code value="74"/>
                  <display value="Corticosteroïden groep 1"/>
               </coding>
            </code>
            <patient>
               <reference value="urn:uuid:c1164a45-12c2-11ea-1259-020000000000"/>
               <display value="Kendrick K. Ken YYY_Yong20"/>
            </patient>
            <onsetDateTime value="2019-05-13"/>
            <assertedDate value="2019-08-01"/>
            <recorder>
               <extension url="http://nictiz.nl/fhir/StructureDefinition/practitionerrole-reference">
                  <valueReference>
                     <reference value="urn:uuid:c11655a5-12c2-11ea-1259-020000000000"/>
                     <display value="M. Boot || Allergoloog (gesloten register)"/>
                  </valueReference>
               </extension>
            </recorder>
            <asserter>
               <extension url="http://nictiz.nl/fhir/StructureDefinition/practitionerrole-reference">
                  <valueReference>
                     <reference value="urn:uuid:c11655a5-12c2-11ea-1259-020000000000"/>
                     <display value="M. Boot || Allergoloog (gesloten register)"/>
                  </valueReference>
               </extension>
            </asserter>
            <lastOccurrence value="${DATE, T, D, -200}T16:30:00+02:00"/>
            <reaction>
               <manifestation>
                  <coding>
                     <system value="http://snomed.info/sct"/>
                     <code value="271807003"/>
                     <display value="Exantheem"/>
                  </coding>
               </manifestation>
               <severity value="severe">
                  <extension url="http://nictiz.nl/fhir/StructureDefinition/code-specification">
                     <valueCodeableConcept>
                        <coding>
                           <system value="http://snomed.info/sct"/>
                           <code value="24484000"/>
                           <display value="Ernstig"/>
                        </coding>
                     </valueCodeableConcept>
                  </extension>
               </severity>
            </reaction>
         </AllergyIntolerance>
      </resource>
      <search>
         <mode value="match"/>
      </search>
   </entry>
   <entry>
      <fullUrl value="urn:uuid:c116514d-12c2-11ea-1259-020000000000"/>
      <resource>
         <AllergyIntolerance>
            <meta>
               <profile value="http://nictiz.nl/fhir/StructureDefinition/zib-AllergyIntolerance"/>
            </meta>
            <identifier>
               <system value="urn:oid:2.16.840.1.113883.2.4.3.11.999.26.1.1"/>
               <value value="AI_01_05"/>
            </identifier>
            <clinicalStatus value="active">
               <extension url="http://nictiz.nl/fhir/StructureDefinition/code-specification">
                  <valueCodeableConcept>
                     <coding>
                        <system value="http://hl7.org/fhir/v3/ActStatus"/>
                        <code value="active"/>
                        <display value="Actief"/>
                     </coding>
                  </valueCodeableConcept>
               </extension>
            </clinicalStatus>
            <verificationStatus>
               <extension url="http://hl7.org/fhir/StructureDefinition/data-absent-reason">
                  <valueCode value="unknown"/>
               </extension>
            </verificationStatus>
            <category value="biologic">
               <extension url="http://nictiz.nl/fhir/StructureDefinition/code-specification">
                  <valueCodeableConcept>
                     <coding>
                        <system value="http://snomed.info/sct"/>
                        <code value="419199007"/>
                        <display value="Stof of product"/>
                     </coding>
                  </valueCodeableConcept>
               </extension>
            </category>
            <criticality value="high">
               <extension url="http://nictiz.nl/fhir/StructureDefinition/code-specification">
                  <valueCodeableConcept>
                     <coding>
                        <system value="http://snomed.info/sct"/>
                        <code value="6736007"/>
                        <display value="Matig"/>
                     </coding>
                  </valueCodeableConcept>
               </extension>
            </criticality>
            <code>
               <coding>
                  <system value="http://snomed.info/sct"/>
                  <code value="300916003"/>
                  <display value="Latex"/>
               </coding>
            </code>
            <patient>
               <reference value="urn:uuid:c1164a45-12c2-11ea-1259-020000000000"/>
               <display value="Kendrick K. Ken YYY_Yong20"/>
            </patient>
            <onsetDateTime value="2010-04-30"/>
            <recorder>
               <extension url="http://nictiz.nl/fhir/StructureDefinition/practitionerrole-reference">
                  <valueReference>
                     <reference value="urn:uuid:c1165155-12c2-11ea-1259-020000000000"/>
                     <display value="A.B. Comenius de Vries || Huisartsen, niet nader gespecificeerd"/>
                  </valueReference>
               </extension>
            </recorder>
            <asserter>
               <reference value="urn:uuid:c11651e8-12c2-11ea-1259-020000000000"/>
               <display value="Abraham B.M.H. Bram Pasveer"/>
            </asserter>
            <lastOccurrence value="${DATE, T, D, -265}T14:30:00+02:00"/>
            <note>
               <text value="Dhr. werkt in de zorg en dient latexvrije handschoenen te dragen."/>
            </note>
            <reaction>
               <manifestation>
                  <coding>
                     <system value="http://snomed.info/sct"/>
                     <code value="418363000"/>
                     <display value="Jeuk"/>
                  </coding>
               </manifestation>
               <onset value="${DATE, T, D, -265}T14:30:00+02:00"/>
               <severity value="moderate">
                  <extension url="http://nictiz.nl/fhir/StructureDefinition/code-specification">
                     <valueCodeableConcept>
                        <coding>
                           <system value="http://snomed.info/sct"/>
                           <code value="6736007"/>
                           <display value="Matig"/>
                        </coding>
                     </valueCodeableConcept>
                  </extension>
               </severity>
            </reaction>
         </AllergyIntolerance>
      </resource>
      <search>
         <mode value="match"/>
      </search>
   </entry>
   <entry>
      <fullUrl value="urn:uuid:c1165164-12c2-11ea-1259-020000000000"/>
      <resource>
         <AllergyIntolerance>
            <meta>
               <profile value="http://nictiz.nl/fhir/StructureDefinition/zib-AllergyIntolerance"/>
            </meta>
            <identifier>
               <system value="urn:oid:2.16.840.1.113883.2.4.3.11.999.26.1.1"/>
               <value value="AI_01_06"/>
            </identifier>
            <clinicalStatus value="resolved">
               <extension url="http://nictiz.nl/fhir/StructureDefinition/code-specification">
                  <valueCodeableConcept>
                     <coding>
                        <system value="http://hl7.org/fhir/v3/ActStatus"/>
                        <code value="completed"/>
                        <display value="Niet meer aanwezig"/>
                     </coding>
                  </valueCodeableConcept>
               </extension>
            </clinicalStatus>
            <verificationStatus>
               <extension url="http://hl7.org/fhir/StructureDefinition/data-absent-reason">
                  <valueCode value="unknown"/>
               </extension>
            </verificationStatus>
            <category value="food">
               <extension url="http://nictiz.nl/fhir/StructureDefinition/code-specification">
                  <valueCodeableConcept>
                     <coding>
                        <system value="http://snomed.info/sct"/>
                        <code value="418471000"/>
                        <display value="Voeding"/>
                     </coding>
                  </valueCodeableConcept>
               </extension>
            </category>
            <code>
               <coding>
                  <system value="http://snomed.info/sct"/>
                  <code value="91935009"/>
                  <display value="Pinda"/>
               </coding>
            </code>
            <patient>
               <reference value="urn:uuid:c1164a45-12c2-11ea-1259-020000000000"/>
               <display value="Kendrick K. Ken YYY_Yong20"/>
            </patient>
            <onsetDateTime value="2006-03-22"/>
            <recorder>
               <extension url="http://nictiz.nl/fhir/StructureDefinition/practitionerrole-reference">
                  <valueReference>
                     <reference value="urn:uuid:c116516c-12c2-11ea-1259-020000000000"/>
                     <display value="Ottobert O. van Bekhoven || Huisartsen, niet nader gespecificeerd"/>
                  </valueReference>
               </extension>
            </recorder>
            <asserter>
               <reference value="urn:uuid:c1164a45-12c2-11ea-1259-020000000000"/>
               <display value="Kendrick K. Ken YYY_Yong20"/>
            </asserter>
         </AllergyIntolerance>
      </resource>
      <search>
         <mode value="match"/>
      </search>
   </entry>
   <entry>
      <fullUrl value="urn:uuid:c1165174-12c2-11ea-1259-020000000000"/>
      <resource>
         <AllergyIntolerance>
            <meta>
               <profile value="http://nictiz.nl/fhir/StructureDefinition/zib-AllergyIntolerance"/>
            </meta>
            <identifier>
               <system value="urn:oid:2.16.840.1.113883.2.4.3.11.999.26.1.1"/>
               <value value="AI_01_07"/>
            </identifier>
            <clinicalStatus value="active">
               <extension url="http://nictiz.nl/fhir/StructureDefinition/code-specification">
                  <valueCodeableConcept>
                     <coding>
                        <system value="http://hl7.org/fhir/v3/ActStatus"/>
                        <code value="active"/>
                        <display value="Actief"/>
                     </coding>
                  </valueCodeableConcept>
               </extension>
            </clinicalStatus>
            <verificationStatus>
               <extension url="http://hl7.org/fhir/StructureDefinition/data-absent-reason">
                  <valueCode value="unknown"/>
               </extension>
            </verificationStatus>
            <category value="environment">
               <extension url="http://nictiz.nl/fhir/StructureDefinition/code-specification">
                  <valueCodeableConcept>
                     <coding>
                        <system value="http://snomed.info/sct"/>
                        <code value="426232007"/>
                        <display value="Omgeving"/>
                     </coding>
                  </valueCodeableConcept>
               </extension>
            </category>
            <criticality value="high">
               <extension url="http://nictiz.nl/fhir/StructureDefinition/code-specification">
                  <valueCodeableConcept>
                     <coding>
                        <system value="http://snomed.info/sct"/>
                        <code value="6736007"/>
                        <display value="Matig"/>
                     </coding>
                  </valueCodeableConcept>
               </extension>
            </criticality>
            <code>
               <coding>
                  <system value="http://snomed.info/sct"/>
                  <code value="256259004"/>
                  <display value="Pollen"/>
               </coding>
            </code>
            <patient>
               <reference value="urn:uuid:c1164a45-12c2-11ea-1259-020000000000"/>
               <display value="Kendrick K. Ken YYY_Yong20"/>
            </patient>
            <onsetDateTime value="2018-07-17"/>
            <recorder>
               <extension url="http://nictiz.nl/fhir/StructureDefinition/practitionerrole-reference">
                  <valueReference>
                     <reference value="urn:uuid:c1165155-12c2-11ea-1259-020000000000"/>
                     <display value="A.B. Comenius de Vries || Huisartsen, niet nader gespecificeerd"/>
                  </valueReference>
               </extension>
            </recorder>
            <asserter>
               <extension url="http://nictiz.nl/fhir/StructureDefinition/practitionerrole-reference">
                  <valueReference>
                     <reference value="urn:uuid:c1165155-12c2-11ea-1259-020000000000"/>
                     <display value="A.B. Comenius de Vries || Huisartsen, niet nader gespecificeerd"/>
                  </valueReference>
               </extension>
            </asserter>
            <lastOccurrence value="${DATE, T, D, -99}"/>
            <reaction>
               <substance>
                  <coding>
                     <system value="http://snomed.info/sct"/>
                     <code value="256277009"/>
                     <display value="Graspollen"/>
                  </coding>
               </substance>
               <manifestation>
                  <coding>
                     <system value="http://snomed.info/sct"/>
                     <code value="490008"/>
                     <display value="Overgevoeligheidsreactie van de bovenste luchtwegen"/>
                  </coding>
               </manifestation>
               <description value="Veelvuldig niezen"/>
               <severity value="moderate">
                  <extension url="http://nictiz.nl/fhir/StructureDefinition/code-specification">
                     <valueCodeableConcept>
                        <coding>
                           <system value="http://snomed.info/sct"/>
                           <code value="6736007"/>
                           <display value="Matig"/>
                        </coding>
                     </valueCodeableConcept>
                  </extension>
               </severity>
            </reaction>
         </AllergyIntolerance>
      </resource>
      <search>
         <mode value="match"/>
      </search>
   </entry>
   <entry>
      <fullUrl value="urn:uuid:c1164a45-12c2-11ea-1259-020000000000"/>
      <resource>
         <Patient>
            <meta>
               <profile value="http://fhir.nl/fhir/StructureDefinition/nl-core-patient"/>
            </meta>
            <identifier>
               <system value="http://fhir.nl/fhir/NamingSystem/bsn"/>
               <value>
                  <extension url="http://hl7.org/fhir/StructureDefinition/data-absent-reason">
                     <valueCode value="masked"/>
                  </extension>
               </value>
            </identifier>
            <name>
               <extension url="http://hl7.org/fhir/StructureDefinition/humanname-assembly-order">
                  <valueCode value="NL1"/>
               </extension>
               <family value="YYY_Yong20">
                  <extension url="http://hl7.org/fhir/StructureDefinition/humanname-own-name">
                     <valueString value="YYY_Yong20"/>
                  </extension>
               </family>
               <given value="Kendrick">
                  <extension url="http://hl7.org/fhir/StructureDefinition/iso21090-EN-qualifier">
                     <valueCode value="BR"/>
                  </extension>
               </given>
               <given value="K.">
                  <extension url="http://hl7.org/fhir/StructureDefinition/iso21090-EN-qualifier">
                     <valueCode value="IN"/>
                  </extension>
               </given>
               <given value="Ken">
                  <extension url="http://hl7.org/fhir/StructureDefinition/iso21090-EN-qualifier">
                     <valueCode value="CL"/>
                  </extension>
               </given>
            </name>
            <telecom>
               <system value="phone">
                  <extension url="http://nictiz.nl/fhir/StructureDefinition/code-specification">
                     <valueCodeableConcept>
                        <coding>
                           <system value="http://hl7.org/fhir/v3/AddressUse"/>
                           <code value="MC"/>
                           <display value="Mobiel telefoonnummer"/>
                        </coding>
                     </valueCodeableConcept>
                  </extension>
               </system>
               <value value="06-12345678"/>
               <use value="mobile">
                  <extension url="http://nictiz.nl/fhir/StructureDefinition/code-specification">
                     <valueCodeableConcept>
                        <coding>
                           <system value="http://hl7.org/fhir/v3/AddressUse"/>
                           <code value="TMP"/>
                           <display value="Tijdelijk telefoonnummer"/>
                        </coding>
                     </valueCodeableConcept>
                  </extension>
               </use>
            </telecom>
            <telecom>
               <system value="email"/>
               <value value="XXX_Yong@123mail.com"/>
               <use value="home">
                  <extension url="http://nictiz.nl/fhir/StructureDefinition/code-specification">
                     <valueCodeableConcept>
                        <coding>
                           <system value="http://hl7.org/fhir/v3/AddressUse"/>
                           <code value="HP"/>
                           <display value="Privé e-mailadres"/>
                        </coding>
                     </valueCodeableConcept>
                  </extension>
               </use>
            </telecom>
            <gender value="male"/>
            <birthDate value="1964-08-07"/>
            <address>
               <use value="home">
                  <extension url="http://hl7.org/fhir/StructureDefinition/iso21090-AD-use">
                     <valueCode value="PHYS"/>
                  </extension>
               </use>
               <type value="physical"/>
               <line value="Knolweg 1003 a">
                  <extension url="http://hl7.org/fhir/StructureDefinition/iso21090-ADXP-streetName">
                     <valueString value="Knolweg"/>
                  </extension>
                  <extension url="http://hl7.org/fhir/StructureDefinition/iso21090-ADXP-houseNumber">
                     <valueString value="1003"/>
                  </extension>
                  <extension url="http://hl7.org/fhir/StructureDefinition/iso21090-ADXP-buildingNumberSuffix">
                     <valueString value="a"/>
                  </extension>
               </line>
               <city value="Stitswerd"/>
               <postalCode value="9999 ZA"/>
            </address>
         </Patient>
      </resource>
      <search>
         <mode value="include"/>
      </search>
   </entry>
   <entry>
      <fullUrl value="urn:oid:2.16.528.1.1007.3.1.111111111"/>
      <resource>
         <Practitioner>
            <meta>
               <profile value="http://fhir.nl/fhir/StructureDefinition/nl-core-practitioner"/>
            </meta>
            <identifier>
               <system value="http://fhir.nl/fhir/NamingSystem/uzi-nr-pers"/>
               <value value="111111111"/>
            </identifier>
            <name>
               <extension url="http://hl7.org/fhir/StructureDefinition/humanname-assembly-order">
                  <valueCode value="NL1"/>
               </extension>
               <family value="Comenius">
                  <extension url="http://hl7.org/fhir/StructureDefinition/humanname-own-name">
                     <valueString value="Comenius"/>
                  </extension>
                  <extension url="http://hl7.org/fhir/StructureDefinition/humanname-partner-prefix">
                     <valueString value="de"/>
                  </extension>
                  <extension url="http://hl7.org/fhir/StructureDefinition/humanname-partner-name">
                     <valueString value="Vries"/>
                  </extension>
               </family>
               <given value="A.B.">
                  <extension url="http://hl7.org/fhir/StructureDefinition/iso21090-EN-qualifier">
                     <valueCode value="IN"/>
                  </extension>
               </given>
            </name>
         </Practitioner>
      </resource>
      <search>
         <mode value="include"/>
      </search>
   </entry>
   <entry>
      <fullUrl value="urn:oid:2.16.528.1.1007.3.1.222222222"/>
      <resource>
         <Practitioner>
            <meta>
               <profile value="http://fhir.nl/fhir/StructureDefinition/nl-core-practitioner"/>
            </meta>
            <identifier>
               <system value="http://fhir.nl/fhir/NamingSystem/uzi-nr-pers"/>
               <value value="222222222"/>
            </identifier>
            <name>
               <extension url="http://hl7.org/fhir/StructureDefinition/humanname-assembly-order">
                  <valueCode value="NL1"/>
               </extension>
               <family value="van Bekhoven">
                  <extension url="http://hl7.org/fhir/StructureDefinition/humanname-own-prefix">
                     <valueString value="van"/>
                  </extension>
                  <extension url="http://hl7.org/fhir/StructureDefinition/humanname-own-name">
                     <valueString value="Bekhoven"/>
                  </extension>
               </family>
               <given value="Ottobert">
                  <extension url="http://hl7.org/fhir/StructureDefinition/iso21090-EN-qualifier">
                     <valueCode value="BR"/>
                  </extension>
               </given>
               <given value="O.">
                  <extension url="http://hl7.org/fhir/StructureDefinition/iso21090-EN-qualifier">
                     <valueCode value="IN"/>
                  </extension>
               </given>
            </name>
         </Practitioner>
      </resource>
      <search>
         <mode value="include"/>
      </search>
   </entry>
   <entry>
      <fullUrl value="urn:oid:2.16.528.1.1007.3.1.333333333"/>
      <resource>
         <Practitioner>
            <meta>
               <profile value="http://fhir.nl/fhir/StructureDefinition/nl-core-practitioner"/>
            </meta>
            <identifier>
               <system value="http://fhir.nl/fhir/NamingSystem/uzi-nr-pers"/>
               <value value="333333333"/>
            </identifier>
            <name>
               <extension url="http://hl7.org/fhir/StructureDefinition/humanname-assembly-order">
                  <valueCode value="NL1"/>
               </extension>
               <family value="Boot">
                  <extension url="http://hl7.org/fhir/StructureDefinition/humanname-own-name">
                     <valueString value="Boot"/>
                  </extension>
               </family>
               <given value="M.">
                  <extension url="http://hl7.org/fhir/StructureDefinition/iso21090-EN-qualifier">
                     <valueCode value="IN"/>
                  </extension>
               </given>
            </name>
         </Practitioner>
      </resource>
      <search>
         <mode value="include"/>
      </search>
   </entry>
   <entry>
      <fullUrl value="urn:oid:2.16.840.1.113883.2.4.6.1.1057999"/>
      <resource>
         <Organization>
            <meta>
               <profile value="http://fhir.nl/fhir/StructureDefinition/nl-core-organization"/>
            </meta>
            <identifier>
               <system value="http://fhir.nl/fhir/NamingSystem/agb-z"/>
               <value value="01057999"/>
            </identifier>
            <type>
               <coding>
                  <system value="urn:oid:2.16.840.1.113883.2.4.15.1060"/>
                  <code value="Z3"/>
                  <display value="Huisartspraktijk (zelfstandig of groepspraktijk)"/>
               </coding>
            </type>
            <name value="Huisartsenpraktijk 'de Test'"/>
            <telecom>
               <system value="phone">
                  <extension url="http://nictiz.nl/fhir/StructureDefinition/code-specification">
                     <valueCodeableConcept>
                        <coding>
                           <system value="urn:oid:2.16.840.1.113883.2.4.3.11.60.40.4.22.1"/>
                           <code value="LL"/>
                           <display value="Vast telefoonnummer"/>
                        </coding>
                     </valueCodeableConcept>
                  </extension>
               </system>
               <value value="0800-987653"/>
               <use value="work">
                  <extension url="http://nictiz.nl/fhir/StructureDefinition/code-specification">
                     <valueCodeableConcept>
                        <coding>
                           <system value="http://hl7.org/fhir/v3/AddressUse"/>
                           <code value="WP"/>
                           <display value="Zakelijk telefoonnummer"/>
                        </coding>
                     </valueCodeableConcept>
                  </extension>
               </use>
            </telecom>
            <telecom>
               <system value="email"/>
               <value value="info@hpdetest.nl"/>
               <use value="work">
                  <extension url="http://nictiz.nl/fhir/StructureDefinition/code-specification">
                     <valueCodeableConcept>
                        <coding>
                           <system value="http://hl7.org/fhir/v3/AddressUse"/>
                           <code value="WP"/>
                           <display value="Zakelijk e-mailadres"/>
                        </coding>
                     </valueCodeableConcept>
                  </extension>
               </use>
            </telecom>
            <address>
               <use value="work"/>
               <line value="Dorpstraat 14">
                  <extension url="http://hl7.org/fhir/StructureDefinition/iso21090-ADXP-streetName">
                     <valueString value="Dorpstraat"/>
                  </extension>
                  <extension url="http://hl7.org/fhir/StructureDefinition/iso21090-ADXP-houseNumber">
                     <valueString value="14"/>
                  </extension>
               </line>
               <city value="Beetsterzwaag"/>
               <postalCode value="9244 ZZ"/>
            </address>
         </Organization>
      </resource>
      <search>
         <mode value="include"/>
      </search>
   </entry>
   <entry>
      <fullUrl value="urn:uuid:c1165155-12c2-11ea-1259-020000000000"/>
      <resource>
         <PractitionerRole>
            <meta>
               <profile value="http://fhir.nl/fhir/StructureDefinition/nl-core-practitionerrole"/>
            </meta>
            <practitioner>
               <reference value="urn:oid:2.16.528.1.1007.3.1.111111111"/>
               <display value="A.B. Comenius de Vries"/>
            </practitioner>
            <organization>
               <reference value="urn:oid:2.16.840.1.113883.2.4.6.1.1057999"/>
               <display value="Huisartsenpraktijk 'de Test'"/>
            </organization>
            <specialty>
               <coding>
                  <system value="urn:oid:2.16.840.1.113883.2.4.6.7"/>
                  <code value="0100"/>
                  <display value="Huisartsen, niet nader gespecificeerd"/>
               </coding>
            </specialty>
         </PractitionerRole>
      </resource>
      <search>
         <mode value="include"/>
      </search>
   </entry>
   <entry>
      <fullUrl value="urn:uuid:c116516c-12c2-11ea-1259-020000000000"/>
      <resource>
         <PractitionerRole>
            <meta>
               <profile value="http://fhir.nl/fhir/StructureDefinition/nl-core-practitionerrole"/>
            </meta>
            <practitioner>
               <reference value="urn:oid:2.16.528.1.1007.3.1.222222222"/>
               <display value="Ottobert O. van Bekhoven"/>
            </practitioner>
            <specialty>
               <coding>
                  <system value="urn:oid:2.16.840.1.113883.2.4.6.7"/>
                  <code value="0100"/>
                  <display value="Huisartsen, niet nader gespecificeerd"/>
               </coding>
            </specialty>
         </PractitionerRole>
      </resource>
      <search>
         <mode value="include"/>
      </search>
   </entry>
   <entry>
      <fullUrl value="urn:uuid:c11655a5-12c2-11ea-1259-020000000000"/>
      <resource>
         <PractitionerRole>
            <meta>
               <profile value="http://fhir.nl/fhir/StructureDefinition/nl-core-practitionerrole"/>
            </meta>
            <practitioner>
               <reference value="urn:oid:2.16.528.1.1007.3.1.333333333"/>
               <display value="M. Boot"/>
            </practitioner>
            <specialty>
               <coding>
                  <system value="http://fhir.nl/fhir/NamingSystem/uzi-rolcode"/>
                  <code value="01.002"/>
                  <display value="Allergoloog (gesloten register)"/>
               </coding>
            </specialty>
         </PractitionerRole>
      </resource>
      <search>
         <mode value="include"/>
      </search>
   </entry>
   <entry>
      <fullUrl value="urn:uuid:c11651e8-12c2-11ea-1259-020000000000"/>
      <resource>
         <RelatedPerson>
            <meta>
               <profile value="http://fhir.nl/fhir/StructureDefinition/nl-core-relatedperson"/>
            </meta>
            <extension url="http://fhir.nl/fhir/StructureDefinition/nl-core-relatedperson-role">
               <valueCodeableConcept>
                  <coding>
                     <system value="urn:oid:2.16.840.1.113883.2.4.3.11.22.472"/>
                     <code value="20"/>
                     <display value="Vriend(in)/kennis"/>
                  </coding>
               </valueCodeableConcept>
            </extension>
            <patient>
               <reference value="urn:uuid:c1164a45-12c2-11ea-1259-020000000000"/>
               <display value="Kendrick K. Ken YYY_Yong20"/>
            </patient>
            <relationship>
               <extension url="http://hl7.org/fhir/StructureDefinition/iso21090-nullFlavor">
                  <valueCode value="OTH"/>
               </extension>
               <text value="Boezemvriend"/>
            </relationship>
            <name>
               <extension url="http://hl7.org/fhir/StructureDefinition/humanname-assembly-order">
                  <valueCode value="NL1"/>
               </extension>
               <family value="Pasveer">
                  <extension url="http://hl7.org/fhir/StructureDefinition/humanname-own-name">
                     <valueString value="Pasveer"/>
                  </extension>
               </family>
               <given value="Abraham">
                  <extension url="http://hl7.org/fhir/StructureDefinition/iso21090-EN-qualifier">
                     <valueCode value="BR"/>
                  </extension>
               </given>
               <given value="B.M.H.">
                  <extension url="http://hl7.org/fhir/StructureDefinition/iso21090-EN-qualifier">
                     <valueCode value="IN"/>
                  </extension>
               </given>
               <given value="Bram">
                  <extension url="http://hl7.org/fhir/StructureDefinition/iso21090-EN-qualifier">
                     <valueCode value="CL"/>
                  </extension>
               </given>
            </name>
            <telecom>
               <system value="phone">
                  <extension url="http://nictiz.nl/fhir/StructureDefinition/code-specification">
                     <valueCodeableConcept>
                        <coding>
                           <system value="http://hl7.org/fhir/v3/AddressUse"/>
                           <code value="MC"/>
                           <display value="Mobiel telefoonnummer"/>
                        </coding>
                     </valueCodeableConcept>
                  </extension>
               </system>
               <value value="06-12345670"/>
               <use value="mobile"/>
            </telecom>
            <telecom>
               <system value="email"/>
               <value value="brampasveer_123@hotmail.com"/>
               <use value="home">
                  <extension url="http://nictiz.nl/fhir/StructureDefinition/code-specification">
                     <valueCodeableConcept>
                        <coding>
                           <system value="http://hl7.org/fhir/v3/AddressUse"/>
                           <code value="HP"/>
                           <display value="Privé e-mailadres"/>
                        </coding>
                     </valueCodeableConcept>
                  </extension>
               </use>
            </telecom>
            <address>
               <use value="home">
                  <extension url="http://hl7.org/fhir/StructureDefinition/iso21090-AD-use">
                     <valueCode value="PHYS"/>
                  </extension>
               </use>
               <type value="physical"/>
               <line value="Bolweg 99">
                  <extension url="http://hl7.org/fhir/StructureDefinition/iso21090-ADXP-streetName">
                     <valueString value="Bolweg"/>
                  </extension>
                  <extension url="http://hl7.org/fhir/StructureDefinition/iso21090-ADXP-houseNumber">
                     <valueString value="99"/>
                  </extension>
               </line>
               <city value="Stitswerd"/>
               <postalCode value="9999 XX"/>
            </address>
         </RelatedPerson>
      </resource>
      <search>
         <mode value="include"/>
      </search>
   </entry>
</Bundle>
