<Bundle xmlns="http://hl7.org/fhir">
   <id value="lr-loa-TEST-l2z-1Maximaal-bericht-aanvraag-3KCLOINC"/>
   <type value="transaction"/>
   <entry>
      <fullUrl value="urn:uuid:90f3ecbd-ed56-11f0-7929-020000000000"/>
      <resource>
         <Observation>
            <id value="90f3ecbd-ed56-11f0-7929-020000000000"/>
            <meta>
               <profile value="http://nictiz.nl/fhir/StructureDefinition/nl-core-LaboratoryTestResult"/>
            </meta>
            <identifier>
               <system value="urn:oid:2.16.840.1.113883.2.4.3.11.999.25.4298.4"/>
               <value value="1234"/>
            </identifier>
            <status value="final"/>
            <category>
               <coding>
                  <system value="http://terminology.hl7.org/CodeSystem/observation-category"/>
                  <code value="laboratory"/>
                  <display value="Laboratory"/>
               </coding>
            </category>
            <code>
               <coding>
                  <system value="http://loinc.org"/>
                  <code value="51596-5"/>
                  <display value="Glucose [mol/volume] in capillair bloed"/>
               </coding>
            </code>
            <subject>
               <reference value="urn:uuid:90f3ec3b-ed56-11f0-7929-020000000000"/>
               <type value="Patient"/>
               <display value="Patient, E. XXX_Doppen"/>
            </subject>
            <effectiveDateTime value="${DATE, T, D, -1}"/>
            <performer>
               <extension url="http://hl7.org/fhir/StructureDefinition/event-performerFunction">
                  <valueCodeableConcept>
                     <coding>
                        <system value="http://terminology.hl7.org/CodeSystem/v3-ParticipationType"/>
                        <code value="RESP"/>
                        <display value="responsible party"/>
                     </coding>
                  </valueCodeableConcept>
               </extension>
               <reference value="urn:uuid:90f3ec95-ed56-11f0-7929-020000000000"/>
               <type value="Organization"/>
               <display value="Healthcare provider (organization), Klinisch chemisch Lab de Erlenmeyer"/>
            </performer>
            <valueQuantity>
               <value value="3"/>
               <unit value="mmol/L"/>
               <system value="http://unitsofmeasure.org"/>
               <code value="mmol/L"/>
            </valueQuantity>
            <interpretation>
               <text value="Patiënt heeft een ernstig verlaagde glucosespiegel. "/>
            </interpretation>
            <specimen>
               <reference value="urn:uuid:90f3ecf9-ed56-11f0-7929-020000000000"/>
               <type value="Specimen"/>
               <display value="monster"/>
            </specimen>
            <referenceRange>
               <low>
                  <value value="4"/>
                  <unit value="mmol/L"/>
                  <system value="http://unitsofmeasure.org"/>
                  <code value="mmol/L"/>
               </low>
               <high>
                  <value value="8"/>
                  <unit value="mmol/L"/>
                  <system value="http://unitsofmeasure.org"/>
                  <code value="mmol/L"/>
               </high>
            </referenceRange>
         </Observation>
      </resource>
      <request>
         <method value="POST"/>
         <url value="Observation"/>
      </request>
   </entry>
   <entry>
      <fullUrl value="urn:uuid:90f3ece5-ed56-11f0-7929-020000000000"/>
      <resource>
         <DiagnosticReport>
            <id value="90f3ece5-ed56-11f0-7929-020000000000"/>
            <meta>
               <profile value="http://nictiz.nl/fhir/StructureDefinition/lu-LaboratoryTestResult-DiagnosticReport"/>
            </meta>
            <identifier>
               <system value="urn:oid:2.16.840.1.113883.2.4.3.11.60.40.3.22.2"/>
               <value value="123456"/>
            </identifier>
            <basedOn>
               <reference value="urn:uuid:90f3ecd1-ed56-11f0-7929-020000000000"/>
               <type value="ServiceRequest"/>
               <display value="aanvraaggegevens"/>
            </basedOn>
            <status value="final"/>
            <category>
               <coding>
                  <system value="http://terminology.hl7.org/CodeSystem/v2-0074"/>
                  <code value="LAB"/>
                  <display value="Laboratory"/>
               </coding>
            </category>
            <code>
               <coding>
                  <system value="http://terminology.hl7.org/ValueSet/v3-NullFlavor"/>
                  <code value="UNK"/>
                  <display value="onbekend"/>
               </coding>
            </code>
            <subject>
               <reference value="urn:uuid:90f3ec3b-ed56-11f0-7929-020000000000"/>
               <type value="Patient"/>
               <display value="Patient, E. XXX_Doppen"/>
            </subject>
            <performer>
               <reference value="urn:uuid:90f3ec95-ed56-11f0-7929-020000000000"/>
               <type value="Organization"/>
               <display value="Healthcare provider (organization), Klinisch chemisch Lab de Erlenmeyer"/>
            </performer>
            <result>
               <reference value="urn:uuid:90f3ecbd-ed56-11f0-7929-020000000000"/>
               <type value="Observation"/>
               <display value="laboratorium_test"/>
            </result>
         </DiagnosticReport>
      </resource>
      <request>
         <method value="POST"/>
         <url value="DiagnosticReport"/>
      </request>
   </entry>
   <entry>
      <fullUrl value="urn:uuid:90f3ecd1-ed56-11f0-7929-020000000000"/>
      <resource>
         <ServiceRequest>
            <id value="90f3ecd1-ed56-11f0-7929-020000000000"/>
            <meta>
               <profile value="http://nictiz.nl/fhir/StructureDefinition/lu-OrderData"/>
            </meta>
            <identifier>
               <system value="urn:oid:2.16.840.1.113883.2.4.3.11.60.40.3.22.2"/>
               <value value="123456"/>
            </identifier>
            <status value="completed"/>
            <intent value="order"/>
            <code>
               <coding>
                  <system value="http://loinc.org"/>
                  <code value="51596-5"/>
                  <display value="Glucose [mol/volume] in capillair bloed"/>
               </coding>
            </code>
            <subject>
               <reference value="urn:uuid:90f3ec3b-ed56-11f0-7929-020000000000"/>
               <type value="Patient"/>
               <display value="Patient, E. XXX_Doppen"/>
            </subject>
            <authoredOn value="${DATE, T, D, -5}"/>
            <requester>
               <reference value="urn:uuid:90f3ec59-ed56-11f0-7929-020000000000"/>
               <type value="PractitionerRole"/>
               <display value="Healthcare professional (role), Peter van Pulver, Internist"/>
            </requester>
            <reasonCode>
               <text value="Patiënt is erg moe. Zweet veel en heeft duizeligheidsklachten. Daarnaast heeft de patiënt trillende handen en heel veel honger."/>
            </reasonCode>
         </ServiceRequest>
      </resource>
      <request>
         <method value="POST"/>
         <url value="ServiceRequest"/>
      </request>
   </entry>
   <entry>
      <fullUrl value="urn:uuid:90f3ec59-ed56-11f0-7929-020000000000"/>
      <resource>
         <PractitionerRole>
            <id value="90f3ec59-ed56-11f0-7929-020000000000"/>
            <meta>
               <profile value="http://nictiz.nl/fhir/StructureDefinition/nl-core-HealthProfessional-PractitionerRole"/>
            </meta>
            <practitioner>
               <reference value="urn:uuid:90f3ec77-ed56-11f0-7929-020000000000"/>
               <type value="Practitioner"/>
               <display value="Healthcare professional (person), Peter van Pulver"/>
            </practitioner>
            <specialty>
               <coding>
                  <system value="http://fhir.nl/fhir/NamingSystem/uzi-rolcode"/>
                  <version value="2024-01-29T00:00:00"/>
                  <code value="01.016"/>
                  <display value="Internist"/>
               </coding>
            </specialty>
            <telecom>
               <system value="phone"/>
               <value value="099-12345678"/>
            </telecom>
         </PractitionerRole>
      </resource>
      <request>
         <method value="POST"/>
         <url value="PractitionerRole"/>
      </request>
   </entry>
   <entry>
      <fullUrl value="urn:uuid:90f3ec77-ed56-11f0-7929-020000000000"/>
      <resource>
         <Practitioner>
            <id value="90f3ec77-ed56-11f0-7929-020000000000"/>
            <meta>
               <profile value="http://nictiz.nl/fhir/StructureDefinition/nl-core-HealthProfessional-Practitioner"/>
            </meta>
            <identifier>
               <system value="http://fhir.nl/fhir/NamingSystem/uzi-nr-pers"/>
               <value value="000001111"/>
            </identifier>
            <name>
               <use value="official"/>
               <text value="Peter van Pulver"/>
               <family value="van Pulver">
                  <extension url="http://hl7.org/fhir/StructureDefinition/humanname-own-prefix">
                     <valueString value="van"/>
                  </extension>
                  <extension url="http://hl7.org/fhir/StructureDefinition/humanname-own-name">
                     <valueString value="Pulver"/>
                  </extension>
               </family>
               <given value="Peter">
                  <extension url="http://hl7.org/fhir/StructureDefinition/iso21090-EN-qualifier">
                     <valueCode value="BR"/>
                  </extension>
               </given>
            </name>
            <telecom>
               <system value="phone"/>
               <value value="099-12345678"/>
            </telecom>
            <address>
               <extension url="http://nictiz.nl/fhir/StructureDefinition/ext-AddressInformation.AddressType">
                  <valueCodeableConcept>
                     <coding>
                        <system value="http://terminology.hl7.org/CodeSystem/v3-AddressUse"/>
                        <code value="WP"/>
                        <display value="Werkadres"/>
                     </coding>
                  </valueCodeableConcept>
               </extension>
               <use value="work"/>
               <line value="Dorpstraat 1">
                  <extension url="http://hl7.org/fhir/StructureDefinition/iso21090-ADXP-streetName">
                     <valueString value="Dorpstraat"/>
                  </extension>
                  <extension url="http://hl7.org/fhir/StructureDefinition/iso21090-ADXP-houseNumber">
                     <valueString value="1"/>
                  </extension>
               </line>
               <city value="Ons Dorp"/>
               <postalCode value="1234 AA"/>
            </address>
         </Practitioner>
      </resource>
      <request>
         <method value="POST"/>
         <url value="Practitioner"/>
      </request>
   </entry>
   <entry>
      <fullUrl value="urn:uuid:90f3ecf9-ed56-11f0-7929-020000000000"/>
      <resource>
         <Specimen>
            <id value="90f3ecf9-ed56-11f0-7929-020000000000"/>
            <meta>
               <profile value="http://nictiz.nl/fhir/StructureDefinition/nl-core-LaboratoryTestResult.Specimen"/>
            </meta>
            <identifier>
               <system value="urn:oid:2.16.840.1.113883.2.4.3.11.999.25.4267.4"/>
               <value value="12081992"/>
            </identifier>
            <type>
               <coding>
                  <system value="http://snomed.info/sct"/>
                  <code value="122554006"/>
                  <display value="capillair bloed"/>
               </coding>
            </type>
            <subject>
               <reference value="urn:uuid:90f3ec3b-ed56-11f0-7929-020000000000"/>
               <type value="Patient"/>
               <display value="Patient, E. XXX_Doppen"/>
            </subject>
            <receivedTime value="${DATE, T, D, -5}"/>
            <collection>
               <collectedDateTime value="${DATE, T, D, -5}"/>
               <method>
                  <coding>
                     <system value="http://snomed.info/sct"/>
                     <code value="28520004"/>
                     <display value="venapunctie voor bloedtest"/>
                  </coding>
               </method>
            </collection>
            <container>
               <extension url="http://hl7.org/fhir/StructureDefinition/specimen-sequenceNumber">
                  <valueInteger value="1"/>
               </extension>
            </container>
         </Specimen>
      </resource>
      <request>
         <method value="POST"/>
         <url value="Specimen"/>
      </request>
   </entry>
   <entry>
      <fullUrl value="urn:uuid:90f3ec95-ed56-11f0-7929-020000000000"/>
      <resource>
         <Organization>
            <id value="90f3ec95-ed56-11f0-7929-020000000000"/>
            <meta>
               <profile value="http://nictiz.nl/fhir/StructureDefinition/nl-core-HealthcareProvider-Organization"/>
            </meta>
            <identifier>
               <system value="http://fhir.nl/fhir/NamingSystem/ura"/>
               <value value="00003335"/>
            </identifier>
            <type>
               <coding>
                  <system value="http://nictiz.nl/fhir/NamingSystem/organization-type"/>
                  <version value="2023-04-14T00:00:00"/>
                  <code value="L1"/>
                  <display value="Laboratorium"/>
               </coding>
            </type>
            <name value="Klinisch chemisch Lab de Erlenmeyer"/>
            <telecom>
               <system value="phone"/>
               <value value="06-11122255"/>
            </telecom>
            <address>
               <extension url="http://nictiz.nl/fhir/StructureDefinition/ext-AddressInformation.AddressType">
                  <valueCodeableConcept>
                     <coding>
                        <system value="http://terminology.hl7.org/CodeSystem/v3-AddressUse"/>
                        <code value="WP"/>
                        <display value="Werkadres"/>
                     </coding>
                  </valueCodeableConcept>
               </extension>
               <use value="work"/>
               <line value="Kerkstraat 101 A">
                  <extension url="http://hl7.org/fhir/StructureDefinition/iso21090-ADXP-streetName">
                     <valueString value="Kerkstraat"/>
                  </extension>
                  <extension url="http://hl7.org/fhir/StructureDefinition/iso21090-ADXP-houseNumber">
                     <valueString value="101"/>
                  </extension>
                  <extension url="http://hl7.org/fhir/StructureDefinition/iso21090-ADXP-buildingNumberSuffix">
                     <valueString value="A"/>
                  </extension>
               </line>
               <city value="Zorgstad"/>
               <postalCode value="2143BB"/>
            </address>
         </Organization>
      </resource>
      <request>
         <method value="POST"/>
         <url value="Organization"/>
      </request>
   </entry>
   <entry>
      <fullUrl value="urn:uuid:90f3ec3b-ed56-11f0-7929-020000000000"/>
      <resource>
         <Patient>
            <id value="90f3ec3b-ed56-11f0-7929-020000000000"/>
            <meta>
               <profile value="http://nictiz.nl/fhir/StructureDefinition/nl-core-Patient"/>
            </meta>
            <identifier>
               <system value="http://fhir.nl/fhir/NamingSystem/bsn"/>
               <value value="999900511"/>
            </identifier>
            <name>
               <use value="official"/>
               <text value="E. XXX_Doppen"/>
               <family value="XXX_Doppen">
                  <extension url="http://hl7.org/fhir/StructureDefinition/humanname-own-name">
                     <valueString value="XXX_Doppen"/>
                  </extension>
               </family>
               <given value="E.">
                  <extension url="http://hl7.org/fhir/StructureDefinition/iso21090-EN-qualifier">
                     <valueCode value="IN"/>
                  </extension>
               </given>
            </name>
            <gender value="male">
               <extension url="http://nictiz.nl/fhir/StructureDefinition/ext-CodeSpecification">
                  <valueCodeableConcept>
                     <coding>
                        <system value="http://terminology.hl7.org/CodeSystem/v3-AdministrativeGender"/>
                        <code value="M"/>
                        <display value="Man"/>
                     </coding>
                  </valueCodeableConcept>
               </extension>
            </gender>
            <birthDate value="1963-10-24"/>
         </Patient>
      </resource>
      <request>
         <method value="POST"/>
         <url value="Patient"/>
      </request>
   </entry>
</Bundle>