<Bundle xmlns="http://hl7.org/fhir">
   <id value="lr-loa-KWAL-l2z-1Maximaal-bericht-aanvraag-2MMBNHG"/>
   <type value="transaction"/>
   <entry>
      <fullUrl value="urn:uuid:8dd48be4-ed56-11f0-1882-020000000000"/>
      <resource>
         <Observation>
            <id value="8dd48be4-ed56-11f0-1882-020000000000"/>
            <meta>
               <profile value="http://nictiz.nl/fhir/StructureDefinition/nl-core-LaboratoryTestResult"/>
            </meta>
            <identifier>
               <system value="urn:oid:2.16.840.1.113883.2.4.3.11.999.25.4298.3"/>
               <value value="92225"/>
            </identifier>
            <status value="final"/>
            <category>
               <coding>
                  <system value="http://terminology.hl7.org/CodeSystem/observation-category"/>
                  <code value="laboratory"/>
                  <display value="Laboratory"/>
               </coding>
            </category>
            <code>
               <coding>
                  <system value="https://referentiemodel.nhg.org/tabellen/nhg-tabel-45-diagnostische-bepalingen"/>
                  <code value="4029"/>
                  <display value="SARS-CoV-2 RNA (COVID-19) keel (PCR) kz"/>
               </coding>
            </code>
            <subject>
               <reference value="urn:uuid:8dd48ba8-ed56-11f0-1882-020000000000"/>
               <type value="Patient"/>
               <display value="Patient, Elise Erelies"/>
            </subject>
            <effectiveDateTime value="${DATE, T, D, -3}"/>
            <performer>
               <extension url="http://hl7.org/fhir/StructureDefinition/event-performerFunction">
                  <valueCodeableConcept>
                     <coding>
                        <system value="http://terminology.hl7.org/CodeSystem/v3-ParticipationType"/>
                        <code value="RESP"/>
                        <display value="responsible party"/>
                     </coding>
                  </valueCodeableConcept>
               </extension>
               <reference value="urn:uuid:8dd48bbc-ed56-11f0-1882-020000000000"/>
               <type value="Organization"/>
               <display value="Healthcare provider (organization), Microbiologisch Lab Flagel"/>
            </performer>
            <valueCodeableConcept>
               <coding>
                  <system value="https://referentiemodel.nhg.org/tabellen/nhg-tabel-45-diagnostische-bepalingen#resultaten"/>
                  <code value="32"/>
                  <display value="positief"/>
               </coding>
            </valueCodeableConcept>
            <interpretation>
               <text value="Covid aanwezig"/>
            </interpretation>
            <specimen>
               <reference value="urn:uuid:8dd48c20-ed56-11f0-1882-020000000000"/>
               <type value="Specimen"/>
               <display value="monster"/>
            </specimen>
         </Observation>
      </resource>
      <request>
         <method value="POST"/>
         <url value="Observation"/>
      </request>
   </entry>
   <entry>
      <fullUrl value="urn:uuid:8dd48c0c-ed56-11f0-1882-020000000000"/>
      <resource>
         <DiagnosticReport>
            <id value="8dd48c0c-ed56-11f0-1882-020000000000"/>
            <meta>
               <profile value="http://nictiz.nl/fhir/StructureDefinition/lu-LaboratoryTestResult-DiagnosticReport"/>
            </meta>
            <identifier>
               <system value="urn:oid:2.16.840.1.113883.2.4.3.11.60.40.3.22.2"/>
               <value value="123457"/>
            </identifier>
            <basedOn>
               <reference value="urn:uuid:8dd48bf8-ed56-11f0-1882-020000000000"/>
               <type value="ServiceRequest"/>
               <display value="aanvraaggegevens"/>
            </basedOn>
            <status value="final"/>
            <category>
               <coding>
                  <system value="http://terminology.hl7.org/CodeSystem/v2-0074"/>
                  <code value="LAB"/>
                  <display value="Laboratory"/>
               </coding>
            </category>
            <code>
               <coding>
                  <system value="http://terminology.hl7.org/ValueSet/v3-NullFlavor"/>
                  <code value="UNK"/>
                  <display value="onbekend"/>
               </coding>
            </code>
            <subject>
               <reference value="urn:uuid:8dd48ba8-ed56-11f0-1882-020000000000"/>
               <type value="Patient"/>
               <display value="Patient, Elise Erelies"/>
            </subject>
            <performer>
               <reference value="urn:uuid:8dd48bbc-ed56-11f0-1882-020000000000"/>
               <type value="Organization"/>
               <display value="Healthcare provider (organization), Microbiologisch Lab Flagel"/>
            </performer>
            <result>
               <reference value="urn:uuid:8dd48be4-ed56-11f0-1882-020000000000"/>
               <type value="Observation"/>
               <display value="laboratorium_test"/>
            </result>
         </DiagnosticReport>
      </resource>
      <request>
         <method value="POST"/>
         <url value="DiagnosticReport"/>
      </request>
   </entry>
   <entry>
      <fullUrl value="urn:uuid:8dd48bf8-ed56-11f0-1882-020000000000"/>
      <resource>
         <ServiceRequest>
            <id value="8dd48bf8-ed56-11f0-1882-020000000000"/>
            <meta>
               <profile value="http://nictiz.nl/fhir/StructureDefinition/lu-OrderData"/>
            </meta>
            <identifier>
               <system value="urn:oid:2.16.840.1.113883.2.4.3.11.60.40.3.22.2"/>
               <value value="123457"/>
            </identifier>
            <status value="completed"/>
            <intent value="order"/>
            <code>
               <coding>
                  <system value="http://loinc.org"/>
                  <code value="94309-2"/>
                  <display value="SARS-CoV-2 RNA"/>
               </coding>
            </code>
            <subject>
               <reference value="urn:uuid:8dd48ba8-ed56-11f0-1882-020000000000"/>
               <type value="Patient"/>
               <display value="Patient, Elise Erelies"/>
            </subject>
            <authoredOn value="${DATE, T, D, -5}"/>
            <reasonCode>
               <text value="Patiënt heeft koorts, spierpijn van het gehele lichaam en hoofdpijn. Daarnaast heeft de patiënt last van droge hoest en dyspneu. Géén keelpijn of neusverkoudheid aanwezig."/>
            </reasonCode>
         </ServiceRequest>
      </resource>
      <request>
         <method value="POST"/>
         <url value="ServiceRequest"/>
      </request>
   </entry>
   <entry>
      <fullUrl value="urn:uuid:8dd48c20-ed56-11f0-1882-020000000000"/>
      <resource>
         <Specimen>
            <id value="8dd48c20-ed56-11f0-1882-020000000000"/>
            <meta>
               <profile value="http://nictiz.nl/fhir/StructureDefinition/nl-core-LaboratoryTestResult.Specimen"/>
            </meta>
            <identifier>
               <system value="urn:oid:2.16.840.1.113883.2.4.3.11.999.25.4267.3"/>
               <value value="13344"/>
            </identifier>
            <type>
               <coding>
                  <system value="http://snomed.info/sct"/>
                  <code value="119389009"/>
                  <display value="specimen uit keelholte"/>
               </coding>
            </type>
            <subject>
               <reference value="urn:uuid:8dd48ba8-ed56-11f0-1882-020000000000"/>
               <type value="Patient"/>
               <display value="Patient, Elise Erelies"/>
            </subject>
            <collection>
               <collectedDateTime value="${DATE, T, D, -6}"/>
               <bodySite>
                  <coding>
                     <system value="http://snomed.info/sct"/>
                     <code value="54066008"/>
                     <display value="keelholte"/>
                  </coding>
               </bodySite>
            </collection>
         </Specimen>
      </resource>
      <request>
         <method value="POST"/>
         <url value="Specimen"/>
      </request>
   </entry>
   <entry>
      <fullUrl value="urn:uuid:8dd48bbc-ed56-11f0-1882-020000000000"/>
      <resource>
         <Organization>
            <id value="8dd48bbc-ed56-11f0-1882-020000000000"/>
            <meta>
               <profile value="http://nictiz.nl/fhir/StructureDefinition/nl-core-HealthcareProvider-Organization"/>
            </meta>
            <identifier>
               <system value="http://fhir.nl/fhir/NamingSystem/ura"/>
               <value value="00003334"/>
            </identifier>
            <type>
               <coding>
                  <system value="http://nictiz.nl/fhir/NamingSystem/organization-type"/>
                  <version value="2023-04-14T00:00:00"/>
                  <code value="L1"/>
                  <display value="Laboratorium"/>
               </coding>
            </type>
            <name value="Microbiologisch Lab Flagel"/>
            <telecom>
               <system value="phone"/>
               <value value="06-11122244"/>
            </telecom>
            <address>
               <extension url="http://nictiz.nl/fhir/StructureDefinition/ext-AddressInformation.AddressType">
                  <valueCodeableConcept>
                     <coding>
                        <system value="http://terminology.hl7.org/CodeSystem/v3-AddressUse"/>
                        <code value="WP"/>
                        <display value="Werkadres"/>
                     </coding>
                  </valueCodeableConcept>
               </extension>
               <use value="work"/>
               <line value="Kerkstraat 23">
                  <extension url="http://hl7.org/fhir/StructureDefinition/iso21090-ADXP-streetName">
                     <valueString value="Kerkstraat"/>
                  </extension>
                  <extension url="http://hl7.org/fhir/StructureDefinition/iso21090-ADXP-houseNumber">
                     <valueString value="23"/>
                  </extension>
               </line>
               <city value="Zorgstad"/>
               <postalCode value="2143BB"/>
               <country value="Nederland">
                  <extension url="http://nictiz.nl/fhir/StructureDefinition/ext-CodeSpecification">
                     <valueCodeableConcept>
                        <coding>
                           <system value="urn:iso:std:iso:3166"/>
                           <version value="2020-10-26T00:00:00"/>
                           <code value="NL"/>
                           <display value="Nederland"/>
                        </coding>
                     </valueCodeableConcept>
                  </extension>
               </country>
            </address>
         </Organization>
      </resource>
      <request>
         <method value="POST"/>
         <url value="Organization"/>
      </request>
   </entry>
   <entry>
      <fullUrl value="urn:uuid:8dd48ba8-ed56-11f0-1882-020000000000"/>
      <resource>
         <Patient>
            <id value="8dd48ba8-ed56-11f0-1882-020000000000"/>
            <meta>
               <profile value="http://nictiz.nl/fhir/StructureDefinition/nl-core-Patient"/>
            </meta>
            <identifier>
               <system value="http://fhir.nl/fhir/NamingSystem/bsn"/>
               <value value="999999114"/>
            </identifier>
            <name>
               <use value="official"/>
               <text value="Elise Erelies"/>
               <family value="Erelies">
                  <extension url="http://hl7.org/fhir/StructureDefinition/humanname-own-name">
                     <valueString value="Erelies"/>
                  </extension>
               </family>
               <given value="Elise">
                  <extension url="http://hl7.org/fhir/StructureDefinition/iso21090-EN-qualifier">
                     <valueCode value="BR"/>
                  </extension>
               </given>
            </name>
            <gender value="female">
               <extension url="http://nictiz.nl/fhir/StructureDefinition/ext-CodeSpecification">
                  <valueCodeableConcept>
                     <coding>
                        <system value="http://terminology.hl7.org/CodeSystem/v3-AdministrativeGender"/>
                        <code value="F"/>
                        <display value="Vrouw"/>
                     </coding>
                  </valueCodeableConcept>
               </extension>
            </gender>
            <birthDate value="1950-11-01"/>
         </Patient>
      </resource>
      <request>
         <method value="POST"/>
         <url value="Patient"/>
      </request>
   </entry>
</Bundle>