<Bundle xmlns="http://hl7.org/fhir">
   <id value="lu-blr-test-min-nhg"/>
   <type value="transaction"/>
   <entry>
      <fullUrl value="urn:uuid:59611fbf-ed56-11f0-1805-020000000000"/>
      <resource>
         <Observation>
            <id value="59611fbf-ed56-11f0-1805-020000000000"/>
            <meta>
               <profile value="http://nictiz.nl/fhir/StructureDefinition/nl-core-LaboratoryTestResult"/>
            </meta>
            <identifier>
               <system value="urn:oid:2.16.840.1.113883.2.4.3.11.999.25.4298.2"/>
               <value value="11111"/>
            </identifier>
            <status value="final"/>
            <category>
               <coding>
                  <system value="http://terminology.hl7.org/CodeSystem/observation-category"/>
                  <code value="laboratory"/>
                  <display value="Laboratory"/>
               </coding>
            </category>
            <code>
               <coding>
                  <system value="https://referentiemodel.nhg.org/tabellen/nhg-tabel-45-diagnostische-bepalingen"/>
                  <code value="111"/>
                  <display value="bilirubine totaal"/>
               </coding>
            </code>
            <subject>
               <reference value="urn:uuid:59611eed-ed56-11f0-1805-020000000000"/>
               <type value="Patient"/>
               <display value="Patient, E. XXX_Doppen"/>
            </subject>
            <effectiveDateTime value="${DATE, T, D, -13}"/>
            <performer>
               <extension url="http://hl7.org/fhir/StructureDefinition/event-performerFunction">
                  <valueCodeableConcept>
                     <coding>
                        <system value="http://terminology.hl7.org/CodeSystem/v3-ParticipationType"/>
                        <code value="PPRF"/>
                        <display value="primary performer"/>
                     </coding>
                  </valueCodeableConcept>
               </extension>
               <extension url="http://hl7.org/fhir/StructureDefinition/data-absent-reason">
                  <valueCode value="unknown"/>
               </extension>
            </performer>
            <performer>
               <extension url="http://hl7.org/fhir/StructureDefinition/event-performerFunction">
                  <valueCodeableConcept>
                     <coding>
                        <system value="http://terminology.hl7.org/CodeSystem/v3-ParticipationType"/>
                        <code value="RESP"/>
                        <display value="responsible party"/>
                     </coding>
                  </valueCodeableConcept>
               </extension>
               <reference value="urn:uuid:59611f97-ed56-11f0-1805-020000000000"/>
               <type value="Organization"/>
               <display value="Healthcare provider (organization), organisation-id in system"/>
            </performer>
            <valueQuantity>
               <value value="5.4"/>
               <unit value="umol/L"/>
               <system value="http://unitsofmeasure.org"/>
               <code value="umol/L"/>
            </valueQuantity>
         </Observation>
      </resource>
      <request>
         <method value="POST"/>
         <url value="Observation"/>
      </request>
   </entry>
   <entry>
      <fullUrl value="urn:uuid:59611fe7-ed56-11f0-1805-020000000000"/>
      <resource>
         <DiagnosticReport>
            <id value="59611fe7-ed56-11f0-1805-020000000000"/>
            <meta>
               <profile value="http://nictiz.nl/fhir/StructureDefinition/lu-LaboratoryTestResult-DiagnosticReport"/>
            </meta>
            <identifier>
               <system value="urn:oid:2.16.840.1.113883.2.4.3.11.60.25.1.1"/>
               <value value="AG01"/>
            </identifier>
            <basedOn>
               <reference value="urn:uuid:59611fd3-ed56-11f0-1805-020000000000"/>
               <type value="ServiceRequest"/>
               <display value="Huisartsenpraktijk Pulver &amp; Partners"/>
            </basedOn>
            <status value="unknown"/>
            <category>
               <coding>
                  <system value="http://terminology.hl7.org/CodeSystem/v2-0074"/>
                  <code value="LAB"/>
                  <display value="Laboratory"/>
               </coding>
            </category>
            <code>
               <coding>
                  <system value="http://terminology.hl7.org/ValueSet/v3-NullFlavor"/>
                  <code value="UNK"/>
                  <display value="onbekend"/>
               </coding>
            </code>
            <subject>
               <reference value="urn:uuid:59611eed-ed56-11f0-1805-020000000000"/>
               <type value="Patient"/>
               <display value="Patient, E. XXX_Doppen"/>
            </subject>
            <performer>
               <reference value="urn:uuid:59611f97-ed56-11f0-1805-020000000000"/>
               <type value="Organization"/>
               <display value="Healthcare provider (organization), organisation-id in system"/>
            </performer>
            <result>
               <reference value="urn:uuid:59611fbf-ed56-11f0-1805-020000000000"/>
               <type value="Observation"/>
               <display value="laboratorium_test"/>
            </result>
         </DiagnosticReport>
      </resource>
      <request>
         <method value="POST"/>
         <url value="DiagnosticReport"/>
      </request>
   </entry>
   <entry>
      <fullUrl value="urn:uuid:59611fd3-ed56-11f0-1805-020000000000"/>
      <resource>
         <ServiceRequest>
            <id value="59611fd3-ed56-11f0-1805-020000000000"/>
            <meta>
               <profile value="http://nictiz.nl/fhir/StructureDefinition/lu-OrderData"/>
            </meta>
            <identifier>
               <system value="urn:oid:2.16.840.1.113883.2.4.3.11.60.25.1.1"/>
               <value value="AG01"/>
            </identifier>
            <status value="completed"/>
            <intent value="order"/>
            <code>
               <coding>
                  <system value="https://referentiemodel.nhg.org/tabellen/nhg-tabel-45-diagnostische-bepalingen"/>
                  <code value="111"/>
                  <display value="bilirubine totaal"/>
               </coding>
            </code>
            <subject>
               <reference value="urn:uuid:59611eed-ed56-11f0-1805-020000000000"/>
               <type value="Patient"/>
               <display value="Patient, E. XXX_Doppen"/>
            </subject>
            <authoredOn value="${DATE, T, D, -14}"/>
            <requester>
               <reference value="urn:uuid:59611f0b-ed56-11f0-1805-020000000000"/>
               <type value="PractitionerRole"/>
               <display value="Healthcare professional (role), Peter van Pulver, Huisartsen, niet nader gespecificeerd"/>
            </requester>
            <reasonCode>
               <text value="Follow-up bij eerder verhoogde ALAT"/>
            </reasonCode>
            <note>
               <text value="Eerder lichte stijging ALAT (54 U/L), geen geelzucht. Hercontrole op leverenzymen en bilirubine. Patiënt gebruikt sinds 3 maanden geen alcohol meer"/>
            </note>
         </ServiceRequest>
      </resource>
      <request>
         <method value="POST"/>
         <url value="ServiceRequest"/>
      </request>
   </entry>
   <entry>
      <fullUrl value="urn:uuid:59611f0b-ed56-11f0-1805-020000000000"/>
      <resource>
         <PractitionerRole>
            <id value="59611f0b-ed56-11f0-1805-020000000000"/>
            <meta>
               <profile value="http://nictiz.nl/fhir/StructureDefinition/nl-core-HealthProfessional-PractitionerRole"/>
            </meta>
            <practitioner>
               <reference value="urn:uuid:59611f29-ed56-11f0-1805-020000000000"/>
               <type value="Practitioner"/>
               <display value="Healthcare professional (person), Peter van Pulver"/>
            </practitioner>
            <organization>
               <reference value="urn:uuid:59611f47-ed56-11f0-1805-020000000000"/>
               <type value="Organization"/>
               <display value="Healthcare provider (organization), Huisartsenpraktijk Pulver &amp; Partners"/>
            </organization>
            <specialty>
               <coding>
                  <system value="urn:oid:2.16.840.1.113883.2.4.6.7"/>
                  <code value="0101"/>
                  <display value="Huisartsen, niet nader gespecificeerd"/>
               </coding>
            </specialty>
            <telecom>
               <system value="phone"/>
               <value value="1645645000"/>
            </telecom>
         </PractitionerRole>
      </resource>
      <request>
         <method value="POST"/>
         <url value="PractitionerRole"/>
      </request>
   </entry>
   <entry>
      <fullUrl value="urn:uuid:59611f29-ed56-11f0-1805-020000000000"/>
      <resource>
         <Practitioner>
            <id value="59611f29-ed56-11f0-1805-020000000000"/>
            <meta>
               <profile value="http://nictiz.nl/fhir/StructureDefinition/nl-core-HealthProfessional-Practitioner"/>
            </meta>
            <identifier>
               <system value="http://fhir.nl/fhir/NamingSystem/agb-z"/>
               <value value="00001111"/>
            </identifier>
            <name>
               <use value="official"/>
               <text value="Peter van Pulver"/>
               <family value="van Pulver">
                  <extension url="http://hl7.org/fhir/StructureDefinition/humanname-own-prefix">
                     <valueString value="van"/>
                  </extension>
                  <extension url="http://hl7.org/fhir/StructureDefinition/humanname-own-name">
                     <valueString value="Pulver"/>
                  </extension>
               </family>
               <given value="Peter">
                  <extension url="http://hl7.org/fhir/StructureDefinition/iso21090-EN-qualifier">
                     <valueCode value="BR"/>
                  </extension>
               </given>
            </name>
            <telecom>
               <system value="phone"/>
               <value value="1645645000"/>
            </telecom>
         </Practitioner>
      </resource>
      <request>
         <method value="POST"/>
         <url value="Practitioner"/>
      </request>
   </entry>
   <entry>
      <fullUrl value="urn:uuid:59611f97-ed56-11f0-1805-020000000000"/>
      <resource>
         <Organization>
            <id value="59611f97-ed56-11f0-1805-020000000000"/>
            <meta>
               <profile value="http://nictiz.nl/fhir/StructureDefinition/nl-core-HealthcareProvider-Organization"/>
            </meta>
            <type>
               <coding>
                  <system value="http://nictiz.nl/fhir/NamingSystem/organization-type"/>
                  <version value="2024-11-14T22:13:01"/>
                  <code value="L1"/>
                  <display value="Laboratorium"/>
               </coding>
            </type>
         </Organization>
      </resource>
      <request>
         <method value="POST"/>
         <url value="Organization"/>
      </request>
   </entry>
   <entry>
      <fullUrl value="urn:uuid:59611f47-ed56-11f0-1805-020000000000"/>
      <resource>
         <Organization>
            <id value="59611f47-ed56-11f0-1805-020000000000"/>
            <meta>
               <profile value="http://nictiz.nl/fhir/StructureDefinition/nl-core-HealthcareProvider-Organization"/>
            </meta>
            <identifier>
               <system value="http://fhir.nl/fhir/NamingSystem/ura"/>
               <value value="00001111"/>
            </identifier>
            <name value="Huisartsenpraktijk Pulver &amp; Partners"/>
            <telecom>
               <system value="phone"/>
               <value value="099-12345678"/>
            </telecom>
            <address>
               <extension url="http://nictiz.nl/fhir/StructureDefinition/ext-AddressInformation.AddressType">
                  <valueCodeableConcept>
                     <coding>
                        <system value="http://terminology.hl7.org/CodeSystem/v3-AddressUse"/>
                        <code value="WP"/>
                        <display value="Werkadres"/>
                     </coding>
                  </valueCodeableConcept>
               </extension>
               <use value="work"/>
               <line value="Dorpstraat 1">
                  <extension url="http://hl7.org/fhir/StructureDefinition/iso21090-ADXP-streetName">
                     <valueString value="Dorpstraat"/>
                  </extension>
                  <extension url="http://hl7.org/fhir/StructureDefinition/iso21090-ADXP-houseNumber">
                     <valueString value="1"/>
                  </extension>
               </line>
               <city value="Ons Dorp"/>
               <postalCode value="1234AA"/>
            </address>
         </Organization>
      </resource>
      <request>
         <method value="POST"/>
         <url value="Organization"/>
      </request>
   </entry>
   <entry>
      <fullUrl value="urn:uuid:59611eed-ed56-11f0-1805-020000000000"/>
      <resource>
         <Patient>
            <id value="59611eed-ed56-11f0-1805-020000000000"/>
            <meta>
               <profile value="http://nictiz.nl/fhir/StructureDefinition/nl-core-Patient"/>
            </meta>
            <identifier>
               <system value="http://fhir.nl/fhir/NamingSystem/bsn"/>
               <value value="999900511"/>
            </identifier>
            <name>
               <use value="official"/>
               <text value="E. XXX_Doppen"/>
               <family value="XXX_Doppen">
                  <extension url="http://hl7.org/fhir/StructureDefinition/humanname-own-name">
                     <valueString value="XXX_Doppen"/>
                  </extension>
               </family>
               <given value="E.">
                  <extension url="http://hl7.org/fhir/StructureDefinition/iso21090-EN-qualifier">
                     <valueCode value="IN"/>
                  </extension>
               </given>
            </name>
            <gender value="male">
               <extension url="http://nictiz.nl/fhir/StructureDefinition/ext-CodeSpecification">
                  <valueCodeableConcept>
                     <coding>
                        <system value="http://terminology.hl7.org/CodeSystem/v3-AdministrativeGender"/>
                        <code value="M"/>
                        <display value="Man"/>
                     </coding>
                  </valueCodeableConcept>
               </extension>
            </gender>
            <birthDate value="1963-10-24"/>
         </Patient>
      </resource>
      <request>
         <method value="POST"/>
         <url value="Patient"/>
      </request>
   </entry>
</Bundle>