<Bundle xmlns="http://hl7.org/fhir">
   <id value="lu-blr-test-min-loinc"/>
   <type value="transaction"/>
   <entry>
      <fullUrl value="urn:uuid:29c21a34-818b-11f0-9137-020000000000"/>
      <resource>
         <Observation>
            <meta>
               <profile value="http://nictiz.nl/fhir/StructureDefinition/nl-core-LaboratoryTestResult"/>
            </meta>
            <identifier>
               <system value="urn:oid:2.16.840.1.113883.2.4.3.11.999.25.4298.2"/>
               <value value="22222"/>
            </identifier>
            <status value="final"/>
            <category>
               <coding>
                  <system value="http://terminology.hl7.org/CodeSystem/observation-category"/>
                  <code value="laboratory"/>
                  <display value="Laboratory"/>
               </coding>
            </category>
            <code>
               <coding>
                  <system value="http://loinc.org"/>
                  <code value="14631-6"/>
                  <display value="Bilirubine [mol/volume] in serum of plasma"/>
               </coding>
            </code>
            <subject>
               <reference value="urn:uuid:29c219d0-818b-11f0-9137-020000000000"/>
               <type value="Patient"/>
               <display value="Patient, E. XXX_Doppen"/>
            </subject>
            <effectiveDateTime value="${DATE, T, D, -13}"/>
            <performer>
               <reference value="urn:uuid:29c21a0c-818b-11f0-9137-020000000000"/>
               <type value="Organization"/>
               <display value="Healthcare provider (organization), organisation-id in system"/>
            </performer>
            <valueQuantity>
               <value value="5.4"/>
               <unit value="umol/L"/>
               <system value="http://unitsofmeasure.org"/>
               <code value="umol/L"/>
            </valueQuantity>
         </Observation>
      </resource>
      <request>
         <method value="POST"/>
         <url value="Observation"/>
      </request>
   </entry>
   <entry>
      <fullUrl value="urn:uuid:29c21a0c-818b-11f0-9137-020000000000"/>
      <resource>
         <Organization>
            <meta>
               <profile value="http://nictiz.nl/fhir/StructureDefinition/nl-core-HealthcareProvider-Organization"/>
            </meta>
            <type>
               <coding>
                  <system value="http://nictiz.nl/fhir/NamingSystem/organization-type"/>
                  <version value="2024-11-14T22:13:01"/>
                  <code value="L1"/>
                  <display value="Laboratorium"/>
               </coding>
            </type>
         </Organization>
      </resource>
      <request>
         <method value="POST"/>
         <url value="Organization"/>
      </request>
   </entry>
   <entry>
      <fullUrl value="urn:uuid:29c219d0-818b-11f0-9137-020000000000"/>
      <resource>
         <Patient>
            <meta>
               <profile value="http://nictiz.nl/fhir/StructureDefinition/nl-core-Patient"/>
            </meta>
            <identifier>
               <system value="http://fhir.nl/fhir/NamingSystem/bsn"/>
               <value value="999900511"/>
            </identifier>
            <name>
               <use value="official"/>
               <text value="E. XXX_Doppen"/>
               <family value="XXX_Doppen">
                  <extension url="http://hl7.org/fhir/StructureDefinition/humanname-own-name">
                     <valueString value="XXX_Doppen"/>
                  </extension>
               </family>
               <given value="E.">
                  <extension url="http://hl7.org/fhir/StructureDefinition/iso21090-EN-qualifier">
                     <valueCode value="IN"/>
                  </extension>
               </given>
            </name>
            <gender value="male">
               <extension url="http://nictiz.nl/fhir/StructureDefinition/ext-CodeSpecification">
                  <valueCodeableConcept>
                     <coding>
                        <system value="http://terminology.hl7.org/CodeSystem/v3-AdministrativeGender"/>
                        <code value="M"/>
                        <display value="Man"/>
                     </coding>
                  </valueCodeableConcept>
               </extension>
            </gender>
            <birthDate value="1963-10-24"/>
         </Patient>
      </resource>
      <request>
         <method value="POST"/>
         <url value="Patient"/>
      </request>
   </entry>
   <entry>
      <fullUrl value="urn:uuid:29c219e4-818b-11f0-9137-020000000000"/>
      <resource>
         <Organization>
            <meta>
               <profile value="http://nictiz.nl/fhir/StructureDefinition/nl-core-HealthcareProvider-Organization"/>
            </meta>
            <identifier>
               <system value="http://fhir.nl/fhir/NamingSystem/ura"/>
               <value value="00003333"/>
            </identifier>
            <type>
               <coding>
                  <system value="http://nictiz.nl/fhir/NamingSystem/organization-type"/>
                  <version value="2024-11-14T22:13:01"/>
                  <code value="L1"/>
                  <display value="Laboratorium"/>
               </coding>
            </type>
            <name value="Klinisch chemisch Lab 't Proefje"/>
         </Organization>
      </resource>
      <request>
         <method value="POST"/>
         <url value="Organization"/>
      </request>
   </entry>
</Bundle>