<Bundle xmlns="http://hl7.org/fhir">
   <id value="lu-blr-test-AB-loinc"/>
   <type value="transaction"/>
   <entry>
      <fullUrl value="urn:uuid:29c3f254-c53a-11f0-1048-020000000000"/>
      <resource>
         <DiagnosticReport>
            <id value="29c3eb73-c53a-11f0-1048-020000000000"/>
            <meta>
               <profile value="http://nictiz.nl/fhir/StructureDefinition/lu-LaboratoryTestResult-DiagnosticReport"/>
            </meta>
            <basedOn>
               <reference value="urn:uuid:29c3f240-c53a-11f0-1048-020000000000"/>
               <type value="ServiceRequest"/>
               <display value="Huisartsenpraktijk Pulver &amp; Partners"/>
            </basedOn>
            <status value="final"/>
            <category>
               <coding>
                  <system value="http://terminology.hl7.org/CodeSystem/v2-0074"/>
                  <code value="LAB"/>
                  <display value="Laboratory"/>
               </coding>
            </category>
            <code>
               <coding>
                  <system value="http://terminology.hl7.org/ValueSet/v3-NullFlavor"/>
                  <code value="UNK"/>
                  <display value="onbekend"/>
               </coding>
            </code>
            <subject>
               <reference value="urn:uuid:29c3f132-c53a-11f0-1048-020000000000"/>
               <type value="Patient"/>
               <display value="Patient, E. XXX_Doppen"/>
            </subject>
            <performer>
               <reference value="urn:uuid:29c3f1b4-c53a-11f0-1048-020000000000"/>
               <type value="Organization"/>
               <display value="Healthcare provider (organization), organisation-id in system"/>
            </performer>
            <result>
               <reference value="urn:uuid:29c3f1dc-c53a-11f0-1048-020000000000"/>
               <type value="Observation"/>
               <display value="laboratorium_test"/>
            </result>
         </DiagnosticReport>
      </resource>
   </entry>
   <entry>
      <fullUrl value="urn:uuid:29c3f268-c53a-11f0-1048-020000000000"/>
      <resource>
         <DiagnosticReport>
            <id value="29c3d756-c53a-11f0-1048-020000000000"/>
            <meta>
               <profile value="http://nictiz.nl/fhir/StructureDefinition/lu-LaboratoryTestResult-DiagnosticReport"/>
            </meta>
            <basedOn>
               <reference value="urn:uuid:29c3f240-c53a-11f0-1048-020000000000"/>
               <type value="ServiceRequest"/>
               <display value="Huisartsenpraktijk Pulver &amp; Partners"/>
            </basedOn>
            <status value="final"/>
            <category>
               <coding>
                  <system value="http://terminology.hl7.org/CodeSystem/v2-0074"/>
                  <code value="LAB"/>
                  <display value="Laboratory"/>
               </coding>
            </category>
            <code>
               <coding>
                  <system value="http://terminology.hl7.org/ValueSet/v3-NullFlavor"/>
                  <code value="UNK"/>
                  <display value="onbekend"/>
               </coding>
            </code>
            <subject>
               <reference value="urn:uuid:29c3f132-c53a-11f0-1048-020000000000"/>
               <type value="Patient"/>
               <display value="Patient, E. XXX_Doppen"/>
            </subject>
            <performer>
               <reference value="urn:uuid:29c3f1b4-c53a-11f0-1048-020000000000"/>
               <type value="Organization"/>
               <display value="Healthcare provider (organization), organisation-id in system"/>
            </performer>
            <result>
               <reference value="urn:uuid:29c3f1f0-c53a-11f0-1048-020000000000"/>
               <type value="Observation"/>
               <display value="laboratorium_test"/>
            </result>
         </DiagnosticReport>
      </resource>
   </entry>
   <entry>
      <fullUrl value="urn:uuid:29c3f27c-c53a-11f0-1048-020000000000"/>
      <resource>
         <DiagnosticReport>
            <id value="29c3d789-c53a-11f0-1048-020000000000"/>
            <meta>
               <profile value="http://nictiz.nl/fhir/StructureDefinition/lu-LaboratoryTestResult-DiagnosticReport"/>
            </meta>
            <basedOn>
               <reference value="urn:uuid:29c3f240-c53a-11f0-1048-020000000000"/>
               <type value="ServiceRequest"/>
               <display value="Huisartsenpraktijk Pulver &amp; Partners"/>
            </basedOn>
            <status value="final"/>
            <category>
               <coding>
                  <system value="http://terminology.hl7.org/CodeSystem/v2-0074"/>
                  <code value="LAB"/>
                  <display value="Laboratory"/>
               </coding>
            </category>
            <code>
               <coding>
                  <system value="http://terminology.hl7.org/ValueSet/v3-NullFlavor"/>
                  <code value="UNK"/>
                  <display value="onbekend"/>
               </coding>
            </code>
            <subject>
               <reference value="urn:uuid:29c3f132-c53a-11f0-1048-020000000000"/>
               <type value="Patient"/>
               <display value="Patient, E. XXX_Doppen"/>
            </subject>
            <performer>
               <reference value="urn:uuid:29c3f1b4-c53a-11f0-1048-020000000000"/>
               <type value="Organization"/>
               <display value="Healthcare provider (organization), organisation-id in system"/>
            </performer>
            <result>
               <reference value="urn:uuid:29c3f204-c53a-11f0-1048-020000000000"/>
               <type value="Observation"/>
               <display value="laboratorium_test"/>
            </result>
         </DiagnosticReport>
      </resource>
   </entry>
   <entry>
      <fullUrl value="urn:uuid:29c3f290-c53a-11f0-1048-020000000000"/>
      <resource>
         <DiagnosticReport>
            <id value="29c3d7c0-c53a-11f0-1048-020000000000"/>
            <meta>
               <profile value="http://nictiz.nl/fhir/StructureDefinition/lu-LaboratoryTestResult-DiagnosticReport"/>
            </meta>
            <basedOn>
               <reference value="urn:uuid:29c3f240-c53a-11f0-1048-020000000000"/>
               <type value="ServiceRequest"/>
               <display value="Huisartsenpraktijk Pulver &amp; Partners"/>
            </basedOn>
            <status value="final"/>
            <category>
               <coding>
                  <system value="http://terminology.hl7.org/CodeSystem/v2-0074"/>
                  <code value="LAB"/>
                  <display value="Laboratory"/>
               </coding>
            </category>
            <code>
               <coding>
                  <system value="http://terminology.hl7.org/ValueSet/v3-NullFlavor"/>
                  <code value="UNK"/>
                  <display value="onbekend"/>
               </coding>
            </code>
            <subject>
               <reference value="urn:uuid:29c3f132-c53a-11f0-1048-020000000000"/>
               <type value="Patient"/>
               <display value="Patient, E. XXX_Doppen"/>
            </subject>
            <performer>
               <reference value="urn:uuid:29c3f1b4-c53a-11f0-1048-020000000000"/>
               <type value="Organization"/>
               <display value="Healthcare provider (organization), organisation-id in system"/>
            </performer>
            <result>
               <reference value="urn:uuid:29c3f218-c53a-11f0-1048-020000000000"/>
               <type value="Observation"/>
               <display value="laboratorium_test"/>
            </result>
         </DiagnosticReport>
      </resource>
   </entry>
   <entry>
      <fullUrl value="urn:uuid:29c3f2a4-c53a-11f0-1048-020000000000"/>
      <resource>
         <DiagnosticReport>
            <id value="29c3d7f6-c53a-11f0-1048-020000000000"/>
            <meta>
               <profile value="http://nictiz.nl/fhir/StructureDefinition/lu-LaboratoryTestResult-DiagnosticReport"/>
            </meta>
            <basedOn>
               <reference value="urn:uuid:29c3f240-c53a-11f0-1048-020000000000"/>
               <type value="ServiceRequest"/>
               <display value="Huisartsenpraktijk Pulver &amp; Partners"/>
            </basedOn>
            <status value="final"/>
            <category>
               <coding>
                  <system value="http://terminology.hl7.org/CodeSystem/v2-0074"/>
                  <code value="LAB"/>
                  <display value="Laboratory"/>
               </coding>
            </category>
            <code>
               <coding>
                  <system value="http://terminology.hl7.org/ValueSet/v3-NullFlavor"/>
                  <code value="UNK"/>
                  <display value="onbekend"/>
               </coding>
            </code>
            <subject>
               <reference value="urn:uuid:29c3f132-c53a-11f0-1048-020000000000"/>
               <type value="Patient"/>
               <display value="Patient, E. XXX_Doppen"/>
            </subject>
            <performer>
               <reference value="urn:uuid:29c3f1b4-c53a-11f0-1048-020000000000"/>
               <type value="Organization"/>
               <display value="Healthcare provider (organization), organisation-id in system"/>
            </performer>
            <result>
               <reference value="urn:uuid:29c3f22c-c53a-11f0-1048-020000000000"/>
               <type value="Observation"/>
               <display value="laboratorium_test"/>
            </result>
         </DiagnosticReport>
      </resource>
   </entry>
   <entry>
      <fullUrl value="urn:uuid:29c3f1dc-c53a-11f0-1048-020000000000"/>
      <resource>
         <Observation>
            <id value="29c3eb79-c53a-11f0-1048-020000000000"/>
            <meta>
               <profile value="http://nictiz.nl/fhir/StructureDefinition/nl-core-LaboratoryTestResult"/>
            </meta>
            <identifier>
               <system value="urn:oid:2.16.840.1.113883.2.4.3.11.999.25.4298.2"/>
               <value value="99991"/>
            </identifier>
            <status value="final"/>
            <category>
               <coding>
                  <system value="http://terminology.hl7.org/CodeSystem/observation-category"/>
                  <code value="laboratory"/>
                  <display value="Laboratory"/>
               </coding>
            </category>
            <code>
               <coding>
                  <system value="http://loinc.org"/>
                  <code value="46418-0"/>
                  <display value="PT-INR [relatieve tijd] in capillair bloed d.m.v. stollingsmethode"/>
               </coding>
            </code>
            <subject>
               <reference value="urn:uuid:29c3f132-c53a-11f0-1048-020000000000"/>
               <type value="Patient"/>
               <display value="Patient, E. XXX_Doppen"/>
            </subject>
            <effectiveDateTime value="${DATE, T, Y, -3}"/>
            <performer>
               <reference value="urn:uuid:29c3f1b4-c53a-11f0-1048-020000000000"/>
               <type value="Organization"/>
               <display value="Healthcare provider (organization), organisation-id in system"/>
            </performer>
            <valueQuantity>
               <value value="2.7"/>
               <unit value="{INR}"/>
               <system value="http://unitsofmeasure.org"/>
               <code value="{INR}"/>
            </valueQuantity>
            <interpretation>
               <coding>
                  <system value="http://snomed.info/sct"/>
                  <code value="11896004"/>
                  <display value="intermediair"/>
               </coding>
               <coding>
                  <system value="http://terminology.hl7.org/CodeSystem/v3-ObservationInterpretation"/>
                  <code value="I"/>
                  <display value="Intermediate"/>
               </coding>
            </interpretation>
            <interpretation>
               <text value="Geen afwijkingen"/>
            </interpretation>
            <specimen>
               <reference value="urn:uuid:29c3f2b8-c53a-11f0-1048-020000000000"/>
               <type value="Specimen"/>
               <display value="monster"/>
            </specimen>
            <referenceRange>
               <low>
                  <value value="2.0"/>
                  <unit value="{INR}"/>
                  <system value="http://unitsofmeasure.org"/>
                  <code value="{INR}"/>
               </low>
               <high>
                  <value value="3.0"/>
                  <unit value="{INR}"/>
                  <system value="http://unitsofmeasure.org"/>
                  <code value="{INR}"/>
               </high>
            </referenceRange>
         </Observation>
      </resource>
      <request>
         <method value="POST"/>
         <url value="Observation"/>
      </request>
   </entry>
   <entry>
      <fullUrl value="urn:uuid:29c3f1f0-c53a-11f0-1048-020000000000"/>
      <resource>
         <Observation>
            <id value="29c3d75c-c53a-11f0-1048-020000000000"/>
            <meta>
               <profile value="http://nictiz.nl/fhir/StructureDefinition/nl-core-LaboratoryTestResult"/>
            </meta>
            <identifier>
               <system value="urn:oid:2.16.840.1.113883.2.4.3.11.999.25.4298.2"/>
               <value value="99992"/>
            </identifier>
            <status value="final"/>
            <category>
               <coding>
                  <system value="http://terminology.hl7.org/CodeSystem/observation-category"/>
                  <code value="laboratory"/>
                  <display value="Laboratory"/>
               </coding>
            </category>
            <code>
               <coding>
                  <system value="http://loinc.org"/>
                  <code value="3016-3"/>
                  <display value="TSH [eenheid/volume] in serum of plasma"/>
               </coding>
            </code>
            <subject>
               <reference value="urn:uuid:29c3f132-c53a-11f0-1048-020000000000"/>
               <type value="Patient"/>
               <display value="Patient, E. XXX_Doppen"/>
            </subject>
            <effectiveDateTime value="${DATE, T, M, -12}"/>
            <performer>
               <reference value="urn:uuid:29c3f1b4-c53a-11f0-1048-020000000000"/>
               <type value="Organization"/>
               <display value="Healthcare provider (organization), organisation-id in system"/>
            </performer>
            <valueQuantity>
               <value value="3.8"/>
               <unit value="m[IU]/L"/>
               <system value="http://unitsofmeasure.org"/>
               <code value="m[IU]/L"/>
            </valueQuantity>
            <interpretation>
               <coding>
                  <system value="http://snomed.info/sct"/>
                  <code value="11896004"/>
                  <display value="intermediair"/>
               </coding>
               <coding>
                  <system value="http://terminology.hl7.org/CodeSystem/v3-ObservationInterpretation"/>
                  <code value="I"/>
                  <display value="Intermediate"/>
               </coding>
            </interpretation>
            <interpretation>
               <text value="Geen afwijkingen"/>
            </interpretation>
            <specimen>
               <reference value="urn:uuid:29c3f2cc-c53a-11f0-1048-020000000000"/>
               <type value="Specimen"/>
               <display value="monster"/>
            </specimen>
            <referenceRange>
               <low>
                  <value value="0.4"/>
                  <unit value="m[IU]/L"/>
                  <system value="http://unitsofmeasure.org"/>
                  <code value="m[IU]/L"/>
               </low>
               <high>
                  <value value="4.0"/>
                  <unit value="m[IU]/L"/>
                  <system value="http://unitsofmeasure.org"/>
                  <code value="m[IU]/L"/>
               </high>
            </referenceRange>
         </Observation>
      </resource>
      <request>
         <method value="POST"/>
         <url value="Observation"/>
      </request>
   </entry>
   <entry>
      <fullUrl value="urn:uuid:29c3f204-c53a-11f0-1048-020000000000"/>
      <resource>
         <Observation>
            <id value="29c3d791-c53a-11f0-1048-020000000000"/>
            <meta>
               <profile value="http://nictiz.nl/fhir/StructureDefinition/nl-core-LaboratoryTestResult"/>
            </meta>
            <identifier>
               <system value="urn:oid:2.16.840.1.113883.2.4.3.11.999.25.4298.2"/>
               <value value="99993"/>
            </identifier>
            <status value="final"/>
            <category>
               <coding>
                  <system value="http://terminology.hl7.org/CodeSystem/observation-category"/>
                  <code value="laboratory"/>
                  <display value="Laboratory"/>
               </coding>
            </category>
            <code>
               <coding>
                  <system value="http://loinc.org"/>
                  <code value="50384-7"/>
                  <display value="Glomerulaire filtratiesnelheid/1,73 m2.voorspeld [filtratiesnelheid/oppervlakte] in serum of plasma of bloed d.m.v. op creatinine gebaseerde formule van Schwartz"/>
               </coding>
            </code>
            <subject>
               <reference value="urn:uuid:29c3f132-c53a-11f0-1048-020000000000"/>
               <type value="Patient"/>
               <display value="Patient, E. XXX_Doppen"/>
            </subject>
            <effectiveDateTime value="${DATE, T, M, -13}"/>
            <performer>
               <reference value="urn:uuid:29c3f1b4-c53a-11f0-1048-020000000000"/>
               <type value="Organization"/>
               <display value="Healthcare provider (organization), organisation-id in system"/>
            </performer>
            <valueQuantity>
               <value value="65"/>
               <unit value="mL/min/{1,73_m2}"/>
               <system value="http://unitsofmeasure.org"/>
               <code value="mL/min/{1,73_m2}"/>
            </valueQuantity>
            <interpretation>
               <coding>
                  <system value="http://snomed.info/sct"/>
                  <code value="11896004"/>
                  <display value="intermediair"/>
               </coding>
               <coding>
                  <system value="http://terminology.hl7.org/CodeSystem/v3-ObservationInterpretation"/>
                  <code value="I"/>
                  <display value="Intermediate"/>
               </coding>
            </interpretation>
            <interpretation>
               <text value="Normale nierfunctie"/>
            </interpretation>
            <specimen>
               <reference value="urn:uuid:29c3f2e0-c53a-11f0-1048-020000000000"/>
               <type value="Specimen"/>
               <display value="monster"/>
            </specimen>
            <referenceRange>
               <low>
                  <value value="60"/>
                  <unit value="mL/min/{1,73_m2}"/>
                  <system value="http://unitsofmeasure.org"/>
                  <code value="mL/min/{1,73_m2}"/>
               </low>
               <high>
                  <value value="90"/>
                  <unit value="mL/min/{1,73_m2}"/>
                  <system value="http://unitsofmeasure.org"/>
                  <code value="mL/min/{1,73_m2}"/>
               </high>
            </referenceRange>
         </Observation>
      </resource>
      <request>
         <method value="POST"/>
         <url value="Observation"/>
      </request>
   </entry>
   <entry>
      <fullUrl value="urn:uuid:29c3f218-c53a-11f0-1048-020000000000"/>
      <resource>
         <Observation>
            <id value="29c3d7c8-c53a-11f0-1048-020000000000"/>
            <meta>
               <profile value="http://nictiz.nl/fhir/StructureDefinition/nl-core-LaboratoryTestResult"/>
            </meta>
            <identifier>
               <system value="urn:oid:2.16.840.1.113883.2.4.3.11.999.25.4298.2"/>
               <value value="99994"/>
            </identifier>
            <status value="final"/>
            <category>
               <coding>
                  <system value="http://terminology.hl7.org/CodeSystem/observation-category"/>
                  <code value="laboratory"/>
                  <display value="Laboratory"/>
               </coding>
            </category>
            <code>
               <coding>
                  <system value="http://loinc.org"/>
                  <code value="50384-7"/>
                  <display value="Glomerulaire filtratiesnelheid/1,73 m2.voorspeld [filtratiesnelheid/oppervlakte] in serum of plasma of bloed d.m.v. op creatinine gebaseerde formule van Schwartz"/>
               </coding>
            </code>
            <subject>
               <reference value="urn:uuid:29c3f132-c53a-11f0-1048-020000000000"/>
               <type value="Patient"/>
               <display value="Patient, E. XXX_Doppen"/>
            </subject>
            <effectiveDateTime value="${DATE, T, M, -8}"/>
            <performer>
               <reference value="urn:uuid:29c3f1b4-c53a-11f0-1048-020000000000"/>
               <type value="Organization"/>
               <display value="Healthcare provider (organization), organisation-id in system"/>
            </performer>
            <valueQuantity>
               <value value="40"/>
               <unit value="mL/min/{1,73_m2}"/>
               <system value="http://unitsofmeasure.org"/>
               <code value="mL/min/{1,73_m2}"/>
            </valueQuantity>
            <interpretation>
               <coding>
                  <system value="http://snomed.info/sct"/>
                  <code value="281300000"/>
                  <display value="onder referentiebereik"/>
               </coding>
               <coding>
                  <system value="http://terminology.hl7.org/CodeSystem/v3-ObservationInterpretation"/>
                  <code value="L"/>
                  <display value="Low"/>
               </coding>
            </interpretation>
            <interpretation>
               <text value="Milde nierfunctiestoornis"/>
            </interpretation>
            <specimen>
               <reference value="urn:uuid:29c3f2f4-c53a-11f0-1048-020000000000"/>
               <type value="Specimen"/>
               <display value="monster"/>
            </specimen>
            <referenceRange>
               <low>
                  <value value="60"/>
                  <unit value="mL/min/{1,73_m2}"/>
                  <system value="http://unitsofmeasure.org"/>
                  <code value="mL/min/{1,73_m2}"/>
               </low>
               <high>
                  <value value="90"/>
                  <unit value="mL/min/{1,73_m2}"/>
                  <system value="http://unitsofmeasure.org"/>
                  <code value="mL/min/{1,73_m2}"/>
               </high>
            </referenceRange>
         </Observation>
      </resource>
      <request>
         <method value="POST"/>
         <url value="Observation"/>
      </request>
   </entry>
   <entry>
      <fullUrl value="urn:uuid:29c3f22c-c53a-11f0-1048-020000000000"/>
      <resource>
         <Observation>
            <id value="29c3d7fe-c53a-11f0-1048-020000000000"/>
            <meta>
               <profile value="http://nictiz.nl/fhir/StructureDefinition/nl-core-LaboratoryTestResult"/>
            </meta>
            <identifier>
               <system value="urn:oid:2.16.840.1.113883.2.4.3.11.999.25.4298.2"/>
               <value value="99995"/>
            </identifier>
            <status value="final"/>
            <category>
               <coding>
                  <system value="http://terminology.hl7.org/CodeSystem/observation-category"/>
                  <code value="laboratory"/>
                  <display value="Laboratory"/>
               </coding>
            </category>
            <code>
               <coding>
                  <system value="http://loinc.org"/>
                  <code value="50384-7"/>
                  <display value="Glomerulaire filtratiesnelheid/1,73 m2.voorspeld [filtratiesnelheid/oppervlakte] in serum of plasma of bloed d.m.v. op creatinine gebaseerde formule van Schwartz"/>
               </coding>
            </code>
            <subject>
               <reference value="urn:uuid:29c3f132-c53a-11f0-1048-020000000000"/>
               <type value="Patient"/>
               <display value="Patient, E. XXX_Doppen"/>
            </subject>
            <effectiveDateTime value="${DATE, T, M, -1}"/>
            <performer>
               <reference value="urn:uuid:29c3f1b4-c53a-11f0-1048-020000000000"/>
               <type value="Organization"/>
               <display value="Healthcare provider (organization), organisation-id in system"/>
            </performer>
            <valueQuantity>
               <value value="45"/>
               <unit value="mL/min/{1,73_m2}"/>
               <system value="http://unitsofmeasure.org"/>
               <code value="mL/min/{1,73_m2}"/>
            </valueQuantity>
            <interpretation>
               <coding>
                  <system value="http://snomed.info/sct"/>
                  <code value="281300000"/>
                  <display value="onder referentiebereik"/>
               </coding>
               <coding>
                  <system value="http://terminology.hl7.org/CodeSystem/v3-ObservationInterpretation"/>
                  <code value="L"/>
                  <display value="Low"/>
               </coding>
            </interpretation>
            <interpretation>
               <text value="Milde nierfunctiestoornis"/>
            </interpretation>
            <specimen>
               <reference value="urn:uuid:29c3f308-c53a-11f0-1048-020000000000"/>
               <type value="Specimen"/>
               <display value="monster"/>
            </specimen>
            <referenceRange>
               <low>
                  <value value="60"/>
                  <unit value="mL/min/{1,73_m2}"/>
                  <system value="http://unitsofmeasure.org"/>
                  <code value="mL/min/{1,73_m2}"/>
               </low>
               <high>
                  <value value="90"/>
                  <unit value="mL/min/{1,73_m2}"/>
                  <system value="http://unitsofmeasure.org"/>
                  <code value="mL/min/{1,73_m2}"/>
               </high>
            </referenceRange>
         </Observation>
      </resource>
      <request>
         <method value="POST"/>
         <url value="Observation"/>
      </request>
   </entry>
   <entry>
      <fullUrl value="urn:uuid:29c3f240-c53a-11f0-1048-020000000000"/>
      <resource>
         <ServiceRequest>
            <id value="29c3eb39-c53a-11f0-1048-020000000000"/>
            <meta>
               <profile value="http://nictiz.nl/fhir/StructureDefinition/lu-OrderData"/>
            </meta>
            <status value="unknown"/>
            <intent value="order"/>
            <subject>
               <reference value="urn:uuid:29c3f132-c53a-11f0-1048-020000000000"/>
               <type value="Patient"/>
               <display value="Patient, E. XXX_Doppen"/>
            </subject>
            <requester>
               <reference value="urn:uuid:29c3f150-c53a-11f0-1048-020000000000"/>
               <type value="PractitionerRole"/>
               <display value="Healthcare professional (role), Peter van Pulver, Huisartsen, niet nader gespecificeerd"/>
            </requester>
         </ServiceRequest>
      </resource>
      <request>
         <method value="POST"/>
         <url value="ServiceRequest"/>
      </request>
   </entry>
   <entry>
      <fullUrl value="urn:uuid:29c3f150-c53a-11f0-1048-020000000000"/>
      <resource>
         <PractitionerRole>
            <id value="29c3eb3b-c53a-11f0-1048-020000000000"/>
            <meta>
               <profile value="http://nictiz.nl/fhir/StructureDefinition/nl-core-HealthProfessional-PractitionerRole"/>
            </meta>
            <practitioner>
               <reference value="urn:uuid:29c3f16e-c53a-11f0-1048-020000000000"/>
               <type value="Practitioner"/>
               <display value="Healthcare professional (person), Peter van Pulver"/>
            </practitioner>
            <organization>
               <reference value="urn:uuid:29c3f18c-c53a-11f0-1048-020000000000"/>
               <type value="Organization"/>
               <display value="Healthcare provider (organization), Huisartsenpraktijk Pulver &amp; Partners"/>
            </organization>
            <specialty>
               <coding>
                  <system value="urn:oid:2.16.840.1.113883.2.4.6.7"/>
                  <code value="0101"/>
                  <display value="Huisartsen, niet nader gespecificeerd"/>
               </coding>
            </specialty>
            <telecom>
               <system value="phone"/>
               <value value="1645645000"/>
            </telecom>
         </PractitionerRole>
      </resource>
      <request>
         <method value="POST"/>
         <url value="PractitionerRole"/>
      </request>
   </entry>
   <entry>
      <fullUrl value="urn:uuid:29c3f16e-c53a-11f0-1048-020000000000"/>
      <resource>
         <Practitioner>
            <id value="29c3eb3b-c53a-11f0-1048-020000000000"/>
            <meta>
               <profile value="http://nictiz.nl/fhir/StructureDefinition/nl-core-HealthProfessional-Practitioner"/>
            </meta>
            <identifier>
               <system value="http://fhir.nl/fhir/NamingSystem/agb-z"/>
               <value value="00001111"/>
            </identifier>
            <name>
               <use value="official"/>
               <text value="Peter van Pulver"/>
               <family value="van Pulver">
                  <extension url="http://hl7.org/fhir/StructureDefinition/humanname-own-prefix">
                     <valueString value="van"/>
                  </extension>
                  <extension url="http://hl7.org/fhir/StructureDefinition/humanname-own-name">
                     <valueString value="Pulver"/>
                  </extension>
               </family>
               <given value="Peter">
                  <extension url="http://hl7.org/fhir/StructureDefinition/iso21090-EN-qualifier">
                     <valueCode value="BR"/>
                  </extension>
               </given>
            </name>
            <telecom>
               <system value="phone"/>
               <value value="1645645000"/>
            </telecom>
         </Practitioner>
      </resource>
      <request>
         <method value="POST"/>
         <url value="Practitioner"/>
      </request>
   </entry>
   <entry>
      <fullUrl value="urn:uuid:29c3f2b8-c53a-11f0-1048-020000000000"/>
      <resource>
         <Specimen>
            <id value="29c3d743-c53a-11f0-1048-020000000000"/>
            <meta>
               <profile value="http://nictiz.nl/fhir/StructureDefinition/nl-core-LaboratoryTestResult.Specimen"/>
            </meta>
            <type>
               <coding>
                  <system value="http://snomed.info/sct"/>
                  <code value="87612001"/>
                  <display value="Bloed"/>
               </coding>
            </type>
            <subject>
               <reference value="urn:uuid:29c3f132-c53a-11f0-1048-020000000000"/>
               <type value="Patient"/>
               <display value="Patient, E. XXX_Doppen"/>
            </subject>
            <collection>
               <collectedDateTime value="${DATE, T, Y, -3}"/>
            </collection>
         </Specimen>
      </resource>
      <request>
         <method value="POST"/>
         <url value="Specimen"/>
      </request>
   </entry>
   <entry>
      <fullUrl value="urn:uuid:29c3f2cc-c53a-11f0-1048-020000000000"/>
      <resource>
         <Specimen>
            <id value="29c3d776-c53a-11f0-1048-020000000000"/>
            <meta>
               <profile value="http://nictiz.nl/fhir/StructureDefinition/nl-core-LaboratoryTestResult.Specimen"/>
            </meta>
            <type>
               <coding>
                  <system value="http://snomed.info/sct"/>
                  <code value="87612001"/>
                  <display value="Bloed"/>
               </coding>
            </type>
            <subject>
               <reference value="urn:uuid:29c3f132-c53a-11f0-1048-020000000000"/>
               <type value="Patient"/>
               <display value="Patient, E. XXX_Doppen"/>
            </subject>
            <collection>
               <collectedDateTime value="${DATE, T, M, -12}"/>
            </collection>
         </Specimen>
      </resource>
      <request>
         <method value="POST"/>
         <url value="Specimen"/>
      </request>
   </entry>
   <entry>
      <fullUrl value="urn:uuid:29c3f2e0-c53a-11f0-1048-020000000000"/>
      <resource>
         <Specimen>
            <id value="29c3d7ab-c53a-11f0-1048-020000000000"/>
            <meta>
               <profile value="http://nictiz.nl/fhir/StructureDefinition/nl-core-LaboratoryTestResult.Specimen"/>
            </meta>
            <type>
               <coding>
                  <system value="http://snomed.info/sct"/>
                  <code value="87612001"/>
                  <display value="Bloed"/>
               </coding>
            </type>
            <subject>
               <reference value="urn:uuid:29c3f132-c53a-11f0-1048-020000000000"/>
               <type value="Patient"/>
               <display value="Patient, E. XXX_Doppen"/>
            </subject>
            <collection>
               <collectedDateTime value="${DATE, T, M, -13}"/>
            </collection>
         </Specimen>
      </resource>
      <request>
         <method value="POST"/>
         <url value="Specimen"/>
      </request>
   </entry>
   <entry>
      <fullUrl value="urn:uuid:29c3f2f4-c53a-11f0-1048-020000000000"/>
      <resource>
         <Specimen>
            <id value="29c3d7e2-c53a-11f0-1048-020000000000"/>
            <meta>
               <profile value="http://nictiz.nl/fhir/StructureDefinition/nl-core-LaboratoryTestResult.Specimen"/>
            </meta>
            <type>
               <coding>
                  <system value="http://snomed.info/sct"/>
                  <code value="87612001"/>
                  <display value="Bloed"/>
               </coding>
            </type>
            <subject>
               <reference value="urn:uuid:29c3f132-c53a-11f0-1048-020000000000"/>
               <type value="Patient"/>
               <display value="Patient, E. XXX_Doppen"/>
            </subject>
            <collection>
               <collectedDateTime value="${DATE, T, M, -8}"/>
            </collection>
         </Specimen>
      </resource>
      <request>
         <method value="POST"/>
         <url value="Specimen"/>
      </request>
   </entry>
   <entry>
      <fullUrl value="urn:uuid:29c3f308-c53a-11f0-1048-020000000000"/>
      <resource>
         <Specimen>
            <id value="29c3d818-c53a-11f0-1048-020000000000"/>
            <meta>
               <profile value="http://nictiz.nl/fhir/StructureDefinition/nl-core-LaboratoryTestResult.Specimen"/>
            </meta>
            <type>
               <coding>
                  <system value="http://snomed.info/sct"/>
                  <code value="87612001"/>
                  <display value="Bloed"/>
               </coding>
            </type>
            <subject>
               <reference value="urn:uuid:29c3f132-c53a-11f0-1048-020000000000"/>
               <type value="Patient"/>
               <display value="Patient, E. XXX_Doppen"/>
            </subject>
            <collection>
               <collectedDateTime value="${DATE, T, M, -1}"/>
            </collection>
         </Specimen>
      </resource>
      <request>
         <method value="POST"/>
         <url value="Specimen"/>
      </request>
   </entry>
   <entry>
      <fullUrl value="urn:uuid:29c3f1b4-c53a-11f0-1048-020000000000"/>
      <resource>
         <Organization>
            <id value="29c3d74e-c53a-11f0-1048-020000000000"/>
            <meta>
               <profile value="http://nictiz.nl/fhir/StructureDefinition/nl-core-HealthcareProvider-Organization"/>
            </meta>
            <type>
               <coding>
                  <system value="http://nictiz.nl/fhir/NamingSystem/organization-type"/>
                  <version value="2024-11-14T22:13:01"/>
                  <code value="L1"/>
                  <display value="Laboratorium"/>
               </coding>
            </type>
         </Organization>
      </resource>
      <request>
         <method value="POST"/>
         <url value="Organization"/>
      </request>
   </entry>
   <entry>
      <fullUrl value="urn:uuid:29c3f18c-c53a-11f0-1048-020000000000"/>
      <resource>
         <Organization>
            <id value="29c3eb56-c53a-11f0-1048-020000000000"/>
            <meta>
               <profile value="http://nictiz.nl/fhir/StructureDefinition/nl-core-HealthcareProvider-Organization"/>
            </meta>
            <identifier>
               <system value="http://fhir.nl/fhir/NamingSystem/ura"/>
               <value value="00001111"/>
            </identifier>
            <name value="Huisartsenpraktijk Pulver &amp; Partners"/>
            <telecom>
               <system value="phone"/>
               <value value="099-12345678"/>
            </telecom>
            <address>
               <extension url="http://nictiz.nl/fhir/StructureDefinition/ext-AddressInformation.AddressType">
                  <valueCodeableConcept>
                     <coding>
                        <system value="http://terminology.hl7.org/CodeSystem/v3-AddressUse"/>
                        <code value="WP"/>
                        <display value="Werkadres"/>
                     </coding>
                  </valueCodeableConcept>
               </extension>
               <use value="work"/>
               <line value="Dorpstraat 1">
                  <extension url="http://hl7.org/fhir/StructureDefinition/iso21090-ADXP-streetName">
                     <valueString value="Dorpstraat"/>
                  </extension>
                  <extension url="http://hl7.org/fhir/StructureDefinition/iso21090-ADXP-houseNumber">
                     <valueString value="1"/>
                  </extension>
               </line>
               <city value="Ons Dorp"/>
               <postalCode value="1234AA"/>
            </address>
         </Organization>
      </resource>
      <request>
         <method value="POST"/>
         <url value="Organization"/>
      </request>
   </entry>
   <entry>
      <fullUrl value="urn:uuid:29c3f132-c53a-11f0-1048-020000000000"/>
      <resource>
         <Patient>
            <id value="29c3eb25-c53a-11f0-1048-020000000000"/>
            <meta>
               <profile value="http://nictiz.nl/fhir/StructureDefinition/nl-core-Patient"/>
            </meta>
            <identifier>
               <system value="http://fhir.nl/fhir/NamingSystem/bsn"/>
               <value value="999900511"/>
            </identifier>
            <name>
               <use value="official"/>
               <text value="E. XXX_Doppen"/>
               <family value="XXX_Doppen">
                  <extension url="http://hl7.org/fhir/StructureDefinition/humanname-own-name">
                     <valueString value="XXX_Doppen"/>
                  </extension>
               </family>
               <given value="E.">
                  <extension url="http://hl7.org/fhir/StructureDefinition/iso21090-EN-qualifier">
                     <valueCode value="IN"/>
                  </extension>
               </given>
            </name>
            <gender value="male">
               <extension url="http://nictiz.nl/fhir/StructureDefinition/ext-CodeSpecification">
                  <valueCodeableConcept>
                     <coding>
                        <system value="http://terminology.hl7.org/CodeSystem/v3-AdministrativeGender"/>
                        <code value="M"/>
                        <display value="Man"/>
                     </coding>
                  </valueCodeableConcept>
               </extension>
            </gender>
            <birthDate value="1963-10-24"/>
         </Patient>
      </resource>
      <request>
         <method value="POST"/>
         <url value="Patient"/>
      </request>
   </entry>
</Bundle>