<Bundle xmlns="http://hl7.org/fhir">
   <id value="b0d6d133-d4db-11ef-1556-020000000000"/>
   <meta>
      <profile value="http://nictiz.nl/fhir/StructureDefinition/mp-MedicationPrescriptionProcessing-Bundle"/>
   </meta>
   <type value="transaction"/>
   <entry>
      <fullUrl value="urn:uuid:b0d6d1b4-d4db-11ef-1556-020000000000"/>
      <resource>
         <MedicationDispense>
            <meta>
               <profile value="http://nictiz.nl/fhir/StructureDefinition/mp-AdministrationAgreement"/>
               <tag>
                  <system value="http://terminology.hl7.org/CodeSystem/common-tags"/>
                  <code value="actionable"/>
               </tag>
            </meta>
            <extension url="http://nictiz.nl/fhir/StructureDefinition/ext-RegistrationDateTime">
               <valueDateTime value="2023-01-01T09:24:00+01:00"/>
            </extension>
            <extension url="http://nictiz.nl/fhir/StructureDefinition/ext-RenderedDosageInstruction">
               <valueString value="elke dag om 08:00, 14:00 en 20:00 1 stuk, oraal"/>
            </extension>
            <extension url="http://nictiz.nl/fhir/StructureDefinition/ext-TimeInterval.Period">
               <valuePeriod>
                  <start value="2023-01-01T00:00:00+01:00"/>
                  <end value="2023-01-15T23:59:59+01:00"/>
               </valuePeriod>
            </extension>
            <extension url="http://nictiz.nl/fhir/StructureDefinition/ext-PharmaceuticalTreatment.Identifier">
               <valueIdentifier>
                  <system value="urn:oid:2.16.840.1.113883.2.4.3.11.999.77.1.1"/>
                  <value value="MBH_300_tijdstippen_flexibel"/>
               </valueIdentifier>
            </extension>
            <identifier>
               <system value="urn:oid:2.16.840.1.113883.2.4.3.11.999.77.422037009.1"/>
               <value value="MBH_300_tijdstippen_flexibel_TA"/>
            </identifier>
            <status value="unknown"/>
            <category>
               <coding>
                  <system value="http://snomed.info/sct"/>
                  <code value="422037009"/>
                  <display value="toedieningsafspraak"/>
               </coding>
            </category>
            <medicationReference>
               <reference value="urn:uuid:b0d6d1dc-d4db-11ef-1556-020000000000"/>
               <type value="Medication"/>
               <display value="METFORMINE HCL PCH TABLET 500MG"/>
            </medicationReference>
            <subject>
               <reference value="urn:uuid:b0d6d164-d4db-11ef-1556-020000000000"/>
               <type value="Patient"/>
               <display value="Patient, G. XXX_Hemsbergen"/>
            </subject>
            <performer>
               <actor>
                  <reference value="urn:uuid:b0d6d18c-d4db-11ef-1556-020000000000"/>
                  <type value="Organization"/>
                  <display value="Healthcare provider (organization), Apotheek De Gulle Gaper"/>
               </actor>
            </performer>
            <authorizingPrescription>
               <type value="MedicationRequest"/>
               <identifier>
                  <system value="urn:oid:2.16.840.1.113883.2.4.3.11.999.77.16076005.1"/>
                  <value value="MBH_300_tijdstippen_flexibel_MA"/>
               </identifier>
               <display value="relatie naar medicatieafspraak met identificatie: MBH_300_tijdstippen_flexibel_MA || 2.16.840.1.113883.2.4.3.11.999.77.16076005.1"/>
            </authorizingPrescription>
            <dosageInstruction>
               <timing>
                  <repeat>
                     <extension url="http://hl7.org/fhir/StructureDefinition/timing-exact">
                        <valueBoolean value="false"/>
                     </extension>
                     <timeOfDay value="08:00:00"/>
                     <timeOfDay value="14:00:00"/>
                     <timeOfDay value="20:00:00"/>
                  </repeat>
               </timing>
               <route>
                  <coding>
                     <system value="urn:oid:2.16.840.1.113883.2.4.4.9"/>
                     <code value="9"/>
                     <display value="oraal"/>
                  </coding>
               </route>
               <doseAndRate>
                  <doseQuantity>
                     <extension url="http://hl7.org/fhir/StructureDefinition/iso21090-PQ-translation">
                        <valueQuantity>
                           <value value="1"/>
                           <unit value="stuk"/>
                           <system value="urn:oid:2.16.840.1.113883.2.4.4.1.900.2"/>
                           <code value="245"/>
                        </valueQuantity>
                     </extension>
                     <value value="1"/>
                     <unit value="stuk"/>
                     <system value="http://unitsofmeasure.org"/>
                     <code value="1"/>
                  </doseQuantity>
               </doseAndRate>
            </dosageInstruction>
         </MedicationDispense>
      </resource>
      <request>
         <method value="POST"/>
         <url value="MedicationDispense"/>
      </request>
   </entry>
   <entry>
      <fullUrl value="urn:uuid:b0d6d1c8-d4db-11ef-1556-020000000000"/>
      <resource>
         <MedicationDispense>
            <meta>
               <profile value="http://nictiz.nl/fhir/StructureDefinition/mp-MedicationDispense"/>
               <tag>
                  <system value="http://terminology.hl7.org/CodeSystem/common-tags"/>
                  <code value="actionable"/>
               </tag>
            </meta>
            <extension url="http://nictiz.nl/fhir/StructureDefinition/ext-PharmaceuticalTreatment.Identifier">
               <valueIdentifier>
                  <system value="urn:oid:2.16.840.1.113883.2.4.3.11.999.77.1.1"/>
                  <value value="MBH_300_tijdstippen_flexibel"/>
               </valueIdentifier>
            </extension>
            <identifier>
               <system value="urn:oid:2.16.840.1.113883.2.4.3.11.999.77.373784005.1"/>
               <value value="MBH_300_tijdstippen_flexibel_MVE"/>
            </identifier>
            <status value="completed"/>
            <category>
               <coding>
                  <system value="http://snomed.info/sct"/>
                  <code value="373784005"/>
                  <display value="verstrekken van medicatie"/>
               </coding>
            </category>
            <medicationReference>
               <reference value="urn:uuid:b0d6d1dc-d4db-11ef-1556-020000000000"/>
               <type value="Medication"/>
               <display value="METFORMINE HCL PCH TABLET 500MG"/>
            </medicationReference>
            <subject>
               <reference value="urn:uuid:b0d6d164-d4db-11ef-1556-020000000000"/>
               <type value="Patient"/>
               <display value="Patient, G. XXX_Hemsbergen"/>
            </subject>
            <performer>
               <actor>
                  <reference value="urn:uuid:b0d6d18c-d4db-11ef-1556-020000000000"/>
                  <type value="Organization"/>
                  <display value="Healthcare provider (organization), Apotheek De Gulle Gaper"/>
               </actor>
            </performer>
            <authorizingPrescription>
               <type value="MedicationRequest"/>
               <identifier>
                  <system value="urn:oid:2.16.840.1.113883.2.4.3.11.999.77.52711000146108.1"/>
                  <value value="MBH_300_tijdstippen_flexibel_VV"/>
               </identifier>
               <display value="relatie naar verstrekkingsverzoek met identificatie: MBH_300_tijdstippen_flexibel_VV || 2.16.840.1.113883.2.4.3.11.999.77.52711000146108.1"/>
            </authorizingPrescription>
            <quantity>
               <extension url="http://hl7.org/fhir/StructureDefinition/iso21090-PQ-translation">
                  <valueQuantity>
                     <value value="45"/>
                     <unit value="stuk"/>
                     <system value="urn:oid:2.16.840.1.113883.2.4.4.1.900.2"/>
                     <code value="245"/>
                  </valueQuantity>
               </extension>
               <value value="45"/>
               <unit value="stuk"/>
               <system value="http://unitsofmeasure.org"/>
               <code value="1"/>
            </quantity>
            <whenHandedOver value="2023-01-01T09:24:00+01:00"/>
         </MedicationDispense>
      </resource>
      <request>
         <method value="POST"/>
         <url value="MedicationDispense"/>
      </request>
   </entry>
   <entry>
      <fullUrl value="urn:uuid:b0d6d164-d4db-11ef-1556-020000000000"/>
      <resource>
         <Patient>
            <meta>
               <profile value="http://nictiz.nl/fhir/StructureDefinition/nl-core-Patient"/>
            </meta>
            <identifier>
               <system value="http://fhir.nl/fhir/NamingSystem/bsn"/>
               <value value="999900602"/>
            </identifier>
            <name>
               <extension url="http://hl7.org/fhir/StructureDefinition/humanname-assembly-order">
                  <valueCode value="NL1"/>
               </extension>
               <use value="official"/>
               <text value="G. XXX_Hemsbergen"/>
               <family value="XXX_Hemsbergen">
                  <extension url="http://hl7.org/fhir/StructureDefinition/humanname-own-name">
                     <valueString value="XXX_Hemsbergen"/>
                  </extension>
               </family>
               <given value="G.">
                  <extension url="http://hl7.org/fhir/StructureDefinition/iso21090-EN-qualifier">
                     <valueCode value="IN"/>
                  </extension>
               </given>
            </name>
            <gender value="female">
               <extension url="http://nictiz.nl/fhir/StructureDefinition/ext-CodeSpecification">
                  <valueCodeableConcept>
                     <coding>
                        <system value="http://terminology.hl7.org/CodeSystem/v3-AdministrativeGender"/>
                        <code value="F"/>
                        <display value="Vrouw"/>
                     </coding>
                  </valueCodeableConcept>
               </extension>
            </gender>
            <birthDate value="1963-11-02"/>
         </Patient>
      </resource>
      <request>
         <method value="POST"/>
         <url value="Patient"/>
      </request>
   </entry>
   <entry>
      <fullUrl value="urn:uuid:b0d6d18c-d4db-11ef-1556-020000000000"/>
      <resource>
         <Organization>
            <meta>
               <profile value="http://nictiz.nl/fhir/StructureDefinition/nl-core-HealthcareProvider-Organization"/>
            </meta>
            <identifier>
               <system value="http://fhir.nl/fhir/NamingSystem/ura"/>
               <value value="01236578"/>
            </identifier>
            <name value="Apotheek De Gulle Gaper"/>
            <address>
               <extension url="http://nictiz.nl/fhir/StructureDefinition/ext-AddressInformation.AddressType">
                  <valueCodeableConcept>
                     <coding>
                        <system value="http://terminology.hl7.org/CodeSystem/v3-AddressUse"/>
                        <code value="WP"/>
                        <display value="Werkadres"/>
                     </coding>
                  </valueCodeableConcept>
               </extension>
               <use value="work"/>
               <line value="Dorpsstraat 12 A">
                  <extension url="http://hl7.org/fhir/StructureDefinition/iso21090-ADXP-streetName">
                     <valueString value="Dorpsstraat"/>
                  </extension>
                  <extension url="http://hl7.org/fhir/StructureDefinition/iso21090-ADXP-houseNumber">
                     <valueString value="12"/>
                  </extension>
                  <extension url="http://hl7.org/fhir/StructureDefinition/iso21090-ADXP-buildingNumberSuffix">
                     <valueString value="A"/>
                  </extension>
               </line>
               <city value="Ons Dorp"/>
               <postalCode value="1234AA"/>
            </address>
         </Organization>
      </resource>
      <request>
         <method value="POST"/>
         <url value="Organization"/>
      </request>
   </entry>
   <entry>
      <fullUrl value="urn:uuid:b0d6d1dc-d4db-11ef-1556-020000000000"/>
      <resource>
         <Medication>
            <meta>
               <profile value="http://nictiz.nl/fhir/StructureDefinition/mp-PharmaceuticalProduct"/>
            </meta>
            <code>
               <coding>
                  <system value="urn:oid:2.16.840.1.113883.2.4.4.7"/>
                  <code value="693332"/>
                  <display value="METFORMINE HCL PCH TABLET 500MG"/>
                  <userSelected value="true"/>
               </coding>
               <coding>
                  <system value="urn:oid:2.16.840.1.113883.2.4.4.10"/>
                  <code value="1090"/>
                  <display value="METFORMINE 500MG TABLET"/>
               </coding>
               <coding>
                  <system value="urn:oid:2.16.840.1.113883.2.4.4.1"/>
                  <code value="3816"/>
                  <display value="METFORMINE 500MG TABLET"/>
               </coding>
               <text value="METFORMINE HCL PCH TABLET 500MG"/>
            </code>
         </Medication>
      </resource>
      <request>
         <method value="POST"/>
         <url value="Medication"/>
      </request>
   </entry>
</Bundle>