<?xml-model href="http://hl7.org/fhir/STU3/bundle.sch" type="application/xml" schematypens="http://purl.oclc.org/dsdl/schematron"?><Bundle xmlns="http://hl7.org/fhir"
        xmlns:xsi="http://www.w3.org/2001/XMLSchema-instance"
        xsi:schemaLocation="http://hl7.org/fhir http://hl7.org/fhir/STU3/bundle.xsd">
   <type value="searchset"/>
   <total value="7"/>
   <entry>
      <fullUrl value="urn:uuid:04ec76e7-afe3-11ea-2044-020000000000"/>
      <resource>
         <AllergyIntolerance>
            <meta>
               <profile value="http://nictiz.nl/fhir/StructureDefinition/zib-AllergyIntolerance"/>
            </meta>
            <text>
               <status value="generated"/>
               <div xmlns="http://www.w3.org/1999/xhtml">
                  <table>
                     <caption>Allergie/intolerantie. Patiënt: Véronique V. Véronique XXX-TEST-D. Id: AI_01_01 (urn:oid:2.16.840.1.113883.2.4.3.11.999.26.1.1), Categorie: <span title="neiging tot ongewenste reactie op geneesmiddel (419511003 - SNOMED CT)">neiging tot ongewenste reactie op geneesmiddel</span>, Status: actief / <i>onbekend (ontbrekend gegeven)</i>
                        <span style="display: block;">Ingevoerd door: M. Boot || Allergoloog (gesloten register)</span>
                     </caption>
                     <tfoot>
                        <tr>
                           <td colspan="2">Geldt alleen voor dit merk.</td>
                        </tr>
                     </tfoot>
                     <tbody>
                        <tr>
                           <th>Code</th>
                           <td>
                              <span title="PREDNISOLON CAPSULE 65MG FNA MR (1112821 - G-Standaard HPK)">PREDNISOLON CAPSULE 65MG FNA MR</span>
                           </td>
                        </tr>
                        <tr>
                           <th>Informant</th>
                           <td>M. Boot || Allergoloog (gesloten register)</td>
                        </tr>
                        <tr>
                           <th>Eerste symptomen</th>
                           <td>2020-04-27</td>
                        </tr>
                        <tr>
                           <th>Meest recente voorkomen</th>
                           <td>${DATE, T, D, -50}T17:45:00+02:00</td>
                        </tr>
                        <tr>
                           <th>Reactie</th>
                           <td>
                              <ul>
                                 <li>
                                    <div>${DATE, T, D, -50}T17:45:00+02:00 <span title="Ernstig (24484000 - SNOMED CT)">Ernstig</span>
                                    </div>
                                    <div>
                                       <span title="Toxische epidermale necrolyse (23067006 - SNOMED CT)">Toxische epidermale necrolyse</span>
                                    </div>
                                    <div>Blaren op grote delen van de huid</div>
                                 </li>
                              </ul>
                           </td>
                        </tr>
                     </tbody>
                  </table>
               </div>
            </text>
            <identifier>
               <system value="urn:oid:2.16.840.1.113883.2.4.3.11.999.26.1.1"/>
               <value value="AI_01_01"/>
            </identifier>
            <clinicalStatus value="active">
               <extension url="http://nictiz.nl/fhir/StructureDefinition/code-specification">
                  <valueCodeableConcept>
                     <coding>
                        <system value="http://hl7.org/fhir/v3/ActStatus"/>
                        <code value="active"/>
                        <display value="Actief"/>
                     </coding>
                  </valueCodeableConcept>
               </extension>
            </clinicalStatus>
            <verificationStatus>
               <extension url="http://hl7.org/fhir/StructureDefinition/data-absent-reason">
                  <valueCode value="unknown"/>
               </extension>
            </verificationStatus>
            <category value="medication">
               <extension url="http://nictiz.nl/fhir/StructureDefinition/code-specification">
                  <valueCodeableConcept>
                     <coding>
                        <system value="http://snomed.info/sct"/>
                        <code value="419511003"/>
                        <display value="neiging tot ongewenste reactie op geneesmiddel"/>
                     </coding>
                  </valueCodeableConcept>
               </extension>
            </category>
            <criticality value="high">
               <extension url="http://nictiz.nl/fhir/StructureDefinition/code-specification">
                  <valueCodeableConcept>
                     <coding>
                        <system value="http://snomed.info/sct"/>
                        <code value="24484000"/>
                        <display value="ernstig"/>
                     </coding>
                  </valueCodeableConcept>
               </extension>
            </criticality>
            <code>
               <coding>
                  <system value="urn:oid:2.16.840.1.113883.2.4.4.7"/>
                  <code value="1112821"/>
                  <display value="PREDNISOLON CAPSULE 65MG FNA MR"/>
               </coding>
            </code>
            <patient>
               <reference value="urn:uuid:04ec6809-afe3-11ea-2044-020000000000"/>
               <display value="Véronique V. Véronique XXX-TEST-D"/>
            </patient>
            <onsetDateTime value="2020-04-27"/>
            <recorder>
               <extension url="http://nictiz.nl/fhir/StructureDefinition/practitionerrole-reference">
                  <valueReference>
                     <reference value="urn:uuid:04ec76ec-afe3-11ea-2044-020000000000"/>
                     <display value="M. Boot || Allergoloog (gesloten register)"/>
                  </valueReference>
               </extension>
               <display value="M. Boot || Allergoloog (gesloten register)"/>
            </recorder>
            <asserter>
               <extension url="http://nictiz.nl/fhir/StructureDefinition/practitionerrole-reference">
                  <valueReference>
                     <reference value="urn:uuid:04ec76ec-afe3-11ea-2044-020000000000"/>
                     <display value="M. Boot || Allergoloog (gesloten register)"/>
                  </valueReference>
               </extension>
               <display value="M. Boot || Allergoloog (gesloten register)"/>
            </asserter>
            <lastOccurrence value="${DATE, T, D, -50}T17:45:00+02:00"/>
            <note>
               <text value="Geldt alleen voor dit merk."/>
            </note>
            <reaction>
               <substance>
                  <coding>
                     <system value="urn:oid:2.16.840.1.113883.2.4.4.1.750"/>
                     <code value="4170"/>
                     <display value="Prednisolon"/>
                  </coding>
               </substance>
               <manifestation>
                  <coding>
                     <system value="http://snomed.info/sct"/>
                     <code value="23067006"/>
                     <display value="Toxische epidermale necrolyse"/>
                  </coding>
               </manifestation>
               <description value="Blaren op grote delen van de huid"/>
               <onset value="${DATE, T, D, -50}T17:45:00+02:00"/>
               <severity value="severe">
                  <extension url="http://nictiz.nl/fhir/StructureDefinition/code-specification">
                     <valueCodeableConcept>
                        <coding>
                           <system value="http://snomed.info/sct"/>
                           <code value="24484000"/>
                           <display value="Ernstig"/>
                        </coding>
                     </valueCodeableConcept>
                  </extension>
               </severity>
            </reaction>
         </AllergyIntolerance>
      </resource>
      <search>
         <mode value="match"/>
      </search>
   </entry>
   <entry>
      <fullUrl value="urn:uuid:04ec7700-afe3-11ea-2044-020000000000"/>
      <resource>
         <AllergyIntolerance>
            <meta>
               <profile value="http://nictiz.nl/fhir/StructureDefinition/zib-AllergyIntolerance"/>
            </meta>
            <text>
               <status value="generated"/>
               <div xmlns="http://www.w3.org/1999/xhtml">
                  <table>
                     <caption>Allergie/intolerantie. Patiënt: Véronique V. Véronique XXX-TEST-D. Id: AI_01_02 (urn:oid:2.16.840.1.113883.2.4.3.11.999.26.1.1), Categorie: <span title="neiging tot ongewenste reactie op geneesmiddel (419511003 - SNOMED CT)">neiging tot ongewenste reactie op geneesmiddel</span>, Status: actief / <i>onbekend (ontbrekend gegeven)</i>
                        <span style="display: block;">Ingevoerd door: M. Boot || Allergoloog (gesloten register)</span>
                     </caption>
                     <tbody>
                        <tr>
                           <th>Code</th>
                           <td>
                              <span title="Prednisolon (4170 - G-Standaard Bestand 750)">Prednisolon</span>
                           </td>
                        </tr>
                        <tr>
                           <th>Informant</th>
                           <td>M. Boot || Allergoloog (gesloten register)</td>
                        </tr>
                        <tr>
                           <th>Eerste symptomen</th>
                           <td>2020-03-08</td>
                        </tr>
                        <tr>
                           <th>Meest recente voorkomen</th>
                           <td>${DATE, T, D, -100}</td>
                        </tr>
                        <tr>
                           <th>Reactie</th>
                           <td>
                              <ul>
                                 <li>
                                    <div>${DATE, T, D, -100}T11:00:00+02:00 <span title="Ernstig (24484000 - SNOMED CT)">Ernstig</span>
                                    </div>
                                    <div>
                                       <span title="Toxische epidermale necrolyse (23067006 - SNOMED CT)">Toxische epidermale necrolyse</span>
                                    </div>
                                    <div>Blaren op grote delen van de huid</div>
                                 </li>
                              </ul>
                           </td>
                        </tr>
                     </tbody>
                  </table>
               </div>
            </text>
            <identifier>
               <system value="urn:oid:2.16.840.1.113883.2.4.3.11.999.26.1.1"/>
               <value value="AI_01_02"/>
            </identifier>
            <clinicalStatus value="active">
               <extension url="http://nictiz.nl/fhir/StructureDefinition/code-specification">
                  <valueCodeableConcept>
                     <coding>
                        <system value="http://hl7.org/fhir/v3/ActStatus"/>
                        <code value="active"/>
                        <display value="Actief"/>
                     </coding>
                  </valueCodeableConcept>
               </extension>
            </clinicalStatus>
            <verificationStatus>
               <extension url="http://hl7.org/fhir/StructureDefinition/data-absent-reason">
                  <valueCode value="unknown"/>
               </extension>
            </verificationStatus>
            <category value="medication">
               <extension url="http://nictiz.nl/fhir/StructureDefinition/code-specification">
                  <valueCodeableConcept>
                     <coding>
                        <system value="http://snomed.info/sct"/>
                        <code value="419511003"/>
                        <display value="neiging tot ongewenste reactie op geneesmiddel"/>
                     </coding>
                  </valueCodeableConcept>
               </extension>
            </category>
            <criticality value="high">
               <extension url="http://nictiz.nl/fhir/StructureDefinition/code-specification">
                  <valueCodeableConcept>
                     <coding>
                        <system value="http://snomed.info/sct"/>
                        <code value="24484000"/>
                        <display value="ernstig"/>
                     </coding>
                  </valueCodeableConcept>
               </extension>
            </criticality>
            <code>
               <coding>
                  <system value="urn:oid:2.16.840.1.113883.2.4.4.1.750"/>
                  <code value="4170"/>
                  <display value="Prednisolon"/>
               </coding>
            </code>
            <patient>
               <reference value="urn:uuid:04ec6809-afe3-11ea-2044-020000000000"/>
               <display value="Véronique V. Véronique XXX-TEST-D"/>
            </patient>
            <onsetDateTime value="2020-03-08"/>
            <recorder>
               <extension url="http://nictiz.nl/fhir/StructureDefinition/practitionerrole-reference">
                  <valueReference>
                     <reference value="urn:uuid:04ec76ec-afe3-11ea-2044-020000000000"/>
                     <display value="M. Boot || Allergoloog (gesloten register)"/>
                  </valueReference>
               </extension>
               <display value="M. Boot || Allergoloog (gesloten register)"/>
            </recorder>
            <asserter>
               <extension url="http://nictiz.nl/fhir/StructureDefinition/practitionerrole-reference">
                  <valueReference>
                     <reference value="urn:uuid:04ec76ec-afe3-11ea-2044-020000000000"/>
                     <display value="M. Boot || Allergoloog (gesloten register)"/>
                  </valueReference>
               </extension>
               <display value="M. Boot || Allergoloog (gesloten register)"/>
            </asserter>
            <lastOccurrence value="${DATE, T, D, -100}"/>
            <reaction>
               <manifestation>
                  <coding>
                     <system value="http://snomed.info/sct"/>
                     <code value="23067006"/>
                     <display value="Toxische epidermale necrolyse"/>
                  </coding>
               </manifestation>
               <description value="Blaren op grote delen van de huid"/>
               <onset value="${DATE, T, D, -100}T11:00:00+02:00"/>
               <severity value="severe">
                  <extension url="http://nictiz.nl/fhir/StructureDefinition/code-specification">
                     <valueCodeableConcept>
                        <coding>
                           <system value="http://snomed.info/sct"/>
                           <code value="24484000"/>
                           <display value="Ernstig"/>
                        </coding>
                     </valueCodeableConcept>
                  </extension>
               </severity>
               <exposureRoute>
                  <coding>
                     <system value="http://snomed.info/sct"/>
                     <code value="445768003"/>
                     <display value="via de maag"/>
                  </coding>
               </exposureRoute>
            </reaction>
         </AllergyIntolerance>
      </resource>
      <search>
         <mode value="match"/>
      </search>
   </entry>
   <entry>
      <fullUrl value="urn:uuid:04ec7718-afe3-11ea-2044-020000000000"/>
      <resource>
         <AllergyIntolerance>
            <meta>
               <profile value="http://nictiz.nl/fhir/StructureDefinition/zib-AllergyIntolerance"/>
            </meta>
            <text>
               <status value="generated"/>
               <div xmlns="http://www.w3.org/1999/xhtml">
                  <table>
                     <caption>Allergie/intolerantie. Patiënt: Véronique V. Véronique XXX-TEST-D. Id: AI_01_03 (urn:oid:2.16.840.1.113883.2.4.3.11.999.26.1.1), Categorie: <span title="neiging tot ongewenste reactie op geneesmiddel (419511003 - SNOMED CT)">neiging tot ongewenste reactie op geneesmiddel</span>, Status: actief / <i>onbekend (ontbrekend gegeven)</i>
                        <span style="display: block;">Ingevoerd door: M. Boot || Allergoloog (gesloten register)</span>
                     </caption>
                     <tbody>
                        <tr>
                           <th>Code</th>
                           <td>
                              <span title="Prednisolon oraal (3158 - G-Standaard Bestand 725)">Prednisolon oraal</span>
                           </td>
                        </tr>
                        <tr>
                           <th>Informant</th>
                           <td>M. Boot || Allergoloog (gesloten register)</td>
                        </tr>
                        <tr>
                           <th>Eerste symptomen</th>
                           <td>2020-01-18</td>
                        </tr>
                        <tr>
                           <th>Meest recente voorkomen</th>
                           <td>${DATE, T, D, -150}</td>
                        </tr>
                        <tr>
                           <th>Reactie</th>
                           <td>
                              <ul>
                                 <li>
                                    <div>
                                       <span title="Ernstig (24484000 - SNOMED CT)">Ernstig</span>
                                    </div>
                                    <div>
                                       <span title="Exantheem (271807003 - SNOMED CT)">Exantheem</span>
                                    </div>
                                    <div>Vlekken en bultjes op de huid</div>
                                 </li>
                              </ul>
                           </td>
                        </tr>
                     </tbody>
                  </table>
               </div>
            </text>
            <identifier>
               <system value="urn:oid:2.16.840.1.113883.2.4.3.11.999.26.1.1"/>
               <value value="AI_01_03"/>
            </identifier>
            <clinicalStatus value="active">
               <extension url="http://nictiz.nl/fhir/StructureDefinition/code-specification">
                  <valueCodeableConcept>
                     <coding>
                        <system value="http://hl7.org/fhir/v3/ActStatus"/>
                        <code value="active"/>
                        <display value="Actief"/>
                     </coding>
                  </valueCodeableConcept>
               </extension>
            </clinicalStatus>
            <verificationStatus>
               <extension url="http://hl7.org/fhir/StructureDefinition/data-absent-reason">
                  <valueCode value="unknown"/>
               </extension>
            </verificationStatus>
            <category value="medication">
               <extension url="http://nictiz.nl/fhir/StructureDefinition/code-specification">
                  <valueCodeableConcept>
                     <coding>
                        <system value="http://snomed.info/sct"/>
                        <code value="419511003"/>
                        <display value="neiging tot ongewenste reactie op geneesmiddel"/>
                     </coding>
                  </valueCodeableConcept>
               </extension>
            </category>
            <criticality value="high">
               <extension url="http://nictiz.nl/fhir/StructureDefinition/code-specification">
                  <valueCodeableConcept>
                     <coding>
                        <system value="http://snomed.info/sct"/>
                        <code value="24484000"/>
                        <display value="ernstig"/>
                     </coding>
                  </valueCodeableConcept>
               </extension>
            </criticality>
            <code>
               <coding>
                  <system value="urn:oid:2.16.840.1.113883.2.4.4.1.725"/>
                  <code value="3158"/>
                  <display value="Prednisolon oraal"/>
               </coding>
            </code>
            <patient>
               <reference value="urn:uuid:04ec6809-afe3-11ea-2044-020000000000"/>
               <display value="Véronique V. Véronique XXX-TEST-D"/>
            </patient>
            <onsetDateTime value="2020-01-18"/>
            <recorder>
               <extension url="http://nictiz.nl/fhir/StructureDefinition/practitionerrole-reference">
                  <valueReference>
                     <reference value="urn:uuid:04ec76ec-afe3-11ea-2044-020000000000"/>
                     <display value="M. Boot || Allergoloog (gesloten register)"/>
                  </valueReference>
               </extension>
               <display value="M. Boot || Allergoloog (gesloten register)"/>
            </recorder>
            <asserter>
               <extension url="http://nictiz.nl/fhir/StructureDefinition/practitionerrole-reference">
                  <valueReference>
                     <reference value="urn:uuid:04ec76ec-afe3-11ea-2044-020000000000"/>
                     <display value="M. Boot || Allergoloog (gesloten register)"/>
                  </valueReference>
               </extension>
               <display value="M. Boot || Allergoloog (gesloten register)"/>
            </asserter>
            <lastOccurrence value="${DATE, T, D, -150}"/>
            <reaction>
               <manifestation>
                  <coding>
                     <system value="http://snomed.info/sct"/>
                     <code value="271807003"/>
                     <display value="Exantheem"/>
                  </coding>
               </manifestation>
               <description value="Vlekken en bultjes op de huid"/>
               <severity value="severe">
                  <extension url="http://nictiz.nl/fhir/StructureDefinition/code-specification">
                     <valueCodeableConcept>
                        <coding>
                           <system value="http://snomed.info/sct"/>
                           <code value="24484000"/>
                           <display value="Ernstig"/>
                        </coding>
                     </valueCodeableConcept>
                  </extension>
               </severity>
            </reaction>
         </AllergyIntolerance>
      </resource>
      <search>
         <mode value="match"/>
      </search>
   </entry>
   <entry>
      <fullUrl value="urn:uuid:04ec6e96-afe3-11ea-2044-020000000000"/>
      <resource>
         <AllergyIntolerance>
            <meta>
               <profile value="http://nictiz.nl/fhir/StructureDefinition/zib-AllergyIntolerance"/>
            </meta>
            <text>
               <status value="generated"/>
               <div xmlns="http://www.w3.org/1999/xhtml">
                  <table>
                     <caption>Allergie/intolerantie. Patiënt: Véronique V. Véronique XXX-TEST-D. Id: AI_01_04 (urn:oid:2.16.840.1.113883.2.4.3.11.999.26.1.1), Categorie: <span title="neiging tot ongewenste reactie op geneesmiddel (419511003 - SNOMED CT)">neiging tot ongewenste reactie op geneesmiddel</span>, Status: actief / <i>onbekend (ontbrekend gegeven)</i>
                        <span style="display: block;">Ingevoerd door: M. Boot || Allergoloog (gesloten register)</span>
                     </caption>
                     <tbody>
                        <tr>
                           <th>Code</th>
                           <td>
                              <span title="Corticosteroïden groep 1 (74 - G-Standaard Tabel 122)">Corticosteroïden groep 1</span>
                           </td>
                        </tr>
                        <tr>
                           <th>Informant</th>
                           <td>2020-02-17 - M. Boot || Allergoloog (gesloten register)</td>
                        </tr>
                        <tr>
                           <th>Eerste symptomen</th>
                           <td>2019-11-29</td>
                        </tr>
                        <tr>
                           <th>Meest recente voorkomen</th>
                           <td>${DATE, T, D, -200}T16:30:00+02:00</td>
                        </tr>
                        <tr>
                           <th>Reactie</th>
                           <td>
                              <ul>
                                 <li>
                                    <div>
                                       <span title="Ernstig (24484000 - SNOMED CT)">Ernstig</span>
                                    </div>
                                    <div>
                                       <span title="Exantheem (271807003 - SNOMED CT)">Exantheem</span>
                                    </div>
                                 </li>
                              </ul>
                           </td>
                        </tr>
                     </tbody>
                  </table>
               </div>
            </text>
            <identifier>
               <system value="urn:oid:2.16.840.1.113883.2.4.3.11.999.26.1.1"/>
               <value value="AI_01_04"/>
            </identifier>
            <clinicalStatus value="active">
               <extension url="http://nictiz.nl/fhir/StructureDefinition/code-specification">
                  <valueCodeableConcept>
                     <coding>
                        <system value="http://hl7.org/fhir/v3/ActStatus"/>
                        <code value="active"/>
                        <display value="Actief"/>
                     </coding>
                  </valueCodeableConcept>
               </extension>
            </clinicalStatus>
            <verificationStatus>
               <extension url="http://hl7.org/fhir/StructureDefinition/data-absent-reason">
                  <valueCode value="unknown"/>
               </extension>
            </verificationStatus>
            <category value="medication">
               <extension url="http://nictiz.nl/fhir/StructureDefinition/code-specification">
                  <valueCodeableConcept>
                     <coding>
                        <system value="http://snomed.info/sct"/>
                        <code value="419511003"/>
                        <display value="neiging tot ongewenste reactie op geneesmiddel"/>
                     </coding>
                  </valueCodeableConcept>
               </extension>
            </category>
            <criticality value="high">
               <extension url="http://nictiz.nl/fhir/StructureDefinition/code-specification">
                  <valueCodeableConcept>
                     <coding>
                        <system value="http://snomed.info/sct"/>
                        <code value="24484000"/>
                        <display value="ernstig"/>
                     </coding>
                  </valueCodeableConcept>
               </extension>
            </criticality>
            <code>
               <coding>
                  <system value="urn:oid:2.16.840.1.113883.2.4.4.1.902.122"/>
                  <code value="74"/>
                  <display value="Corticosteroïden groep 1"/>
               </coding>
            </code>
            <patient>
               <reference value="urn:uuid:04ec6809-afe3-11ea-2044-020000000000"/>
               <display value="Véronique V. Véronique XXX-TEST-D"/>
            </patient>
            <onsetDateTime value="2019-11-29"/>
            <assertedDate value="2020-02-17"/>
            <recorder>
               <extension url="http://nictiz.nl/fhir/StructureDefinition/practitionerrole-reference">
                  <valueReference>
                     <reference value="urn:uuid:04ec76ec-afe3-11ea-2044-020000000000"/>
                     <display value="M. Boot || Allergoloog (gesloten register)"/>
                  </valueReference>
               </extension>
               <display value="M. Boot || Allergoloog (gesloten register)"/>
            </recorder>
            <asserter>
               <extension url="http://nictiz.nl/fhir/StructureDefinition/practitionerrole-reference">
                  <valueReference>
                     <reference value="urn:uuid:04ec76ec-afe3-11ea-2044-020000000000"/>
                     <display value="M. Boot || Allergoloog (gesloten register)"/>
                  </valueReference>
               </extension>
               <display value="M. Boot || Allergoloog (gesloten register)"/>
            </asserter>
            <lastOccurrence value="${DATE, T, D, -200}T16:30:00+02:00"/>
            <reaction>
               <manifestation>
                  <coding>
                     <system value="http://snomed.info/sct"/>
                     <code value="271807003"/>
                     <display value="Exantheem"/>
                  </coding>
               </manifestation>
               <severity value="severe">
                  <extension url="http://nictiz.nl/fhir/StructureDefinition/code-specification">
                     <valueCodeableConcept>
                        <coding>
                           <system value="http://snomed.info/sct"/>
                           <code value="24484000"/>
                           <display value="Ernstig"/>
                        </coding>
                     </valueCodeableConcept>
                  </extension>
               </severity>
            </reaction>
         </AllergyIntolerance>
      </resource>
      <search>
         <mode value="match"/>
      </search>
   </entry>
   <entry>
      <fullUrl value="urn:uuid:04ec6eac-afe3-11ea-2044-020000000000"/>
      <resource>
         <AllergyIntolerance>
            <meta>
               <profile value="http://nictiz.nl/fhir/StructureDefinition/zib-AllergyIntolerance"/>
            </meta>
            <text>
               <status value="generated"/>
               <div xmlns="http://www.w3.org/1999/xhtml">
                  <table>
                     <caption>Allergie/intolerantie. Patiënt: Véronique V. Véronique XXX-TEST-D. Id: AI_01_05 (urn:oid:2.16.840.1.113883.2.4.3.11.999.26.1.1), Categorie: <span title="allergie voor substantie (419199007 - SNOMED CT)">allergie voor substantie</span>, Status: actief / <i>onbekend (ontbrekend gegeven)</i>
                        <span style="display: block;">Ingevoerd door: A.B. Comenius de Vries || Huisartsen, niet nader gespecificeerd || Huisartsenpraktijk 'de Test'</span>
                     </caption>
                     <tfoot>
                        <tr>
                           <td colspan="2">Dhr. werkt in de zorg en dient latexvrije handschoenen te dragen.</td>
                        </tr>
                     </tfoot>
                     <tbody>
                        <tr>
                           <th>Code</th>
                           <td>
                              <span title="Latex (300916003 - SNOMED CT)">Latex</span>
                           </td>
                        </tr>
                        <tr>
                           <th>Informant</th>
                           <td>Abraham B.M.H. Bram Pasveer</td>
                        </tr>
                        <tr>
                           <th>Eerste symptomen</th>
                           <td>2010-11-16</td>
                        </tr>
                        <tr>
                           <th>Meest recente voorkomen</th>
                           <td>${DATE, T, D, -265}T14:30:00+02:00</td>
                        </tr>
                        <tr>
                           <th>Reactie</th>
                           <td>
                              <ul>
                                 <li>
                                    <div>${DATE, T, D, -265}T14:30:00+02:00 <span title="Matig (6736007 - SNOMED CT)">Matig</span>
                                    </div>
                                    <div>
                                       <span title="Jeuk (418363000 - SNOMED CT)">Jeuk</span>
                                    </div>
                                 </li>
                              </ul>
                           </td>
                        </tr>
                     </tbody>
                  </table>
               </div>
            </text>
            <identifier>
               <system value="urn:oid:2.16.840.1.113883.2.4.3.11.999.26.1.1"/>
               <value value="AI_01_05"/>
            </identifier>
            <clinicalStatus value="active">
               <extension url="http://nictiz.nl/fhir/StructureDefinition/code-specification">
                  <valueCodeableConcept>
                     <coding>
                        <system value="http://hl7.org/fhir/v3/ActStatus"/>
                        <code value="active"/>
                        <display value="Actief"/>
                     </coding>
                  </valueCodeableConcept>
               </extension>
            </clinicalStatus>
            <verificationStatus>
               <extension url="http://hl7.org/fhir/StructureDefinition/data-absent-reason">
                  <valueCode value="unknown"/>
               </extension>
            </verificationStatus>
            <category value="biologic">
               <extension url="http://nictiz.nl/fhir/StructureDefinition/code-specification">
                  <valueCodeableConcept>
                     <coding>
                        <system value="http://snomed.info/sct"/>
                        <code value="419199007"/>
                        <display value="allergie voor substantie"/>
                     </coding>
                  </valueCodeableConcept>
               </extension>
            </category>
            <criticality value="high">
               <extension url="http://nictiz.nl/fhir/StructureDefinition/code-specification">
                  <valueCodeableConcept>
                     <coding>
                        <system value="http://snomed.info/sct"/>
                        <code value="6736007"/>
                        <display value="matig"/>
                     </coding>
                  </valueCodeableConcept>
               </extension>
            </criticality>
            <code>
               <coding>
                  <system value="http://snomed.info/sct"/>
                  <code value="300916003"/>
                  <display value="Latex"/>
               </coding>
            </code>
            <patient>
               <reference value="urn:uuid:04ec6809-afe3-11ea-2044-020000000000"/>
               <display value="Véronique V. Véronique XXX-TEST-D"/>
            </patient>
            <onsetDateTime value="2010-11-16"/>
            <recorder>
               <extension url="http://nictiz.nl/fhir/StructureDefinition/practitionerrole-reference">
                  <valueReference>
                     <reference value="urn:uuid:04ec6eb4-afe3-11ea-2044-020000000000"/>
                     <display value="A.B. Comenius de Vries || Huisartsen, niet nader gespecificeerd || Huisartsenpraktijk 'de Test'"/>
                  </valueReference>
               </extension>
               <display value="A.B. Comenius de Vries || Huisartsen, niet nader gespecificeerd || Huisartsenpraktijk 'de Test'"/>
            </recorder>
            <asserter>
               <reference value="urn:uuid:04ec6f47-afe3-11ea-2044-020000000000"/>
               <display value="Abraham B.M.H. Bram Pasveer"/>
            </asserter>
            <lastOccurrence value="${DATE, T, D, -265}T14:30:00+02:00"/>
            <note>
               <text value="Dhr. werkt in de zorg en dient latexvrije handschoenen te dragen."/>
            </note>
            <reaction>
               <manifestation>
                  <coding>
                     <system value="http://snomed.info/sct"/>
                     <code value="418363000"/>
                     <display value="Jeuk"/>
                  </coding>
               </manifestation>
               <onset value="${DATE, T, D, -265}T14:30:00+02:00"/>
               <severity value="moderate">
                  <extension url="http://nictiz.nl/fhir/StructureDefinition/code-specification">
                     <valueCodeableConcept>
                        <coding>
                           <system value="http://snomed.info/sct"/>
                           <code value="6736007"/>
                           <display value="Matig"/>
                        </coding>
                     </valueCodeableConcept>
                  </extension>
               </severity>
            </reaction>
         </AllergyIntolerance>
      </resource>
      <search>
         <mode value="match"/>
      </search>
   </entry>
   <entry>
      <fullUrl value="urn:uuid:04ec6ec3-afe3-11ea-2044-020000000000"/>
      <resource>
         <AllergyIntolerance>
            <meta>
               <profile value="http://nictiz.nl/fhir/StructureDefinition/zib-AllergyIntolerance"/>
            </meta>
            <text>
               <status value="generated"/>
               <div xmlns="http://www.w3.org/1999/xhtml">
                  <table>
                     <caption>Allergie/intolerantie. Patiënt: Véronique V. Véronique XXX-TEST-D. Id: AI_01_06 (urn:oid:2.16.840.1.113883.2.4.3.11.999.26.1.1), Categorie: <span title="neiging tot ongewenste reactie op voedsel (418471000 - SNOMED CT)">neiging tot ongewenste reactie op voedsel</span>, Status: opgelost / <i>onbekend (ontbrekend gegeven)</i>
                        <span style="display: block;">Ingevoerd door: Ottobert O. van Bekhoven || Huisartsen, niet nader gespecificeerd</span>
                     </caption>
                     <tbody>
                        <tr>
                           <th>Code</th>
                           <td>
                              <span title="Pinda (91935009 - SNOMED CT)">Pinda</span>
                           </td>
                        </tr>
                        <tr>
                           <th>Informant</th>
                           <td>Véronique V. Véronique XXX-TEST-D</td>
                        </tr>
                        <tr>
                           <th>Eerste symptomen</th>
                           <td>2006-10-08</td>
                        </tr>
                     </tbody>
                  </table>
               </div>
            </text>
            <identifier>
               <system value="urn:oid:2.16.840.1.113883.2.4.3.11.999.26.1.1"/>
               <value value="AI_01_06"/>
            </identifier>
            <clinicalStatus value="resolved">
               <extension url="http://nictiz.nl/fhir/StructureDefinition/code-specification">
                  <valueCodeableConcept>
                     <coding>
                        <system value="http://hl7.org/fhir/v3/ActStatus"/>
                        <code value="completed"/>
                        <display value="Niet meer aanwezig"/>
                     </coding>
                  </valueCodeableConcept>
               </extension>
            </clinicalStatus>
            <verificationStatus>
               <extension url="http://hl7.org/fhir/StructureDefinition/data-absent-reason">
                  <valueCode value="unknown"/>
               </extension>
            </verificationStatus>
            <category value="food">
               <extension url="http://nictiz.nl/fhir/StructureDefinition/code-specification">
                  <valueCodeableConcept>
                     <coding>
                        <system value="http://snomed.info/sct"/>
                        <code value="418471000"/>
                        <display value="neiging tot ongewenste reactie op voedsel"/>
                     </coding>
                  </valueCodeableConcept>
               </extension>
            </category>
            <code>
               <coding>
                  <system value="http://snomed.info/sct"/>
                  <code value="91935009"/>
                  <display value="Pinda"/>
               </coding>
            </code>
            <patient>
               <reference value="urn:uuid:04ec6809-afe3-11ea-2044-020000000000"/>
               <display value="Véronique V. Véronique XXX-TEST-D"/>
            </patient>
            <onsetDateTime value="2006-10-08"/>
            <recorder>
               <extension url="http://nictiz.nl/fhir/StructureDefinition/practitionerrole-reference">
                  <valueReference>
                     <reference value="urn:uuid:04ec6ecb-afe3-11ea-2044-020000000000"/>
                     <display value="Ottobert O. van Bekhoven || Huisartsen, niet nader gespecificeerd"/>
                  </valueReference>
               </extension>
               <display value="Ottobert O. van Bekhoven || Huisartsen, niet nader gespecificeerd"/>
            </recorder>
            <asserter>
               <reference value="urn:uuid:04ec6809-afe3-11ea-2044-020000000000"/>
               <display value="Véronique V. Véronique XXX-TEST-D"/>
            </asserter>
         </AllergyIntolerance>
      </resource>
      <search>
         <mode value="match"/>
      </search>
   </entry>
   <entry>
      <fullUrl value="urn:uuid:04ec6ed3-afe3-11ea-2044-020000000000"/>
      <resource>
         <AllergyIntolerance>
            <meta>
               <profile value="http://nictiz.nl/fhir/StructureDefinition/zib-AllergyIntolerance"/>
            </meta>
            <text>
               <status value="generated"/>
               <div xmlns="http://www.w3.org/1999/xhtml">
                  <table>
                     <caption>Allergie/intolerantie. Patiënt: Véronique V. Véronique XXX-TEST-D. Id: AI_01_07 (urn:oid:2.16.840.1.113883.2.4.3.11.999.26.1.1), Categorie: <span title="omgevingsgerelateerde allergie (426232007 - SNOMED CT)">omgevingsgerelateerde allergie</span>, Status: actief / <i>onbekend (ontbrekend gegeven)</i>
                        <span style="display: block;">Ingevoerd door: A.B. Comenius de Vries || Huisartsen, niet nader gespecificeerd || Huisartsenpraktijk 'de Test'</span>
                     </caption>
                     <tbody>
                        <tr>
                           <th>Code</th>
                           <td>
                              <span title="Pollen (256259004 - SNOMED CT)">Pollen</span>
                           </td>
                        </tr>
                        <tr>
                           <th>Informant</th>
                           <td>A.B. Comenius de Vries || Huisartsen, niet nader gespecificeerd || Huisartsenpraktijk 'de Test'</td>
                        </tr>
                        <tr>
                           <th>Eerste symptomen</th>
                           <td>2019-02-02</td>
                        </tr>
                        <tr>
                           <th>Meest recente voorkomen</th>
                           <td>${DATE, T, D, -99}</td>
                        </tr>
                        <tr>
                           <th>Reactie</th>
                           <td>
                              <ul>
                                 <li>
                                    <div>
                                       <span title="Matig (6736007 - SNOMED CT)">Matig</span>
                                    </div>
                                    <div>
                                       <span title="Overgevoeligheidsreactie van de bovenste luchtwegen (490008 - SNOMED CT)">Overgevoeligheidsreactie van de bovenste luchtwegen</span>
                                    </div>
                                    <div>Veelvuldig niezen</div>
                                 </li>
                              </ul>
                           </td>
                        </tr>
                     </tbody>
                  </table>
               </div>
            </text>
            <identifier>
               <system value="urn:oid:2.16.840.1.113883.2.4.3.11.999.26.1.1"/>
               <value value="AI_01_07"/>
            </identifier>
            <clinicalStatus value="active">
               <extension url="http://nictiz.nl/fhir/StructureDefinition/code-specification">
                  <valueCodeableConcept>
                     <coding>
                        <system value="http://hl7.org/fhir/v3/ActStatus"/>
                        <code value="active"/>
                        <display value="Actief"/>
                     </coding>
                  </valueCodeableConcept>
               </extension>
            </clinicalStatus>
            <verificationStatus>
               <extension url="http://hl7.org/fhir/StructureDefinition/data-absent-reason">
                  <valueCode value="unknown"/>
               </extension>
            </verificationStatus>
            <category value="environment">
               <extension url="http://nictiz.nl/fhir/StructureDefinition/code-specification">
                  <valueCodeableConcept>
                     <coding>
                        <system value="http://snomed.info/sct"/>
                        <code value="426232007"/>
                        <display value="omgevingsgerelateerde allergie"/>
                     </coding>
                  </valueCodeableConcept>
               </extension>
            </category>
            <criticality value="high">
               <extension url="http://nictiz.nl/fhir/StructureDefinition/code-specification">
                  <valueCodeableConcept>
                     <coding>
                        <system value="http://snomed.info/sct"/>
                        <code value="6736007"/>
                        <display value="matig"/>
                     </coding>
                  </valueCodeableConcept>
               </extension>
            </criticality>
            <code>
               <coding>
                  <system value="http://snomed.info/sct"/>
                  <code value="256259004"/>
                  <display value="Pollen"/>
               </coding>
            </code>
            <patient>
               <reference value="urn:uuid:04ec6809-afe3-11ea-2044-020000000000"/>
               <display value="Véronique V. Véronique XXX-TEST-D"/>
            </patient>
            <onsetDateTime value="2019-02-02"/>
            <recorder>
               <extension url="http://nictiz.nl/fhir/StructureDefinition/practitionerrole-reference">
                  <valueReference>
                     <reference value="urn:uuid:04ec6eb4-afe3-11ea-2044-020000000000"/>
                     <display value="A.B. Comenius de Vries || Huisartsen, niet nader gespecificeerd || Huisartsenpraktijk 'de Test'"/>
                  </valueReference>
               </extension>
               <display value="A.B. Comenius de Vries || Huisartsen, niet nader gespecificeerd || Huisartsenpraktijk 'de Test'"/>
            </recorder>
            <asserter>
               <extension url="http://nictiz.nl/fhir/StructureDefinition/practitionerrole-reference">
                  <valueReference>
                     <reference value="urn:uuid:04ec6eb4-afe3-11ea-2044-020000000000"/>
                     <display value="A.B. Comenius de Vries || Huisartsen, niet nader gespecificeerd || Huisartsenpraktijk 'de Test'"/>
                  </valueReference>
               </extension>
               <display value="A.B. Comenius de Vries || Huisartsen, niet nader gespecificeerd || Huisartsenpraktijk 'de Test'"/>
            </asserter>
            <lastOccurrence value="${DATE, T, D, -99}"/>
            <reaction>
               <substance>
                  <coding>
                     <system value="http://snomed.info/sct"/>
                     <code value="256277009"/>
                     <display value="Graspollen"/>
                  </coding>
               </substance>
               <manifestation>
                  <coding>
                     <system value="http://snomed.info/sct"/>
                     <code value="490008"/>
                     <display value="Overgevoeligheidsreactie van de bovenste luchtwegen"/>
                  </coding>
               </manifestation>
               <description value="Veelvuldig niezen"/>
               <severity value="moderate">
                  <extension url="http://nictiz.nl/fhir/StructureDefinition/code-specification">
                     <valueCodeableConcept>
                        <coding>
                           <system value="http://snomed.info/sct"/>
                           <code value="6736007"/>
                           <display value="Matig"/>
                        </coding>
                     </valueCodeableConcept>
                  </extension>
               </severity>
            </reaction>
         </AllergyIntolerance>
      </resource>
      <search>
         <mode value="match"/>
      </search>
   </entry>
   <entry>
      <fullUrl value="urn:uuid:04ec6809-afe3-11ea-2044-020000000000"/>
      <resource>
         <Patient>
            <meta>
               <profile value="http://fhir.nl/fhir/StructureDefinition/nl-core-patient"/>
            </meta>
            <text>
               <status value="generated"/>
               <div xmlns="http://www.w3.org/1999/xhtml">
                  <div>Id <i>afgeschermd (ontbrekend gegeven)</i> (BSN), Véronique V. XXX-TEST-D (Véronique), Vrouw, 4 april 1970</div>
                  <div>
                     <a href="tel:06-12345678">06-12345678</a> (Tel Mobiel), <a href="mailto:XXX-TEST-D@123mail.com">XXX-TEST-D@123mail.com</a> (E-mail Privé)</div>
                  <div>Knolweg 1000, 9999 XA Stitswerd (Privé Bezoek)</div>
               </div>
            </text>
            <identifier>
               <system value="http://fhir.nl/fhir/NamingSystem/bsn"/>
               <value>
                  <extension url="http://hl7.org/fhir/StructureDefinition/data-absent-reason">
                     <valueCode value="masked"/>
                  </extension>
               </value>
            </identifier>
            <name>
               <extension url="http://hl7.org/fhir/StructureDefinition/humanname-assembly-order">
                  <valueCode value="NL1"/>
               </extension>
               <family value="XXX-TEST-D">
                  <extension url="http://hl7.org/fhir/StructureDefinition/humanname-own-name">
                     <valueString value="XXX-TEST-D"/>
                  </extension>
               </family>
               <given value="Véronique">
                  <extension url="http://hl7.org/fhir/StructureDefinition/iso21090-EN-qualifier">
                     <valueCode value="BR"/>
                  </extension>
               </given>
               <given value="V.">
                  <extension url="http://hl7.org/fhir/StructureDefinition/iso21090-EN-qualifier">
                     <valueCode value="IN"/>
                  </extension>
               </given>
               <given value="Véronique">
                  <extension url="http://hl7.org/fhir/StructureDefinition/iso21090-EN-qualifier">
                     <valueCode value="CL"/>
                  </extension>
               </given>
            </name>
            <telecom>
               <system value="phone">
                  <extension url="http://nictiz.nl/fhir/StructureDefinition/code-specification">
                     <valueCodeableConcept>
                        <coding>
                           <system value="http://hl7.org/fhir/v3/AddressUse"/>
                           <code value="MC"/>
                           <display value="Mobiel telefoonnummer"/>
                        </coding>
                     </valueCodeableConcept>
                  </extension>
               </system>
               <value value="06-12345678"/>
               <use value="mobile">
                  <extension url="http://nictiz.nl/fhir/StructureDefinition/code-specification">
                     <valueCodeableConcept>
                        <coding>
                           <system value="http://hl7.org/fhir/v3/AddressUse"/>
                           <code value="TMP"/>
                           <display value="Tijdelijk telefoonnummer"/>
                        </coding>
                     </valueCodeableConcept>
                  </extension>
               </use>
            </telecom>
            <telecom>
               <system value="email"/>
               <value value="XXX-TEST-D@123mail.com"/>
               <use value="home">
                  <extension url="http://nictiz.nl/fhir/StructureDefinition/code-specification">
                     <valueCodeableConcept>
                        <coding>
                           <system value="http://hl7.org/fhir/v3/AddressUse"/>
                           <code value="HP"/>
                           <display value="Privé e-mailadres"/>
                        </coding>
                     </valueCodeableConcept>
                  </extension>
               </use>
            </telecom>
            <gender value="female"/>
            <birthDate value="1970-04-04"/>
            <address>
               <extension url="http://hl7.org/fhir/StructureDefinition/iso21090-AD-use">
                  <valueCode value="PHYS"/>
               </extension>
               <use value="home"/>
               <type value="physical"/>
               <line value="Knolweg 1000">
                  <extension url="http://hl7.org/fhir/StructureDefinition/iso21090-ADXP-streetName">
                     <valueString value="Knolweg"/>
                  </extension>
                  <extension url="http://hl7.org/fhir/StructureDefinition/iso21090-ADXP-houseNumber">
                     <valueString value="1000"/>
                  </extension>
               </line>
               <city value="Stitswerd"/>
               <postalCode value="9999 XA"/>
            </address>
         </Patient>
      </resource>
      <search>
         <mode value="include"/>
      </search>
   </entry>
   <entry>
      <fullUrl value="urn:oid:2.16.528.1.1007.3.1.111111121"/>
      <resource>
         <Practitioner>
            <meta>
               <profile value="http://fhir.nl/fhir/StructureDefinition/nl-core-practitioner"/>
            </meta>
            <text>
               <status value="generated"/>
               <div xmlns="http://www.w3.org/1999/xhtml">
                  <div>Id 111111121 (UZI-NR-PERS), A.B. Comenius</div>
               </div>
            </text>
            <identifier>
               <system value="http://fhir.nl/fhir/NamingSystem/uzi-nr-pers"/>
               <value value="111111121"/>
            </identifier>
            <name>
               <extension url="http://hl7.org/fhir/StructureDefinition/humanname-assembly-order">
                  <valueCode value="NL1"/>
               </extension>
               <family value="Comenius">
                  <extension url="http://hl7.org/fhir/StructureDefinition/humanname-own-name">
                     <valueString value="Comenius"/>
                  </extension>
                  <extension url="http://hl7.org/fhir/StructureDefinition/humanname-partner-prefix">
                     <valueString value="de"/>
                  </extension>
                  <extension url="http://hl7.org/fhir/StructureDefinition/humanname-partner-name">
                     <valueString value="Vries"/>
                  </extension>
               </family>
               <given value="A.B.">
                  <extension url="http://hl7.org/fhir/StructureDefinition/iso21090-EN-qualifier">
                     <valueCode value="IN"/>
                  </extension>
               </given>
            </name>
         </Practitioner>
      </resource>
      <search>
         <mode value="include"/>
      </search>
   </entry>
   <entry>
      <fullUrl value="urn:oid:2.16.528.1.1007.3.1.222222232"/>
      <resource>
         <Practitioner>
            <meta>
               <profile value="http://fhir.nl/fhir/StructureDefinition/nl-core-practitioner"/>
            </meta>
            <text>
               <status value="generated"/>
               <div xmlns="http://www.w3.org/1999/xhtml">
                  <div>Id 222222232 (UZI-NR-PERS), Ottobert O. van Bekhoven</div>
                  <div>Valkendael 45, 6245 HK Maastricht (Werk)</div>
               </div>
            </text>
            <identifier>
               <system value="http://fhir.nl/fhir/NamingSystem/uzi-nr-pers"/>
               <value value="222222232"/>
            </identifier>
            <name>
               <extension url="http://hl7.org/fhir/StructureDefinition/humanname-assembly-order">
                  <valueCode value="NL1"/>
               </extension>
               <family value="van Bekhoven">
                  <extension url="http://hl7.org/fhir/StructureDefinition/humanname-own-prefix">
                     <valueString value="van"/>
                  </extension>
                  <extension url="http://hl7.org/fhir/StructureDefinition/humanname-own-name">
                     <valueString value="Bekhoven"/>
                  </extension>
               </family>
               <given value="Ottobert">
                  <extension url="http://hl7.org/fhir/StructureDefinition/iso21090-EN-qualifier">
                     <valueCode value="BR"/>
                  </extension>
               </given>
               <given value="O.">
                  <extension url="http://hl7.org/fhir/StructureDefinition/iso21090-EN-qualifier">
                     <valueCode value="IN"/>
                  </extension>
               </given>
            </name>
            <address>
               <use value="work"/>
               <line value="Valkendael 45">
                  <extension url="http://hl7.org/fhir/StructureDefinition/iso21090-ADXP-streetName">
                     <valueString value="Valkendael"/>
                  </extension>
                  <extension url="http://hl7.org/fhir/StructureDefinition/iso21090-ADXP-houseNumber">
                     <valueString value="45"/>
                  </extension>
               </line>
               <city value="Maastricht"/>
               <postalCode value="6245 HK"/>
            </address>
         </Practitioner>
      </resource>
      <search>
         <mode value="include"/>
      </search>
   </entry>
   <entry>
      <fullUrl value="urn:oid:2.16.528.1.1007.3.1.333333343"/>
      <resource>
         <Practitioner>
            <meta>
               <profile value="http://fhir.nl/fhir/StructureDefinition/nl-core-practitioner"/>
            </meta>
            <text>
               <status value="generated"/>
               <div xmlns="http://www.w3.org/1999/xhtml">
                  <div>Id 333333343 (UZI-NR-PERS), M. Boot</div>
                  <div>Kamerlingh Onnesstraat 2 huis, 2999 AZ Leiderdorp (Werk)</div>
               </div>
            </text>
            <identifier>
               <system value="http://fhir.nl/fhir/NamingSystem/uzi-nr-pers"/>
               <value value="333333343"/>
            </identifier>
            <name>
               <extension url="http://hl7.org/fhir/StructureDefinition/humanname-assembly-order">
                  <valueCode value="NL1"/>
               </extension>
               <family value="Boot">
                  <extension url="http://hl7.org/fhir/StructureDefinition/humanname-own-name">
                     <valueString value="Boot"/>
                  </extension>
               </family>
               <given value="M.">
                  <extension url="http://hl7.org/fhir/StructureDefinition/iso21090-EN-qualifier">
                     <valueCode value="IN"/>
                  </extension>
               </given>
            </name>
            <address>
               <use value="work"/>
               <line value="Kamerlingh Onnesstraat 2 huis">
                  <extension url="http://hl7.org/fhir/StructureDefinition/iso21090-ADXP-streetName">
                     <valueString value="Kamerlingh Onnesstraat"/>
                  </extension>
                  <extension url="http://hl7.org/fhir/StructureDefinition/iso21090-ADXP-houseNumber">
                     <valueString value="2"/>
                  </extension>
                  <extension url="http://hl7.org/fhir/StructureDefinition/iso21090-ADXP-buildingNumberSuffix">
                     <valueString value="huis"/>
                  </extension>
               </line>
               <city value="Leiderdorp"/>
               <postalCode value="2999 AZ"/>
            </address>
         </Practitioner>
      </resource>
      <search>
         <mode value="include"/>
      </search>
   </entry>
   <entry>
      <fullUrl value="urn:oid:2.16.840.1.113883.2.4.6.1.1057999"/>
      <resource>
         <Organization>
            <meta>
               <profile value="http://fhir.nl/fhir/StructureDefinition/nl-core-organization"/>
            </meta>
            <text>
               <status value="generated"/>
               <div xmlns="http://www.w3.org/1999/xhtml">
                  <table>
                     <caption>OrganisatieId: 01057999 (AGB-Z)</caption>
                     <tbody>
                        <tr>
                           <th>Naam</th>
                           <td>Huisartsenpraktijk 'de Test'</td>
                        </tr>
                        <tr>
                           <th>Type</th>
                           <td>
                              <span title="Huisartspraktijk (zelfstandig of groepspraktijk) (Z3 - RoleCodeNL Zorgaanbiedertype)">Huisartspraktijk (zelfstandig of groepspraktijk)</span>
                           </td>
                        </tr>
                        <tr>
                           <th>Contactgegevens</th>
                           <td>
                              <a href="tel:0800-987653">0800-987653</a> (Tel Werk)br<a href="mailto:info@hpdetest.nl">info@hpdetest.nl</a> (E-mail Werk)br</td>
                        </tr>
                        <tr>
                           <th>Adres</th>
                           <td>Dorpstraat 14, 9244 ZZ Beetsterzwaag (Werk)</td>
                        </tr>
                     </tbody>
                  </table>
               </div>
            </text>
            <identifier>
               <system value="http://fhir.nl/fhir/NamingSystem/agb-z"/>
               <value value="01057999"/>
            </identifier>
            <type>
               <coding>
                  <system value="urn:oid:2.16.840.1.113883.2.4.15.1060"/>
                  <code value="Z3"/>
                  <display value="Huisartspraktijk (zelfstandig of groepspraktijk)"/>
               </coding>
            </type>
            <name value="Huisartsenpraktijk 'de Test'"/>
            <telecom>
               <system value="phone">
                  <extension url="http://nictiz.nl/fhir/StructureDefinition/code-specification">
                     <valueCodeableConcept>
                        <coding>
                           <system value="urn:oid:2.16.840.1.113883.2.4.3.11.60.40.4.22.1"/>
                           <code value="LL"/>
                           <display value="Vast telefoonnummer"/>
                        </coding>
                     </valueCodeableConcept>
                  </extension>
               </system>
               <value value="0800-987653"/>
               <use value="work">
                  <extension url="http://nictiz.nl/fhir/StructureDefinition/code-specification">
                     <valueCodeableConcept>
                        <coding>
                           <system value="http://hl7.org/fhir/v3/AddressUse"/>
                           <code value="WP"/>
                           <display value="Zakelijk telefoonnummer"/>
                        </coding>
                     </valueCodeableConcept>
                  </extension>
               </use>
            </telecom>
            <telecom>
               <system value="email"/>
               <value value="info@hpdetest.nl"/>
               <use value="work">
                  <extension url="http://nictiz.nl/fhir/StructureDefinition/code-specification">
                     <valueCodeableConcept>
                        <coding>
                           <system value="http://hl7.org/fhir/v3/AddressUse"/>
                           <code value="WP"/>
                           <display value="Zakelijk e-mailadres"/>
                        </coding>
                     </valueCodeableConcept>
                  </extension>
               </use>
            </telecom>
            <address>
               <use value="work"/>
               <line value="Dorpstraat 14">
                  <extension url="http://hl7.org/fhir/StructureDefinition/iso21090-ADXP-streetName">
                     <valueString value="Dorpstraat"/>
                  </extension>
                  <extension url="http://hl7.org/fhir/StructureDefinition/iso21090-ADXP-houseNumber">
                     <valueString value="14"/>
                  </extension>
               </line>
               <city value="Beetsterzwaag"/>
               <postalCode value="9244 ZZ"/>
            </address>
         </Organization>
      </resource>
      <search>
         <mode value="include"/>
      </search>
   </entry>
   <entry>
      <fullUrl value="urn:uuid:04ec6eb4-afe3-11ea-2044-020000000000"/>
      <resource>
         <PractitionerRole>
            <meta>
               <profile value="http://fhir.nl/fhir/StructureDefinition/nl-core-practitionerrole"/>
            </meta>
            <text>
               <status value="generated"/>
               <div xmlns="http://www.w3.org/1999/xhtml">
                  <table>
                     <caption>Zorgverlenerrol</caption>
                     <tbody>
                        <tr>
                           <th>Zorgverlener</th>
                           <td>
                              <div>A.B. Comenius de Vries</div>
                              <div>Huisartsenpraktijk 'de Test'</div>
                           </td>
                        </tr>
                        <tr>
                           <th>Specialisme</th>
                           <td>
                              <span title="Huisartsen, niet nader gespecificeerd (0100 - AGB-medisch specialisme)">Huisartsen, niet nader gespecificeerd</span>
                           </td>
                        </tr>
                        <tr>
                           <th>Contactgegevens</th>
                           <td>
                              <div>
                                 <a href="tel:+3143321654">+3143321654</a> (Tel Werk)</div>
                              <div>
                                 <a href="mailto:comenius@hpdetest.nl">comenius@hpdetest.nl</a> (E-mail Werk)</div>
                           </td>
                        </tr>
                     </tbody>
                  </table>
               </div>
            </text>
            <practitioner>
               <reference value="urn:oid:2.16.528.1.1007.3.1.111111121"/>
               <display value="A.B. Comenius de Vries"/>
            </practitioner>
            <organization>
               <reference value="urn:oid:2.16.840.1.113883.2.4.6.1.1057999"/>
               <display value="Huisartsenpraktijk 'de Test'"/>
            </organization>
            <specialty>
               <coding>
                  <system value="urn:oid:2.16.840.1.113883.2.4.6.7"/>
                  <version value="2017-12-14T00:00:00"/>
                  <code value="0100"/>
                  <display value="Huisartsen, niet nader gespecificeerd"/>
               </coding>
            </specialty>
            <telecom>
               <system value="phone">
                  <extension url="http://nictiz.nl/fhir/StructureDefinition/code-specification">
                     <valueCodeableConcept>
                        <coding>
                           <system value="urn:oid:2.16.840.1.113883.2.4.3.11.60.40.4.22.1"/>
                           <code value="LL"/>
                           <display value="Vast telefoonnummer"/>
                        </coding>
                     </valueCodeableConcept>
                  </extension>
               </system>
               <value value="+3143321654"/>
               <use value="work">
                  <extension url="http://nictiz.nl/fhir/StructureDefinition/code-specification">
                     <valueCodeableConcept>
                        <coding>
                           <system value="http://hl7.org/fhir/v3/AddressUse"/>
                           <code value="WP"/>
                           <display value="Zakelijk telefoonnummer"/>
                        </coding>
                     </valueCodeableConcept>
                  </extension>
               </use>
            </telecom>
            <telecom>
               <system value="email"/>
               <value value="comenius@hpdetest.nl"/>
               <use value="work">
                  <extension url="http://nictiz.nl/fhir/StructureDefinition/code-specification">
                     <valueCodeableConcept>
                        <coding>
                           <system value="http://hl7.org/fhir/v3/AddressUse"/>
                           <code value="WP"/>
                           <display value="Zakelijk e-mailadres"/>
                        </coding>
                     </valueCodeableConcept>
                  </extension>
               </use>
            </telecom>
         </PractitionerRole>
      </resource>
      <search>
         <mode value="include"/>
      </search>
   </entry>
   <entry>
      <fullUrl value="urn:uuid:04ec6ecb-afe3-11ea-2044-020000000000"/>
      <resource>
         <PractitionerRole>
            <meta>
               <profile value="http://fhir.nl/fhir/StructureDefinition/nl-core-practitionerrole"/>
            </meta>
            <text>
               <status value="generated"/>
               <div xmlns="http://www.w3.org/1999/xhtml">
                  <table>
                     <caption>Zorgverlenerrol</caption>
                     <tbody>
                        <tr>
                           <th>Zorgverlener</th>
                           <td>
                              <div>Ottobert O. van Bekhoven</div>
                           </td>
                        </tr>
                        <tr>
                           <th>Specialisme</th>
                           <td>
                              <span title="Huisartsen, niet nader gespecificeerd (0100 - AGB-medisch specialisme)">Huisartsen, niet nader gespecificeerd</span>
                           </td>
                        </tr>
                        <tr>
                           <th>Contactgegevens</th>
                           <td>
                              <div>
                                 <a href="tel:06-32165488">06-32165488</a> (Tel Mobiel)</div>
                              <div>
                                 <a href="mailto:o.vanbekhoven@testmedischcentrum.nl">o.vanbekhoven@testmedischcentrum.nl</a> (E-mail Werk)</div>
                           </td>
                        </tr>
                     </tbody>
                  </table>
               </div>
            </text>
            <practitioner>
               <reference value="urn:oid:2.16.528.1.1007.3.1.222222232"/>
               <display value="Ottobert O. van Bekhoven"/>
            </practitioner>
            <specialty>
               <coding>
                  <system value="urn:oid:2.16.840.1.113883.2.4.6.7"/>
                  <version value="2017-12-14T00:00:00"/>
                  <code value="0100"/>
                  <display value="Huisartsen, niet nader gespecificeerd"/>
               </coding>
            </specialty>
            <telecom>
               <system value="phone">
                  <extension url="http://nictiz.nl/fhir/StructureDefinition/code-specification">
                     <valueCodeableConcept>
                        <coding>
                           <system value="http://hl7.org/fhir/v3/AddressUse"/>
                           <code value="MC"/>
                           <display value="Mobiel telefoonnummer"/>
                        </coding>
                     </valueCodeableConcept>
                  </extension>
               </system>
               <value value="06-32165488"/>
               <use value="mobile">
                  <extension url="http://nictiz.nl/fhir/StructureDefinition/code-specification">
                     <valueCodeableConcept>
                        <coding>
                           <system value="http://hl7.org/fhir/v3/AddressUse"/>
                           <code value="WP"/>
                           <display value="Zakelijk telefoonnummer"/>
                        </coding>
                     </valueCodeableConcept>
                  </extension>
               </use>
            </telecom>
            <telecom>
               <system value="email"/>
               <value value="o.vanbekhoven@testmedischcentrum.nl"/>
               <use value="work">
                  <extension url="http://nictiz.nl/fhir/StructureDefinition/code-specification">
                     <valueCodeableConcept>
                        <coding>
                           <system value="http://hl7.org/fhir/v3/AddressUse"/>
                           <code value="WP"/>
                           <display value="Zakelijk e-mailadres"/>
                        </coding>
                     </valueCodeableConcept>
                  </extension>
               </use>
            </telecom>
         </PractitionerRole>
      </resource>
      <search>
         <mode value="include"/>
      </search>
   </entry>
   <entry>
      <fullUrl value="urn:uuid:04ec76ec-afe3-11ea-2044-020000000000"/>
      <resource>
         <PractitionerRole>
            <meta>
               <profile value="http://fhir.nl/fhir/StructureDefinition/nl-core-practitionerrole"/>
            </meta>
            <text>
               <status value="generated"/>
               <div xmlns="http://www.w3.org/1999/xhtml">
                  <table>
                     <caption>Zorgverlenerrol</caption>
                     <tbody>
                        <tr>
                           <th>Zorgverlener</th>
                           <td>
                              <div>M. Boot</div>
                           </td>
                        </tr>
                        <tr>
                           <th>Specialisme</th>
                           <td>
                              <span title="Allergoloog (gesloten register) (01.002 - http://fhir.nl/fhir/NamingSystem/uzi-rolcode)">Allergoloog (gesloten register)</span>
                           </td>
                        </tr>
                        <tr>
                           <th>Contactgegevens</th>
                           <td>
                              <div>
                                 <a href="tel:0800-654321">0800-654321</a> (Tel Werk)</div>
                              <div>
                                 <a href="mailto:m.boot@deallergoloog.nl">m.boot@deallergoloog.nl</a> (E-mail Werk)</div>
                           </td>
                        </tr>
                     </tbody>
                  </table>
               </div>
            </text>
            <practitioner>
               <reference value="urn:oid:2.16.528.1.1007.3.1.333333343"/>
               <display value="M. Boot"/>
            </practitioner>
            <specialty>
               <coding>
                  <system value="http://fhir.nl/fhir/NamingSystem/uzi-rolcode"/>
                  <version value="2018-09-10T00:00:00"/>
                  <code value="01.002"/>
                  <display value="Allergoloog (gesloten register)"/>
               </coding>
            </specialty>
            <telecom>
               <system value="phone">
                  <extension url="http://nictiz.nl/fhir/StructureDefinition/code-specification">
                     <valueCodeableConcept>
                        <coding>
                           <system value="urn:oid:2.16.840.1.113883.2.4.3.11.60.40.4.22.1"/>
                           <code value="LL"/>
                           <display value="Vast telefoonnummer"/>
                        </coding>
                     </valueCodeableConcept>
                  </extension>
               </system>
               <value value="0800-654321"/>
               <use value="work">
                  <extension url="http://nictiz.nl/fhir/StructureDefinition/code-specification">
                     <valueCodeableConcept>
                        <coding>
                           <system value="http://hl7.org/fhir/v3/AddressUse"/>
                           <code value="WP"/>
                           <display value="Zakelijk telefoonnummer"/>
                        </coding>
                     </valueCodeableConcept>
                  </extension>
               </use>
            </telecom>
            <telecom>
               <system value="email"/>
               <value value="m.boot@deallergoloog.nl"/>
               <use value="work">
                  <extension url="http://nictiz.nl/fhir/StructureDefinition/code-specification">
                     <valueCodeableConcept>
                        <coding>
                           <system value="http://hl7.org/fhir/v3/AddressUse"/>
                           <code value="WP"/>
                           <display value="Zakelijk e-mailadres"/>
                        </coding>
                     </valueCodeableConcept>
                  </extension>
               </use>
            </telecom>
         </PractitionerRole>
      </resource>
      <search>
         <mode value="include"/>
      </search>
   </entry>
   <entry>
      <fullUrl value="urn:uuid:04ec6f47-afe3-11ea-2044-020000000000"/>
      <resource>
         <RelatedPerson>
            <meta>
               <profile value="http://fhir.nl/fhir/StructureDefinition/nl-core-relatedperson"/>
            </meta>
            <text>
               <status value="generated"/>
               <div xmlns="http://www.w3.org/1999/xhtml">
                  <div>Abraham B.M.H. Pasveer (Bram)</div>
                  <div>
                     <a href="tel:06-12345670">06-12345670</a> (Tel Mobiel), <a href="mailto:brampasveer_123@hotmail.com">brampasveer_123@hotmail.com</a> (E-mail Privé)</div>
                  <div>Bolweg 99 b, 9999 XX Stitswerd (Privé Bezoek)</div>
                  <div>
                     <span title="Vriend(in)/kennis (20 - RoleCodeLijst (COD472-VEKT))">Vriend(in)/kennis</span>, Boezemvriend van Véronique V. Véronique XXX-TEST-D</div>
               </div>
            </text>
            <extension url="http://fhir.nl/fhir/StructureDefinition/nl-core-relatedperson-role">
               <valueCodeableConcept>
                  <coding>
                     <system value="urn:oid:2.16.840.1.113883.2.4.3.11.22.472"/>
                     <code value="20"/>
                     <display value="Vriend(in)/kennis"/>
                  </coding>
               </valueCodeableConcept>
            </extension>
            <patient>
               <reference value="urn:uuid:04ec6809-afe3-11ea-2044-020000000000"/>
               <display value="Véronique V. Véronique XXX-TEST-D"/>
            </patient>
            <relationship>
               <extension url="http://hl7.org/fhir/StructureDefinition/iso21090-nullFlavor">
                  <valueCode value="OTH"/>
               </extension>
               <text value="Boezemvriend"/>
            </relationship>
            <name>
               <extension url="http://hl7.org/fhir/StructureDefinition/humanname-assembly-order">
                  <valueCode value="NL1"/>
               </extension>
               <family value="Pasveer">
                  <extension url="http://hl7.org/fhir/StructureDefinition/humanname-own-name">
                     <valueString value="Pasveer"/>
                  </extension>
               </family>
               <given value="Abraham">
                  <extension url="http://hl7.org/fhir/StructureDefinition/iso21090-EN-qualifier">
                     <valueCode value="BR"/>
                  </extension>
               </given>
               <given value="B.M.H.">
                  <extension url="http://hl7.org/fhir/StructureDefinition/iso21090-EN-qualifier">
                     <valueCode value="IN"/>
                  </extension>
               </given>
               <given value="Bram">
                  <extension url="http://hl7.org/fhir/StructureDefinition/iso21090-EN-qualifier">
                     <valueCode value="CL"/>
                  </extension>
               </given>
            </name>
            <telecom>
               <system value="phone">
                  <extension url="http://nictiz.nl/fhir/StructureDefinition/code-specification">
                     <valueCodeableConcept>
                        <coding>
                           <system value="http://hl7.org/fhir/v3/AddressUse"/>
                           <code value="MC"/>
                           <display value="Mobiel telefoonnummer"/>
                        </coding>
                     </valueCodeableConcept>
                  </extension>
               </system>
               <value value="06-12345670"/>
               <use value="mobile"/>
            </telecom>
            <telecom>
               <system value="email"/>
               <value value="brampasveer_123@hotmail.com"/>
               <use value="home">
                  <extension url="http://nictiz.nl/fhir/StructureDefinition/code-specification">
                     <valueCodeableConcept>
                        <coding>
                           <system value="http://hl7.org/fhir/v3/AddressUse"/>
                           <code value="HP"/>
                           <display value="Privé e-mailadres"/>
                        </coding>
                     </valueCodeableConcept>
                  </extension>
               </use>
            </telecom>
            <address>
               <extension url="http://hl7.org/fhir/StructureDefinition/iso21090-AD-use">
                  <valueCode value="PHYS"/>
               </extension>
               <use value="home"/>
               <type value="physical"/>
               <line value="Bolweg 99 b">
                  <extension url="http://hl7.org/fhir/StructureDefinition/iso21090-ADXP-streetName">
                     <valueString value="Bolweg"/>
                  </extension>
                  <extension url="http://hl7.org/fhir/StructureDefinition/iso21090-ADXP-houseNumber">
                     <valueString value="99"/>
                  </extension>
                  <extension url="http://hl7.org/fhir/StructureDefinition/iso21090-ADXP-buildingNumberSuffix">
                     <valueString value="b"/>
                  </extension>
               </line>
               <city value="Stitswerd"/>
               <postalCode value="9999 XX"/>
            </address>
         </RelatedPerson>
      </resource>
      <search>
         <mode value="include"/>
      </search>
   </entry>
</Bundle>
