<Bundle xmlns="http://hl7.org/fhir">
   <id value="9b2c6bb3-a281-11ef-2042-020000000000"/>
   <type value="transaction"/>
   <entry>
      <fullUrl value="urn:uuid:9b2c6d06-a281-11ef-2042-020000000000"/>
      <resource>
         <MedicationRequest>
            <meta>
               <profile value="http://nictiz.nl/fhir/StructureDefinition/mp-MedicationAgreement"/>
            </meta>
            <extension url="http://nictiz.nl/fhir/StructureDefinition/ext-RegistrationDateTime">
               <valueDateTime value="2022-12-22T11:20:00+01:00"/>
            </extension>
            <f:extension xmlns:f="http://hl7.org/fhir"
                         url="http://nictiz.nl/fhir/StructureDefinition/ext-RenderedDosageInstruction">
               <f:valueString value="Vanaf 22 dec 2022, tot en met 27 dec 2022 (3 dagen voor opname stoppen), 1 maal per dag 1 stuk, oraal"/>
            </f:extension>
            <extension url="http://nictiz.nl/fhir/StructureDefinition/ext-TimeInterval.Period">
               <valuePeriod>
                  <extension url="http://nictiz.nl/fhir/StructureDefinition/ext-MedicationAgreement.PeriodOfUse.Condition">
                     <valueString value="3 dagen voor opname stoppen"/>
                  </extension>
                  <start value="2022-12-22T00:00:00+01:00"/>
                  <end value="2022-12-27T23:59:59+01:00"/>
               </valuePeriod>
            </extension>
            <extension url="http://nictiz.nl/fhir/StructureDefinition/ext-PharmaceuticalTreatment.Identifier">
               <valueIdentifier>
                  <system value="urn:oid:2.16.840.1.113883.2.4.3.11.999.77.1.1"/>
                  <value value="MBH_300_start_eind"/>
               </valueIdentifier>
            </extension>
            <identifier>
               <system value="urn:oid:2.16.840.1.113883.2.4.3.11.999.77.16076005.1"/>
               <value value="MBH_300_start_eind_MA"/>
            </identifier>
            <status value="unknown"/>
            <intent value="order"/>
            <category>
               <coding>
                  <system value="http://snomed.info/sct"/>
                  <code value="33633005"/>
                  <display value="voorschrijven van geneesmiddel"/>
               </coding>
            </category>
            <medicationReference>
               <reference value="urn:uuid:9b2c6dd8-a281-11ef-2042-020000000000"/>
               <type value="Medication"/>
               <display value="METOCLOPRAMIDE TABLET 10MG"/>
            </medicationReference>
            <subject>
               <reference value="urn:uuid:9b2c6c34-a281-11ef-2042-020000000000"/>
               <type value="Patient"/>
               <display value="Patient, C. XXX_Brugge"/>
            </subject>
            <requester>
               <reference value="urn:uuid:9b2c6c5c-a281-11ef-2042-020000000000"/>
               <type value="PractitionerRole"/>
               <display value="Healthcare professional (role), Peter van Pulver, Huisartsen, niet nader gespecificeerd, Huisartsenpraktijk Pulver &amp; Partners"/>
            </requester>
            <dosageInstruction>
               <timing>
                  <repeat>
                     <frequency value="1"/>
                     <period value="1"/>
                     <periodUnit value="d"/>
                  </repeat>
               </timing>
               <route>
                  <coding>
                     <system value="urn:oid:2.16.840.1.113883.2.4.4.9"/>
                     <code value="9"/>
                     <display value="oraal"/>
                  </coding>
               </route>
               <doseAndRate>
                  <doseQuantity>
                     <extension url="http://hl7.org/fhir/StructureDefinition/iso21090-PQ-translation">
                        <valueQuantity>
                           <value value="1"/>
                           <unit value="stuk"/>
                           <system value="urn:oid:2.16.840.1.113883.2.4.4.1.900.2"/>
                           <code value="245"/>
                        </valueQuantity>
                     </extension>
                     <value value="1"/>
                     <unit value="stuk"/>
                     <system value="http://unitsofmeasure.org"/>
                     <code value="1"/>
                  </doseQuantity>
               </doseAndRate>
            </dosageInstruction>
         </MedicationRequest>
      </resource>
      <request>
         <method value="POST"/>
         <url value="MedicationRequest"/>
      </request>
   </entry>
   <entry>
      <fullUrl value="urn:uuid:9b2c6d24-a281-11ef-2042-020000000000"/>
      <resource>
         <MedicationRequest>
            <meta>
               <profile value="http://nictiz.nl/fhir/StructureDefinition/mp-MedicationAgreement"/>
            </meta>
            <extension url="http://nictiz.nl/fhir/StructureDefinition/ext-RegistrationDateTime">
               <valueDateTime value="2022-12-12T11:30:00+01:00"/>
            </extension>
            <f:extension xmlns:f="http://hl7.org/fhir"
                         url="http://nictiz.nl/fhir/StructureDefinition/ext-RenderedDosageInstruction">
               <f:valueString value="Vanaf 12 dec 2022, gedurende 3 weken, 1 maal per dag 1 stuk, oraal"/>
            </f:extension>
            <extension url="http://nictiz.nl/fhir/StructureDefinition/ext-TimeInterval.Period">
               <valuePeriod>
                  <extension url="http://nictiz.nl/fhir/StructureDefinition/ext-TimeInterval.Duration">
                     <valueDuration>
                        <value value="3"/>
                        <unit value="week"/>
                        <system value="http://unitsofmeasure.org"/>
                        <code value="wk"/>
                     </valueDuration>
                  </extension>
                  <start value="2022-12-12T00:00:00+01:00"/>
               </valuePeriod>
            </extension>
            <extension url="http://nictiz.nl/fhir/StructureDefinition/ext-PharmaceuticalTreatment.Identifier">
               <valueIdentifier>
                  <system value="urn:oid:2.16.840.1.113883.2.4.3.11.999.77.1.1"/>
                  <value value="MBH_300_start_duur"/>
               </valueIdentifier>
            </extension>
            <identifier>
               <system value="urn:oid:2.16.840.1.113883.2.4.3.11.999.77.16076005.1"/>
               <value value="MBH_300_start_duur_MA"/>
            </identifier>
            <status value="unknown"/>
            <intent value="order"/>
            <category>
               <coding>
                  <system value="http://snomed.info/sct"/>
                  <code value="33633005"/>
                  <display value="voorschrijven van geneesmiddel"/>
               </coding>
            </category>
            <medicationReference>
               <reference value="urn:uuid:9b2c6dba-a281-11ef-2042-020000000000"/>
               <type value="Medication"/>
               <display value="LISINOPRIL 10MG TABLET"/>
            </medicationReference>
            <subject>
               <reference value="urn:uuid:9b2c6c34-a281-11ef-2042-020000000000"/>
               <type value="Patient"/>
               <display value="Patient, C. XXX_Brugge"/>
            </subject>
            <requester>
               <reference value="urn:uuid:9b2c6c5c-a281-11ef-2042-020000000000"/>
               <type value="PractitionerRole"/>
               <display value="Healthcare professional (role), Peter van Pulver, Huisartsen, niet nader gespecificeerd, Huisartsenpraktijk Pulver &amp; Partners"/>
            </requester>
            <dosageInstruction>
               <timing>
                  <repeat>
                     <frequency value="1"/>
                     <period value="1"/>
                     <periodUnit value="d"/>
                  </repeat>
               </timing>
               <route>
                  <coding>
                     <system value="urn:oid:2.16.840.1.113883.2.4.4.9"/>
                     <code value="9"/>
                     <display value="oraal"/>
                  </coding>
               </route>
               <doseAndRate>
                  <doseQuantity>
                     <extension url="http://hl7.org/fhir/StructureDefinition/iso21090-PQ-translation">
                        <valueQuantity>
                           <value value="1"/>
                           <unit value="stuk"/>
                           <system value="urn:oid:2.16.840.1.113883.2.4.4.1.900.2"/>
                           <code value="245"/>
                        </valueQuantity>
                     </extension>
                     <value value="1"/>
                     <unit value="stuk"/>
                     <system value="http://unitsofmeasure.org"/>
                     <code value="1"/>
                  </doseQuantity>
               </doseAndRate>
            </dosageInstruction>
         </MedicationRequest>
      </resource>
      <request>
         <method value="POST"/>
         <url value="MedicationRequest"/>
      </request>
   </entry>
   <entry>
      <fullUrl value="urn:uuid:9b2c6d42-a281-11ef-2042-020000000000"/>
      <resource>
         <MedicationRequest>
            <meta>
               <profile value="http://nictiz.nl/fhir/StructureDefinition/mp-MedicationAgreement"/>
            </meta>
            <extension url="http://nictiz.nl/fhir/StructureDefinition/ext-RegistrationDateTime">
               <valueDateTime value="2022-12-02T11:32:00+01:00"/>
            </extension>
            <f:extension xmlns:f="http://hl7.org/fhir"
                         url="http://nictiz.nl/fhir/StructureDefinition/ext-RenderedDosageInstruction">
               <f:valueString value="Vanaf 2 dec 2022, 1 maal per dag 1 stuk, oraal"/>
            </f:extension>
            <extension url="http://nictiz.nl/fhir/StructureDefinition/ext-TimeInterval.Period">
               <valuePeriod>
                  <start value="2022-12-02T00:00:00+01:00"/>
               </valuePeriod>
            </extension>
            <extension url="http://nictiz.nl/fhir/StructureDefinition/ext-PharmaceuticalTreatment.Identifier">
               <valueIdentifier>
                  <system value="urn:oid:2.16.840.1.113883.2.4.3.11.999.77.1.1"/>
                  <value value="MBH_300_chronisch"/>
               </valueIdentifier>
            </extension>
            <identifier>
               <system value="urn:oid:2.16.840.1.113883.2.4.3.11.999.77.16076005.1"/>
               <value value="MBH_300_chronisch_MA"/>
            </identifier>
            <status value="unknown"/>
            <intent value="order"/>
            <category>
               <coding>
                  <system value="http://snomed.info/sct"/>
                  <code value="33633005"/>
                  <display value="voorschrijven van geneesmiddel"/>
               </coding>
            </category>
            <medicationReference>
               <reference value="urn:uuid:9b2c6d9c-a281-11ef-2042-020000000000"/>
               <type value="Medication"/>
               <display value="ACETYLSALICYLZUUR/PARACETAMOL/COF TAB 250/250/50MG"/>
            </medicationReference>
            <subject>
               <reference value="urn:uuid:9b2c6c34-a281-11ef-2042-020000000000"/>
               <type value="Patient"/>
               <display value="Patient, C. XXX_Brugge"/>
            </subject>
            <requester>
               <reference value="urn:uuid:9b2c6c5c-a281-11ef-2042-020000000000"/>
               <type value="PractitionerRole"/>
               <display value="Healthcare professional (role), Peter van Pulver, Huisartsen, niet nader gespecificeerd, Huisartsenpraktijk Pulver &amp; Partners"/>
            </requester>
            <dosageInstruction>
               <timing>
                  <repeat>
                     <frequency value="1"/>
                     <period value="1"/>
                     <periodUnit value="d"/>
                  </repeat>
               </timing>
               <route>
                  <coding>
                     <system value="urn:oid:2.16.840.1.113883.2.4.4.9"/>
                     <code value="9"/>
                     <display value="oraal"/>
                  </coding>
               </route>
               <doseAndRate>
                  <doseQuantity>
                     <extension url="http://hl7.org/fhir/StructureDefinition/iso21090-PQ-translation">
                        <valueQuantity>
                           <value value="1"/>
                           <unit value="stuk"/>
                           <system value="urn:oid:2.16.840.1.113883.2.4.4.1.900.2"/>
                           <code value="245"/>
                        </valueQuantity>
                     </extension>
                     <value value="1"/>
                     <unit value="stuk"/>
                     <system value="http://unitsofmeasure.org"/>
                     <code value="1"/>
                  </doseQuantity>
               </doseAndRate>
            </dosageInstruction>
         </MedicationRequest>
      </resource>
      <request>
         <method value="POST"/>
         <url value="MedicationRequest"/>
      </request>
   </entry>
   <entry>
      <fullUrl value="urn:uuid:9b2c6d60-a281-11ef-2042-020000000000"/>
      <resource>
         <MedicationRequest>
            <meta>
               <profile value="http://nictiz.nl/fhir/StructureDefinition/mp-MedicationAgreement"/>
            </meta>
            <extension url="http://nictiz.nl/fhir/StructureDefinition/ext-RegistrationDateTime">
               <valueDateTime value="2022-11-02T11:30:00+01:00"/>
            </extension>
            <f:extension xmlns:f="http://hl7.org/fhir"
                         url="http://nictiz.nl/fhir/StructureDefinition/ext-RenderedDosageInstruction">
               <f:valueString value="Vanaf 2 nov 2022, gedurende 28 dagen, 1 maal per dag 1 stuk, oraal"/>
            </f:extension>
            <extension url="http://nictiz.nl/fhir/StructureDefinition/ext-TimeInterval.Period">
               <valuePeriod>
                  <extension url="http://nictiz.nl/fhir/StructureDefinition/ext-TimeInterval.Duration">
                     <valueDuration>
                        <value value="28"/>
                        <unit value="dag"/>
                        <system value="http://unitsofmeasure.org"/>
                        <code value="d"/>
                     </valueDuration>
                  </extension>
                  <start value="2022-11-02T00:00:00+01:00"/>
               </valuePeriod>
            </extension>
            <extension url="http://nictiz.nl/fhir/StructureDefinition/ext-PharmaceuticalTreatment.Identifier">
               <valueIdentifier>
                  <system value="urn:oid:2.16.840.1.113883.2.4.3.11.999.77.1.1"/>
                  <value value="MBH_300_start_duur2"/>
               </valueIdentifier>
            </extension>
            <identifier>
               <system value="urn:oid:2.16.840.1.113883.2.4.3.11.999.77.16076005.1"/>
               <value value="MBH_300_start_duur2_MA"/>
            </identifier>
            <status value="unknown"/>
            <intent value="order"/>
            <category>
               <coding>
                  <system value="http://snomed.info/sct"/>
                  <code value="33633005"/>
                  <display value="voorschrijven van geneesmiddel"/>
               </coding>
            </category>
            <medicationReference>
               <reference value="urn:uuid:9b2c6df6-a281-11ef-2042-020000000000"/>
               <type value="Medication"/>
               <display value="PANTOPRAZOL 20MG TABLET MSR"/>
            </medicationReference>
            <subject>
               <reference value="urn:uuid:9b2c6c34-a281-11ef-2042-020000000000"/>
               <type value="Patient"/>
               <display value="Patient, C. XXX_Brugge"/>
            </subject>
            <requester>
               <reference value="urn:uuid:9b2c6c5c-a281-11ef-2042-020000000000"/>
               <type value="PractitionerRole"/>
               <display value="Healthcare professional (role), Peter van Pulver, Huisartsen, niet nader gespecificeerd, Huisartsenpraktijk Pulver &amp; Partners"/>
            </requester>
            <dosageInstruction>
               <timing>
                  <repeat>
                     <frequency value="1"/>
                     <period value="1"/>
                     <periodUnit value="d"/>
                  </repeat>
               </timing>
               <route>
                  <coding>
                     <system value="urn:oid:2.16.840.1.113883.2.4.4.9"/>
                     <code value="9"/>
                     <display value="oraal"/>
                  </coding>
               </route>
               <doseAndRate>
                  <doseQuantity>
                     <extension url="http://hl7.org/fhir/StructureDefinition/iso21090-PQ-translation">
                        <valueQuantity>
                           <value value="1"/>
                           <unit value="stuk"/>
                           <system value="urn:oid:2.16.840.1.113883.2.4.4.1.900.2"/>
                           <code value="245"/>
                        </valueQuantity>
                     </extension>
                     <value value="1"/>
                     <unit value="stuk"/>
                     <system value="http://unitsofmeasure.org"/>
                     <code value="1"/>
                  </doseQuantity>
               </doseAndRate>
            </dosageInstruction>
         </MedicationRequest>
      </resource>
      <request>
         <method value="POST"/>
         <url value="MedicationRequest"/>
      </request>
   </entry>
   <entry>
      <fullUrl value="urn:uuid:9b2c6d7e-a281-11ef-2042-020000000000"/>
      <resource>
         <MedicationRequest>
            <meta>
               <profile value="http://nictiz.nl/fhir/StructureDefinition/mp-MedicationAgreement"/>
            </meta>
            <extension url="http://nictiz.nl/fhir/StructureDefinition/ext-RegistrationDateTime">
               <valueDateTime value="2022-08-24T11:35:00+02:00"/>
            </extension>
            <f:extension xmlns:f="http://hl7.org/fhir"
                         url="http://nictiz.nl/fhir/StructureDefinition/ext-RenderedDosageInstruction">
               <f:valueString value="Vanaf 24 aug 2022, tot en met 22 sep 2022, 2 maal per dag 1 dosis, inhalatie"/>
            </f:extension>
            <extension url="http://nictiz.nl/fhir/StructureDefinition/ext-TimeInterval.Period">
               <valuePeriod>
                  <start value="2022-08-24T00:00:00+02:00"/>
                  <end value="2022-09-22T23:59:59+02:00"/>
               </valuePeriod>
            </extension>
            <extension url="http://nictiz.nl/fhir/StructureDefinition/ext-PharmaceuticalTreatment.Identifier">
               <valueIdentifier>
                  <system value="urn:oid:2.16.840.1.113883.2.4.3.11.999.77.1.1"/>
                  <value value="MBH_300_dosis_stuks"/>
               </valueIdentifier>
            </extension>
            <identifier>
               <system value="urn:oid:2.16.840.1.113883.2.4.3.11.999.77.16076005.1"/>
               <value value="MBH_300_dosis_stuks_MA"/>
            </identifier>
            <status value="unknown"/>
            <intent value="order"/>
            <category>
               <coding>
                  <system value="http://snomed.info/sct"/>
                  <code value="33633005"/>
                  <display value="voorschrijven van geneesmiddel"/>
               </coding>
            </category>
            <medicationReference>
               <reference value="urn:uuid:9b2c6e14-a281-11ef-2042-020000000000"/>
               <type value="Medication"/>
               <display value="FLUTICASON INHALATIEPOEDER 100UG/DO 60DO DISKUS"/>
            </medicationReference>
            <subject>
               <reference value="urn:uuid:9b2c6c34-a281-11ef-2042-020000000000"/>
               <type value="Patient"/>
               <display value="Patient, C. XXX_Brugge"/>
            </subject>
            <requester>
               <reference value="urn:uuid:9b2c6c5c-a281-11ef-2042-020000000000"/>
               <type value="PractitionerRole"/>
               <display value="Healthcare professional (role), Peter van Pulver, Huisartsen, niet nader gespecificeerd, Huisartsenpraktijk Pulver &amp; Partners"/>
            </requester>
            <dosageInstruction>
               <timing>
                  <repeat>
                     <frequency value="2"/>
                     <period value="1"/>
                     <periodUnit value="d"/>
                  </repeat>
               </timing>
               <route>
                  <coding>
                     <system value="urn:oid:2.16.840.1.113883.2.4.4.9"/>
                     <code value="62"/>
                     <display value="inhalatie"/>
                  </coding>
               </route>
               <doseAndRate>
                  <doseQuantity>
                     <extension url="http://hl7.org/fhir/StructureDefinition/iso21090-PQ-translation">
                        <valueQuantity>
                           <value value="1"/>
                           <unit value="dosis"/>
                           <system value="urn:oid:2.16.840.1.113883.2.4.4.1.900.2"/>
                           <code value="208"/>
                        </valueQuantity>
                     </extension>
                     <value value="1"/>
                     <unit value="dosis"/>
                     <system value="http://unitsofmeasure.org"/>
                     <code value="1"/>
                  </doseQuantity>
               </doseAndRate>
            </dosageInstruction>
         </MedicationRequest>
      </resource>
      <request>
         <method value="POST"/>
         <url value="MedicationRequest"/>
      </request>
   </entry>
   <entry>
      <fullUrl value="urn:uuid:9b2c6c34-a281-11ef-2042-020000000000"/>
      <resource>
         <Patient>
            <meta>
               <profile value="http://nictiz.nl/fhir/StructureDefinition/nl-core-Patient"/>
            </meta>
            <identifier>
               <system value="http://fhir.nl/fhir/NamingSystem/bsn"/>
               <value value="999900419"/>
            </identifier>
            <name>
               <extension url="http://hl7.org/fhir/StructureDefinition/humanname-assembly-order">
                  <valueCode value="NL1"/>
               </extension>
               <use value="official"/>
               <text value="C. XXX_Brugge"/>
               <family value="XXX_Brugge">
                  <extension url="http://hl7.org/fhir/StructureDefinition/humanname-own-name">
                     <valueString value="XXX_Brugge"/>
                  </extension>
               </family>
               <given value="C.">
                  <extension url="http://hl7.org/fhir/StructureDefinition/iso21090-EN-qualifier">
                     <valueCode value="IN"/>
                  </extension>
               </given>
            </name>
            <gender value="male">
               <extension url="http://nictiz.nl/fhir/StructureDefinition/ext-CodeSpecification">
                  <valueCodeableConcept>
                     <coding>
                        <system value="http://terminology.hl7.org/CodeSystem/v3-AdministrativeGender"/>
                        <code value="M"/>
                        <display value="Man"/>
                     </coding>
                  </valueCodeableConcept>
               </extension>
            </gender>
            <birthDate value="1963-10-16"/>
         </Patient>
      </resource>
      <request>
         <method value="POST"/>
         <url value="Patient"/>
      </request>
   </entry>
   <entry>
      <fullUrl value="urn:uuid:9b2c6c5c-a281-11ef-2042-020000000000"/>
      <resource>
         <PractitionerRole>
            <meta>
               <profile value="http://nictiz.nl/fhir/StructureDefinition/nl-core-HealthProfessional-PractitionerRole"/>
            </meta>
            <practitioner>
               <reference value="urn:uuid:9b2c6c84-a281-11ef-2042-020000000000"/>
               <type value="Practitioner"/>
               <display value="Healthcare professional (person), Peter van Pulver"/>
            </practitioner>
            <organization>
               <reference value="urn:uuid:9b2c6cca-a281-11ef-2042-020000000000"/>
               <type value="Organization"/>
               <display value="Healthcare provider (organization), Huisartsenpraktijk Pulver &amp; Partners"/>
            </organization>
            <specialty>
               <coding>
                  <system value="urn:oid:2.16.840.1.113883.2.4.6.7"/>
                  <version value="2020-10-23T00:00:00"/>
                  <code value="0100"/>
                  <display value="Huisartsen, niet nader gespecificeerd"/>
               </coding>
            </specialty>
         </PractitionerRole>
      </resource>
      <request>
         <method value="POST"/>
         <url value="PractitionerRole"/>
      </request>
   </entry>
   <entry>
      <fullUrl value="urn:uuid:9b2c6c84-a281-11ef-2042-020000000000"/>
      <resource>
         <Practitioner>
            <meta>
               <profile value="http://nictiz.nl/fhir/StructureDefinition/nl-core-HealthProfessional-Practitioner"/>
            </meta>
            <identifier>
               <system value="http://fhir.nl/fhir/NamingSystem/uzi-nr-pers"/>
               <value value="000001111"/>
            </identifier>
            <name>
               <use value="official"/>
               <text value="Peter van Pulver"/>
               <family value="van Pulver">
                  <extension url="http://hl7.org/fhir/StructureDefinition/humanname-own-prefix">
                     <valueString value="van"/>
                  </extension>
                  <extension url="http://hl7.org/fhir/StructureDefinition/humanname-own-name">
                     <valueString value="Pulver"/>
                  </extension>
               </family>
               <given value="Peter">
                  <extension url="http://hl7.org/fhir/StructureDefinition/iso21090-EN-qualifier">
                     <valueCode value="BR"/>
                  </extension>
               </given>
            </name>
         </Practitioner>
      </resource>
      <request>
         <method value="POST"/>
         <url value="Practitioner"/>
      </request>
   </entry>
   <entry>
      <fullUrl value="urn:uuid:9b2c6cca-a281-11ef-2042-020000000000"/>
      <resource>
         <Organization>
            <meta>
               <profile value="http://nictiz.nl/fhir/StructureDefinition/nl-core-HealthcareProvider-Organization"/>
            </meta>
            <identifier>
               <system value="http://fhir.nl/fhir/NamingSystem/ura"/>
               <value value="00001111"/>
            </identifier>
            <name value="Huisartsenpraktijk Pulver &amp; Partners"/>
            <address>
               <extension url="http://nictiz.nl/fhir/StructureDefinition/ext-AddressInformation.AddressType">
                  <valueCodeableConcept>
                     <coding>
                        <system value="http://terminology.hl7.org/CodeSystem/v3-AddressUse"/>
                        <code value="WP"/>
                        <display value="Werkadres"/>
                     </coding>
                  </valueCodeableConcept>
               </extension>
               <use value="work"/>
               <line value="Dorpsstraat 1">
                  <extension url="http://hl7.org/fhir/StructureDefinition/iso21090-ADXP-streetName">
                     <valueString value="Dorpsstraat"/>
                  </extension>
                  <extension url="http://hl7.org/fhir/StructureDefinition/iso21090-ADXP-houseNumber">
                     <valueString value="1"/>
                  </extension>
               </line>
               <city value="Ons Dorp"/>
               <postalCode value="1234AA"/>
            </address>
         </Organization>
      </resource>
      <request>
         <method value="POST"/>
         <url value="Organization"/>
      </request>
   </entry>
   <entry>
      <fullUrl value="urn:uuid:9b2c6d9c-a281-11ef-2042-020000000000"/>
      <resource>
         <Medication>
            <meta>
               <profile value="http://nictiz.nl/fhir/StructureDefinition/mp-PharmaceuticalProduct"/>
            </meta>
            <code>
               <coding>
                  <system value="urn:oid:2.16.840.1.113883.2.4.4.10"/>
                  <code value="3891"/>
                  <display value="ACETYLSALICYLZUUR/PARACETAMOL/COF TAB 250/250/50MG"/>
                  <userSelected value="true"/>
               </coding>
               <coding>
                  <system value="urn:oid:2.16.840.1.113883.2.4.4.1"/>
                  <code value="61433"/>
                  <display value="ACETYLSALICYLZUUR/PARACETAMOL/COF TAB 250/250/50MG"/>
               </coding>
               <text value="ACETYLSALICYLZUUR/PARACETAMOL/COF TAB 250/250/50MG"/>
            </code>
         </Medication>
      </resource>
      <request>
         <method value="POST"/>
         <url value="Medication"/>
      </request>
   </entry>
   <entry>
      <fullUrl value="urn:uuid:9b2c6dba-a281-11ef-2042-020000000000"/>
      <resource>
         <Medication>
            <meta>
               <profile value="http://nictiz.nl/fhir/StructureDefinition/mp-PharmaceuticalProduct"/>
            </meta>
            <code>
               <coding>
                  <system value="urn:oid:2.16.840.1.113883.2.4.4.10"/>
                  <code value="26638"/>
                  <display value="LISINOPRIL 10MG TABLET"/>
                  <userSelected value="true"/>
               </coding>
               <coding>
                  <system value="urn:oid:2.16.840.1.113883.2.4.4.1"/>
                  <code value="71587"/>
                  <display value="LISINOPRIL 10MG TABLET"/>
               </coding>
               <text value="LISINOPRIL 10MG TABLET"/>
            </code>
         </Medication>
      </resource>
      <request>
         <method value="POST"/>
         <url value="Medication"/>
      </request>
   </entry>
   <entry>
      <fullUrl value="urn:uuid:9b2c6dd8-a281-11ef-2042-020000000000"/>
      <resource>
         <Medication>
            <meta>
               <profile value="http://nictiz.nl/fhir/StructureDefinition/mp-PharmaceuticalProduct"/>
            </meta>
            <code>
               <coding>
                  <system value="urn:oid:2.16.840.1.113883.2.4.4.10"/>
                  <code value="6947"/>
                  <display value="METOCLOPRAMIDE TABLET 10MG"/>
                  <userSelected value="true"/>
               </coding>
               <coding>
                  <system value="urn:oid:2.16.840.1.113883.2.4.4.1"/>
                  <code value="19429"/>
                  <display value="METOCLOPRAMIDE TABLET 10MG"/>
               </coding>
               <text value="METOCLOPRAMIDE TABLET 10MG"/>
            </code>
         </Medication>
      </resource>
      <request>
         <method value="POST"/>
         <url value="Medication"/>
      </request>
   </entry>
   <entry>
      <fullUrl value="urn:uuid:9b2c6df6-a281-11ef-2042-020000000000"/>
      <resource>
         <Medication>
            <meta>
               <profile value="http://nictiz.nl/fhir/StructureDefinition/mp-PharmaceuticalProduct"/>
            </meta>
            <code>
               <coding>
                  <system value="urn:oid:2.16.840.1.113883.2.4.4.10"/>
                  <code value="52272"/>
                  <display value="PANTOPRAZOL 20MG TABLET MSR"/>
                  <userSelected value="true"/>
               </coding>
               <coding>
                  <system value="urn:oid:2.16.840.1.113883.2.4.4.1"/>
                  <code value="106275"/>
                  <display value="PANTOPRAZOL 20MG TABLET MSR"/>
               </coding>
               <text value="PANTOPRAZOL 20MG TABLET MSR"/>
            </code>
         </Medication>
      </resource>
      <request>
         <method value="POST"/>
         <url value="Medication"/>
      </request>
   </entry>
   <entry>
      <fullUrl value="urn:uuid:9b2c6e14-a281-11ef-2042-020000000000"/>
      <resource>
         <Medication>
            <meta>
               <profile value="http://nictiz.nl/fhir/StructureDefinition/mp-PharmaceuticalProduct"/>
            </meta>
            <code>
               <coding>
                  <system value="urn:oid:2.16.840.1.113883.2.4.4.10"/>
                  <code value="45624"/>
                  <display value="FLUTICASON INHALATIEPOEDER 100UG/DO 60DO DISKUS"/>
                  <userSelected value="true"/>
               </coding>
               <coding>
                  <system value="urn:oid:2.16.840.1.113883.2.4.4.1"/>
                  <code value="92487"/>
                  <display value="FLUTICASON INHALATIEPOEDER 100UG/DO"/>
               </coding>
               <text value="FLUTICASON INHALATIEPOEDER 100UG/DO 60DO DISKUS"/>
            </code>
         </Medication>
      </resource>
      <request>
         <method value="POST"/>
         <url value="Medication"/>
      </request>
   </entry>
</Bundle>
