<Bundle xmlns="http://hl7.org/fhir">
   <id value="5768567a-c2ac-11ef-1851-020000000000"/>
   <type value="searchset"/>
   <total value="10"/>
   <entry>
      <fullUrl value="urn:uuid:57685881-c2ac-11ef-1851-020000000000"/>
      <resource>
         <MedicationRequest>
            <meta>
               <profile value="http://nictiz.nl/fhir/StructureDefinition/mp-MedicationAgreement"/>
            </meta>
            <extension url="http://nictiz.nl/fhir/StructureDefinition/ext-RegistrationDateTime">
               <valueDateTime value="2022-12-26T11:30:00+01:00"/>
            </extension>
            <extension url="http://nictiz.nl/fhir/StructureDefinition/ext-RenderedDosageInstruction">
               <valueString value="eerst gedurende 3 dagen 2 maal per dag 2 stuks en Bij pijn 1 maal per dag 2 stuks , maximaal 6 stuks per dag, dan gedurende 7 dagen 3 maal per dag 1 stuk en Bij pijn 1 maal per dag 1 stuks , maximaal 4 stuks per dag, vóór het eten, oraal"/>
            </extension>
            <extension url="http://nictiz.nl/fhir/StructureDefinition/ext-TimeInterval.Period">
               <valuePeriod>
                  <extension url="http://nictiz.nl/fhir/StructureDefinition/ext-TimeInterval.Duration">
                     <valueDuration>
                        <value value="10"/>
                        <unit value="dag"/>
                        <system value="http://unitsofmeasure.org"/>
                        <code value="d"/>
                     </valueDuration>
                  </extension>
                  <start value="2022-12-26T11:30:00+01:00"/>
               </valuePeriod>
            </extension>
            <extension url="http://nictiz.nl/fhir/StructureDefinition/ext-PharmaceuticalTreatment.Identifier">
               <valueIdentifier>
                  <system value="urn:oid:2.16.840.1.113883.2.4.3.11.999.77.1.1"/>
                  <value value="MBH_300_script4"/>
               </valueIdentifier>
            </extension>
            <identifier>
               <system value="urn:oid:2.16.840.1.113883.2.4.3.11.999.77.16076005.1"/>
               <value value="MBH_300_script4_MA"/>
            </identifier>
            <status value="unknown"/>
            <intent value="order"/>
            <category>
               <coding>
                  <system value="http://snomed.info/sct"/>
                  <code value="33633005"/>
                  <display value="voorschrijven van geneesmiddel"/>
               </coding>
            </category>
            <medicationReference>
               <reference value="urn:uuid:5768595d-c2ac-11ef-1851-020000000000"/>
               <type value="Medication"/>
               <display value="DICLOFENAC-NATRIUM TABLET MSR 25MG"/>
            </medicationReference>
            <subject>
               <reference value="urn:uuid:576856ab-c2ac-11ef-1851-020000000000"/>
               <type value="Patient"/>
               <display value="Patient, T. (Themanager) XXX_Braak"/>
            </subject>
            <requester>
               <reference value="urn:uuid:5768570f-c2ac-11ef-1851-020000000000"/>
               <type value="PractitionerRole"/>
               <display value="Healthcare professional (role), Peter van Pulver, Huisartsen, niet nader gespecificeerd, Huisartsenpraktijk Pulver &amp; Partners"/>
            </requester>
            <dosageInstruction>
               <sequence value="1"/>
               <additionalInstruction>
                  <coding>
                     <system value="http://terminology.hl7.org/CodeSystem/v3-NullFlavor"/>
                     <code value="OTH"/>
                     <display value="overig"/>
                  </coding>
                  <text value="vóór het eten"/>
               </additionalInstruction>
               <timing>
                  <repeat>
                     <boundsDuration>
                        <value value="3"/>
                        <unit value="dag"/>
                        <system value="http://unitsofmeasure.org"/>
                        <code value="d"/>
                     </boundsDuration>
                     <frequency value="2"/>
                     <period value="1"/>
                     <periodUnit value="d"/>
                  </repeat>
               </timing>
               <route>
                  <coding>
                     <system value="urn:oid:2.16.840.1.113883.2.4.4.9"/>
                     <code value="9"/>
                     <display value="oraal"/>
                  </coding>
               </route>
               <doseAndRate>
                  <doseQuantity>
                     <extension url="http://hl7.org/fhir/StructureDefinition/iso21090-PQ-translation">
                        <valueQuantity>
                           <value value="2"/>
                           <unit value="stuk"/>
                           <system value="urn:oid:2.16.840.1.113883.2.4.4.1.900.2"/>
                           <code value="245"/>
                        </valueQuantity>
                     </extension>
                     <value value="2"/>
                     <unit value="stuk"/>
                     <system value="http://unitsofmeasure.org"/>
                     <code value="1"/>
                  </doseQuantity>
               </doseAndRate>
            </dosageInstruction>
            <dosageInstruction>
               <sequence value="1"/>
               <additionalInstruction>
                  <coding>
                     <system value="http://terminology.hl7.org/CodeSystem/v3-NullFlavor"/>
                     <code value="OTH"/>
                     <display value="overig"/>
                  </coding>
                  <text value="vóór het eten"/>
               </additionalInstruction>
               <timing>
                  <repeat>
                     <boundsDuration>
                        <value value="3"/>
                        <unit value="dag"/>
                        <system value="http://unitsofmeasure.org"/>
                        <code value="d"/>
                     </boundsDuration>
                     <frequency value="1"/>
                     <period value="1"/>
                     <periodUnit value="d"/>
                  </repeat>
               </timing>
               <asNeededCodeableConcept>
                  <coding>
                     <system value="https://referentiemodel.nhg.org/tabellen/nhg-tabel-25-gebruiksvoorschrift#aanvullend-numeriek"/>
                     <code value="1028"/>
                     <display value="Bij pijn"/>
                  </coding>
               </asNeededCodeableConcept>
               <route>
                  <coding>
                     <system value="urn:oid:2.16.840.1.113883.2.4.4.9"/>
                     <code value="9"/>
                     <display value="oraal"/>
                  </coding>
               </route>
               <doseAndRate>
                  <doseQuantity>
                     <extension url="http://hl7.org/fhir/StructureDefinition/iso21090-PQ-translation">
                        <valueQuantity>
                           <value value="2"/>
                           <unit value="Stuks"/>
                           <system value="urn:oid:2.16.840.1.113883.2.4.4.1.900.2"/>
                           <code value="245"/>
                        </valueQuantity>
                     </extension>
                     <value value="2"/>
                     <unit value="Stuks"/>
                     <system value="http://unitsofmeasure.org"/>
                     <code value="1"/>
                  </doseQuantity>
               </doseAndRate>
               <maxDosePerPeriod>
                  <numerator>
                     <extension url="http://hl7.org/fhir/StructureDefinition/iso21090-PQ-translation">
                        <valueQuantity>
                           <value value="6"/>
                           <unit value="Stuk"/>
                           <system value="urn:oid:2.16.840.1.113883.2.4.4.1.900.2"/>
                           <code value="245"/>
                        </valueQuantity>
                     </extension>
                     <value value="6"/>
                     <unit value="Stuk"/>
                     <system value="http://unitsofmeasure.org"/>
                     <code value="1"/>
                  </numerator>
                  <denominator>
                     <value value="1"/>
                     <unit value="dag"/>
                     <system value="http://unitsofmeasure.org"/>
                     <code value="d"/>
                  </denominator>
               </maxDosePerPeriod>
            </dosageInstruction>
            <dosageInstruction>
               <sequence value="2"/>
               <additionalInstruction>
                  <coding>
                     <system value="http://terminology.hl7.org/CodeSystem/v3-NullFlavor"/>
                     <code value="OTH"/>
                     <display value="overig"/>
                  </coding>
                  <text value="vóór het eten"/>
               </additionalInstruction>
               <timing>
                  <repeat>
                     <boundsDuration>
                        <value value="7"/>
                        <unit value="dag"/>
                        <system value="http://unitsofmeasure.org"/>
                        <code value="d"/>
                     </boundsDuration>
                     <frequency value="3"/>
                     <period value="1"/>
                     <periodUnit value="d"/>
                  </repeat>
               </timing>
               <route>
                  <coding>
                     <system value="urn:oid:2.16.840.1.113883.2.4.4.9"/>
                     <code value="9"/>
                     <display value="oraal"/>
                  </coding>
               </route>
               <doseAndRate>
                  <doseQuantity>
                     <extension url="http://hl7.org/fhir/StructureDefinition/iso21090-PQ-translation">
                        <valueQuantity>
                           <value value="1"/>
                           <unit value="Stuk"/>
                           <system value="urn:oid:2.16.840.1.113883.2.4.4.1.900.2"/>
                           <code value="245"/>
                        </valueQuantity>
                     </extension>
                     <value value="1"/>
                     <unit value="Stuk"/>
                     <system value="http://unitsofmeasure.org"/>
                     <code value="1"/>
                  </doseQuantity>
               </doseAndRate>
            </dosageInstruction>
            <dosageInstruction>
               <sequence value="2"/>
               <additionalInstruction>
                  <coding>
                     <system value="http://terminology.hl7.org/CodeSystem/v3-NullFlavor"/>
                     <code value="OTH"/>
                     <display value="overig"/>
                  </coding>
                  <text value="vóór het eten"/>
               </additionalInstruction>
               <timing>
                  <repeat>
                     <boundsDuration>
                        <value value="7"/>
                        <unit value="dag"/>
                        <system value="http://unitsofmeasure.org"/>
                        <code value="d"/>
                     </boundsDuration>
                     <frequency value="1"/>
                     <period value="1"/>
                     <periodUnit value="d"/>
                  </repeat>
               </timing>
               <asNeededCodeableConcept>
                  <coding>
                     <system value="https://referentiemodel.nhg.org/tabellen/nhg-tabel-25-gebruiksvoorschrift#aanvullend-numeriek"/>
                     <code value="1028"/>
                     <display value="Bij pijn"/>
                  </coding>
               </asNeededCodeableConcept>
               <route>
                  <coding>
                     <system value="urn:oid:2.16.840.1.113883.2.4.4.9"/>
                     <code value="9"/>
                     <display value="oraal"/>
                  </coding>
               </route>
               <doseAndRate>
                  <doseQuantity>
                     <extension url="http://hl7.org/fhir/StructureDefinition/iso21090-PQ-translation">
                        <valueQuantity>
                           <value value="1"/>
                           <unit value="Stuks"/>
                           <system value="urn:oid:2.16.840.1.113883.2.4.4.1.900.2"/>
                           <code value="245"/>
                        </valueQuantity>
                     </extension>
                     <value value="1"/>
                     <unit value="Stuks"/>
                     <system value="http://unitsofmeasure.org"/>
                     <code value="1"/>
                  </doseQuantity>
               </doseAndRate>
               <maxDosePerPeriod>
                  <numerator>
                     <extension url="http://hl7.org/fhir/StructureDefinition/iso21090-PQ-translation">
                        <valueQuantity>
                           <value value="4"/>
                           <unit value="Stuk"/>
                           <system value="urn:oid:2.16.840.1.113883.2.4.4.1.900.2"/>
                           <code value="245"/>
                        </valueQuantity>
                     </extension>
                     <value value="4"/>
                     <unit value="Stuk"/>
                     <system value="http://unitsofmeasure.org"/>
                     <code value="1"/>
                  </numerator>
                  <denominator>
                     <value value="1"/>
                     <unit value="dag"/>
                     <system value="http://unitsofmeasure.org"/>
                     <code value="d"/>
                  </denominator>
               </maxDosePerPeriod>
            </dosageInstruction>
         </MedicationRequest>
      </resource>
      <search>
         <mode value="match"/>
      </search>
   </entry>
   <entry>
      <fullUrl value="urn:uuid:57685895-c2ac-11ef-1851-020000000000"/>
      <resource>
         <MedicationRequest>
            <meta>
               <profile value="http://nictiz.nl/fhir/StructureDefinition/mp-DispenseRequest"/>
            </meta>
            <extension url="http://nictiz.nl/fhir/StructureDefinition/ext-PharmaceuticalTreatment.Identifier">
               <valueIdentifier>
                  <system value="urn:oid:2.16.840.1.113883.2.4.3.11.999.77.1.1"/>
                  <value value="MBH_300_script4"/>
               </valueIdentifier>
            </extension>
            <identifier>
               <system value="urn:oid:2.16.840.1.113883.2.4.3.11.999.77.52711000146108.1"/>
               <value value="MBH_300_script4_VV"/>
            </identifier>
            <status value="unknown"/>
            <intent value="order"/>
            <category>
               <coding>
                  <system value="http://snomed.info/sct"/>
                  <code value="52711000146108"/>
                  <display value="verstrekkingsverzoek"/>
               </coding>
            </category>
            <medicationReference>
               <reference value="urn:uuid:5768595d-c2ac-11ef-1851-020000000000"/>
               <type value="Medication"/>
               <display value="DICLOFENAC-NATRIUM TABLET MSR 25MG"/>
            </medicationReference>
            <subject>
               <reference value="urn:uuid:576856ab-c2ac-11ef-1851-020000000000"/>
               <type value="Patient"/>
               <display value="Patient, T. (Themanager) XXX_Braak"/>
            </subject>
            <authoredOn value="2022-12-26T11:30:00+01:00"/>
            <requester>
               <reference value="urn:uuid:5768570f-c2ac-11ef-1851-020000000000"/>
               <type value="PractitionerRole"/>
               <display value="Healthcare professional (role), Peter van Pulver, Huisartsen, niet nader gespecificeerd, Huisartsenpraktijk Pulver &amp; Partners"/>
            </requester>
            <performer>
               <reference value="urn:uuid:576857a5-c2ac-11ef-1851-020000000000"/>
               <type value="Organization"/>
               <display value="Healthcare provider (organization), Apotheek De Gulle Gaper"/>
            </performer>
            <basedOn>
               <type value="MedicationRequest"/>
               <identifier>
                  <system value="urn:oid:2.16.840.1.113883.2.4.3.11.999.77.16076005.1"/>
                  <value value="MBH_300_script4_MA"/>
               </identifier>
               <display value="relatie naar medicatieafspraak  met identificatie: MBH_300_script4_MA || 2.16.840.1.113883.2.4.3.11.999.77.16076005.1"/>
            </basedOn>
            <dispenseRequest>
               <quantity>
                  <extension url="http://hl7.org/fhir/StructureDefinition/iso21090-PQ-translation">
                     <valueQuantity>
                        <value value="56"/>
                        <unit value="stuk"/>
                        <system value="urn:oid:2.16.840.1.113883.2.4.4.1.900.2"/>
                        <code value="245"/>
                     </valueQuantity>
                  </extension>
                  <value value="56"/>
                  <unit value="stuk"/>
                  <system value="http://unitsofmeasure.org"/>
                  <code value="1"/>
               </quantity>
            </dispenseRequest>
         </MedicationRequest>
      </resource>
      <search>
         <mode value="match"/>
      </search>
   </entry>
   <entry>
      <fullUrl value="urn:uuid:576858a9-c2ac-11ef-1851-020000000000"/>
      <resource>
         <MedicationDispense>
            <meta>
               <profile value="http://nictiz.nl/fhir/StructureDefinition/mp-AdministrationAgreement"/>
            </meta>
            <extension url="http://nictiz.nl/fhir/StructureDefinition/ext-RegistrationDateTime">
               <valueDateTime value="2022-12-26T11:40:00+01:00"/>
            </extension>
            <extension url="http://nictiz.nl/fhir/StructureDefinition/ext-RenderedDosageInstruction">
               <valueString value="eerst gedurende 3 dagen elke dag om 08:00 en 22:00 2 stuks, dan gedurende 7 dagen elke dag om 08:00, 14:00 en 22:00 1 stuk, vóór het eten, oraal"/>
            </extension>
            <extension url="http://nictiz.nl/fhir/StructureDefinition/ext-TimeInterval.Period">
               <valuePeriod>
                  <extension url="http://nictiz.nl/fhir/StructureDefinition/ext-TimeInterval.Duration">
                     <valueDuration>
                        <value value="10"/>
                        <unit value="dag"/>
                        <system value="http://unitsofmeasure.org"/>
                        <code value="d"/>
                     </valueDuration>
                  </extension>
                  <start value="2022-12-26T11:30:00+01:00"/>
               </valuePeriod>
            </extension>
            <extension url="http://nictiz.nl/fhir/StructureDefinition/ext-PharmaceuticalTreatment.Identifier">
               <valueIdentifier>
                  <system value="urn:oid:2.16.840.1.113883.2.4.3.11.999.77.1.1"/>
                  <value value="MBH_300_script4"/>
               </valueIdentifier>
            </extension>
            <extension url="http://nictiz.nl/fhir/StructureDefinition/ext-MedicationDispense.DistributionForm">
               <valueCodeableConcept>
                  <coding>
                     <system value="urn:oid:2.16.840.1.113883.2.4.3.11.60.20.77.5.3.8"/>
                     <code value="1"/>
                     <display value="GDS"/>
                  </coding>
               </valueCodeableConcept>
            </extension>
            <identifier>
               <system value="urn:oid:2.16.840.1.113883.2.4.3.11.999.77.422037009.1"/>
               <value value="MBH_300_script4_TA_GDS"/>
            </identifier>
            <status value="unknown"/>
            <category>
               <coding>
                  <system value="http://snomed.info/sct"/>
                  <code value="422037009"/>
                  <display value="toedieningsafspraak"/>
               </coding>
            </category>
            <medicationReference>
               <reference value="urn:uuid:57685971-c2ac-11ef-1851-020000000000"/>
               <type value="Medication"/>
               <display value="DICLOFENAC NATRIUM AUROBINDO TABLET MSR 25MG"/>
            </medicationReference>
            <subject>
               <reference value="urn:uuid:576856ab-c2ac-11ef-1851-020000000000"/>
               <type value="Patient"/>
               <display value="Patient, T. (Themanager) XXX_Braak"/>
            </subject>
            <performer>
               <actor>
                  <reference value="urn:uuid:576857a5-c2ac-11ef-1851-020000000000"/>
                  <type value="Organization"/>
                  <display value="Healthcare provider (organization), Apotheek De Gulle Gaper"/>
               </actor>
            </performer>
            <authorizingPrescription>
               <type value="MedicationRequest"/>
               <identifier>
                  <system value="urn:oid:2.16.840.1.113883.2.4.3.11.999.77.16076005.1"/>
                  <value value="MBH_300_script4_MA"/>
               </identifier>
               <display value="relatie naar medicatieafspraak met identificatie: MBH_300_script4_MA || 2.16.840.1.113883.2.4.3.11.999.77.16076005.1"/>
            </authorizingPrescription>
            <note>
               <text value="zo nodig medicatie wordt los verstrekt."/>
            </note>
            <dosageInstruction>
               <sequence value="1"/>
               <additionalInstruction>
                  <coding>
                     <system value="http://terminology.hl7.org/CodeSystem/v3-NullFlavor"/>
                     <code value="OTH"/>
                     <display value="overig"/>
                  </coding>
                  <text value="vóór het eten"/>
               </additionalInstruction>
               <timing>
                  <repeat>
                     <boundsDuration>
                        <value value="3"/>
                        <unit value="dag"/>
                        <system value="http://unitsofmeasure.org"/>
                        <code value="d"/>
                     </boundsDuration>
                     <timeOfDay value="08:00:00"/>
                     <timeOfDay value="22:00:00"/>
                  </repeat>
               </timing>
               <route>
                  <coding>
                     <system value="urn:oid:2.16.840.1.113883.2.4.4.9"/>
                     <code value="9"/>
                     <display value="oraal"/>
                  </coding>
               </route>
               <doseAndRate>
                  <doseQuantity>
                     <extension url="http://hl7.org/fhir/StructureDefinition/iso21090-PQ-translation">
                        <valueQuantity>
                           <value value="2"/>
                           <unit value="stuk"/>
                           <system value="urn:oid:2.16.840.1.113883.2.4.4.1.900.2"/>
                           <code value="245"/>
                        </valueQuantity>
                     </extension>
                     <value value="2"/>
                     <unit value="stuk"/>
                     <system value="http://unitsofmeasure.org"/>
                     <code value="1"/>
                  </doseQuantity>
               </doseAndRate>
            </dosageInstruction>
            <dosageInstruction>
               <sequence value="2"/>
               <additionalInstruction>
                  <coding>
                     <system value="http://terminology.hl7.org/CodeSystem/v3-NullFlavor"/>
                     <code value="OTH"/>
                     <display value="overig"/>
                  </coding>
                  <text value="vóór het eten"/>
               </additionalInstruction>
               <timing>
                  <repeat>
                     <boundsDuration>
                        <value value="7"/>
                        <unit value="dag"/>
                        <system value="http://unitsofmeasure.org"/>
                        <code value="d"/>
                     </boundsDuration>
                     <timeOfDay value="08:00:00"/>
                     <timeOfDay value="14:00:00"/>
                     <timeOfDay value="22:00:00"/>
                  </repeat>
               </timing>
               <route>
                  <coding>
                     <system value="urn:oid:2.16.840.1.113883.2.4.4.9"/>
                     <code value="9"/>
                     <display value="oraal"/>
                  </coding>
               </route>
               <doseAndRate>
                  <doseQuantity>
                     <extension url="http://hl7.org/fhir/StructureDefinition/iso21090-PQ-translation">
                        <valueQuantity>
                           <value value="1"/>
                           <unit value="stuk"/>
                           <system value="urn:oid:2.16.840.1.113883.2.4.4.1.900.2"/>
                           <code value="245"/>
                        </valueQuantity>
                     </extension>
                     <value value="1"/>
                     <unit value="stuk"/>
                     <system value="http://unitsofmeasure.org"/>
                     <code value="1"/>
                  </doseQuantity>
               </doseAndRate>
            </dosageInstruction>
         </MedicationDispense>
      </resource>
      <search>
         <mode value="match"/>
      </search>
   </entry>
   <entry>
      <fullUrl value="urn:uuid:576858bd-c2ac-11ef-1851-020000000000"/>
      <resource>
         <MedicationDispense>
            <meta>
               <profile value="http://nictiz.nl/fhir/StructureDefinition/mp-AdministrationAgreement"/>
            </meta>
            <extension url="http://nictiz.nl/fhir/StructureDefinition/ext-RegistrationDateTime">
               <valueDateTime value="2022-12-26T11:40:01+01:00"/>
            </extension>
            <extension url="http://nictiz.nl/fhir/StructureDefinition/ext-RenderedDosageInstruction">
               <valueString value="eerst gedurende 3 dagen Bij pijn elke dag om 14:00 2 stuks , maximaal 6 stuks per dag, dan gedurende 7 dagen Bij pijn elke dag om 14:00 1 stuk , maximaal 4 stuks per dag, vóór het eten, oraal"/>
            </extension>
            <extension url="http://nictiz.nl/fhir/StructureDefinition/ext-TimeInterval.Period">
               <valuePeriod>
                  <extension url="http://nictiz.nl/fhir/StructureDefinition/ext-TimeInterval.Duration">
                     <valueDuration>
                        <value value="10"/>
                        <unit value="dag"/>
                        <system value="http://unitsofmeasure.org"/>
                        <code value="d"/>
                     </valueDuration>
                  </extension>
                  <start value="2022-12-26T11:30:00+01:00"/>
               </valuePeriod>
            </extension>
            <extension url="http://nictiz.nl/fhir/StructureDefinition/ext-PharmaceuticalTreatment.Identifier">
               <valueIdentifier>
                  <system value="urn:oid:2.16.840.1.113883.2.4.3.11.999.77.1.1"/>
                  <value value="MBH_300_script4"/>
               </valueIdentifier>
            </extension>
            <identifier>
               <system value="urn:oid:2.16.840.1.113883.2.4.3.11.999.77.422037009.1"/>
               <value value="MBH_300_script4_TA_los"/>
            </identifier>
            <status value="unknown"/>
            <category>
               <coding>
                  <system value="http://snomed.info/sct"/>
                  <code value="422037009"/>
                  <display value="toedieningsafspraak"/>
               </coding>
            </category>
            <medicationReference>
               <reference value="urn:uuid:57685971-c2ac-11ef-1851-020000000000"/>
               <type value="Medication"/>
               <display value="DICLOFENAC NATRIUM AUROBINDO TABLET MSR 25MG"/>
            </medicationReference>
            <subject>
               <reference value="urn:uuid:576856ab-c2ac-11ef-1851-020000000000"/>
               <type value="Patient"/>
               <display value="Patient, T. (Themanager) XXX_Braak"/>
            </subject>
            <performer>
               <actor>
                  <reference value="urn:uuid:576857a5-c2ac-11ef-1851-020000000000"/>
                  <type value="Organization"/>
                  <display value="Healthcare provider (organization), Apotheek De Gulle Gaper"/>
               </actor>
            </performer>
            <authorizingPrescription>
               <type value="MedicationRequest"/>
               <identifier>
                  <system value="urn:oid:2.16.840.1.113883.2.4.3.11.999.77.16076005.1"/>
                  <value value="MBH_300_script4_MA"/>
               </identifier>
               <display value="relatie naar medicatieafspraak met identificatie: MBH_300_script4_MA || 2.16.840.1.113883.2.4.3.11.999.77.16076005.1"/>
            </authorizingPrescription>
            <dosageInstruction>
               <sequence value="1"/>
               <additionalInstruction>
                  <coding>
                     <system value="http://terminology.hl7.org/CodeSystem/v3-NullFlavor"/>
                     <code value="OTH"/>
                     <display value="overig"/>
                  </coding>
                  <text value="vóór het eten"/>
               </additionalInstruction>
               <timing>
                  <repeat>
                     <boundsDuration>
                        <value value="3"/>
                        <unit value="dag"/>
                        <system value="http://unitsofmeasure.org"/>
                        <code value="d"/>
                     </boundsDuration>
                     <timeOfDay value="14:00:00"/>
                  </repeat>
               </timing>
               <asNeededCodeableConcept>
                  <coding>
                     <system value="https://referentiemodel.nhg.org/tabellen/nhg-tabel-25-gebruiksvoorschrift#aanvullend-numeriek"/>
                     <code value="1028"/>
                     <display value="Bij pijn"/>
                  </coding>
               </asNeededCodeableConcept>
               <route>
                  <coding>
                     <system value="urn:oid:2.16.840.1.113883.2.4.4.9"/>
                     <code value="9"/>
                     <display value="oraal"/>
                  </coding>
               </route>
               <doseAndRate>
                  <doseQuantity>
                     <extension url="http://hl7.org/fhir/StructureDefinition/iso21090-PQ-translation">
                        <valueQuantity>
                           <value value="2"/>
                           <unit value="Stuk"/>
                           <system value="urn:oid:2.16.840.1.113883.2.4.4.1.900.2"/>
                           <code value="245"/>
                        </valueQuantity>
                     </extension>
                     <value value="2"/>
                     <unit value="Stuk"/>
                     <system value="http://unitsofmeasure.org"/>
                     <code value="1"/>
                  </doseQuantity>
               </doseAndRate>
               <maxDosePerPeriod>
                  <numerator>
                     <extension url="http://hl7.org/fhir/StructureDefinition/iso21090-PQ-translation">
                        <valueQuantity>
                           <value value="6"/>
                           <unit value="stuks"/>
                           <system value="urn:oid:2.16.840.1.113883.2.4.4.1.900.2"/>
                           <code value="245"/>
                        </valueQuantity>
                     </extension>
                     <value value="6"/>
                     <unit value="stuks"/>
                     <system value="http://unitsofmeasure.org"/>
                     <code value="1"/>
                  </numerator>
                  <denominator>
                     <value value="1"/>
                     <unit value="dag"/>
                     <system value="http://unitsofmeasure.org"/>
                     <code value="d"/>
                  </denominator>
               </maxDosePerPeriod>
            </dosageInstruction>
            <dosageInstruction>
               <sequence value="2"/>
               <additionalInstruction>
                  <coding>
                     <system value="http://terminology.hl7.org/CodeSystem/v3-NullFlavor"/>
                     <code value="OTH"/>
                     <display value="overig"/>
                  </coding>
                  <text value="vóór het eten"/>
               </additionalInstruction>
               <timing>
                  <repeat>
                     <boundsDuration>
                        <value value="7"/>
                        <unit value="dag"/>
                        <system value="http://unitsofmeasure.org"/>
                        <code value="d"/>
                     </boundsDuration>
                     <timeOfDay value="14:00:00"/>
                  </repeat>
               </timing>
               <asNeededCodeableConcept>
                  <coding>
                     <system value="https://referentiemodel.nhg.org/tabellen/nhg-tabel-25-gebruiksvoorschrift#aanvullend-numeriek"/>
                     <code value="1028"/>
                     <display value="Bij pijn"/>
                  </coding>
               </asNeededCodeableConcept>
               <route>
                  <coding>
                     <system value="urn:oid:2.16.840.1.113883.2.4.4.9"/>
                     <code value="9"/>
                     <display value="oraal"/>
                  </coding>
               </route>
               <doseAndRate>
                  <doseQuantity>
                     <extension url="http://hl7.org/fhir/StructureDefinition/iso21090-PQ-translation">
                        <valueQuantity>
                           <value value="1"/>
                           <unit value="Stuk"/>
                           <system value="urn:oid:2.16.840.1.113883.2.4.4.1.900.2"/>
                           <code value="245"/>
                        </valueQuantity>
                     </extension>
                     <value value="1"/>
                     <unit value="Stuk"/>
                     <system value="http://unitsofmeasure.org"/>
                     <code value="1"/>
                  </doseQuantity>
               </doseAndRate>
               <maxDosePerPeriod>
                  <numerator>
                     <extension url="http://hl7.org/fhir/StructureDefinition/iso21090-PQ-translation">
                        <valueQuantity>
                           <value value="4"/>
                           <unit value="Stuk"/>
                           <system value="urn:oid:2.16.840.1.113883.2.4.4.1.900.2"/>
                           <code value="245"/>
                        </valueQuantity>
                     </extension>
                     <value value="4"/>
                     <unit value="Stuk"/>
                     <system value="http://unitsofmeasure.org"/>
                     <code value="1"/>
                  </numerator>
                  <denominator>
                     <value value="1"/>
                     <unit value="dag"/>
                     <system value="http://unitsofmeasure.org"/>
                     <code value="d"/>
                  </denominator>
               </maxDosePerPeriod>
            </dosageInstruction>
         </MedicationDispense>
      </resource>
      <search>
         <mode value="match"/>
      </search>
   </entry>
   <entry>
      <fullUrl value="urn:uuid:576858d1-c2ac-11ef-1851-020000000000"/>
      <resource>
         <MedicationDispense>
            <meta>
               <profile value="http://nictiz.nl/fhir/StructureDefinition/mp-MedicationDispense"/>
            </meta>
            <extension url="http://nictiz.nl/fhir/StructureDefinition/ext-MedicationDispense.RequestDate">
               <valueDateTime value="2022-12-26T11:40:00+01:00"/>
            </extension>
            <extension url="http://nictiz.nl/fhir/StructureDefinition/ext-MedicationDispense.DistributionForm">
               <valueCodeableConcept>
                  <coding>
                     <system value="urn:oid:2.16.840.1.113883.2.4.3.11.60.20.77.5.3.8"/>
                     <code value="1"/>
                     <display value="GDS"/>
                  </coding>
               </valueCodeableConcept>
            </extension>
            <extension url="http://nictiz.nl/fhir/StructureDefinition/ext-PharmaceuticalTreatment.Identifier">
               <valueIdentifier>
                  <system value="urn:oid:2.16.840.1.113883.2.4.3.11.999.77.1.1"/>
                  <value value="MBH_300_script4"/>
               </valueIdentifier>
            </extension>
            <identifier>
               <system value="urn:oid:2.16.840.1.113883.2.4.3.11.999.77.373784005.1"/>
               <value value="MBH_300_script4_MVE_GDS"/>
            </identifier>
            <status value="completed"/>
            <category>
               <coding>
                  <system value="http://snomed.info/sct"/>
                  <code value="373784005"/>
                  <display value="verstrekken van medicatie"/>
               </coding>
            </category>
            <medicationReference>
               <reference value="urn:uuid:57685971-c2ac-11ef-1851-020000000000"/>
               <type value="Medication"/>
               <display value="DICLOFENAC NATRIUM AUROBINDO TABLET MSR 25MG"/>
            </medicationReference>
            <subject>
               <reference value="urn:uuid:576856ab-c2ac-11ef-1851-020000000000"/>
               <type value="Patient"/>
               <display value="Patient, T. (Themanager) XXX_Braak"/>
            </subject>
            <performer>
               <actor>
                  <reference value="urn:uuid:576857a5-c2ac-11ef-1851-020000000000"/>
                  <type value="Organization"/>
                  <display value="Healthcare provider (organization), Apotheek De Gulle Gaper"/>
               </actor>
            </performer>
            <authorizingPrescription>
               <type value="MedicationRequest"/>
               <identifier>
                  <system value="urn:oid:2.16.840.1.113883.2.4.3.11.999.77.52711000146108.1"/>
                  <value value="MBH_300_script4_VV"/>
               </identifier>
               <display value="relatie naar verstrekkingsverzoek met identificatie: MBH_300_script4_VV || 2.16.840.1.113883.2.4.3.11.999.77.52711000146108.1"/>
            </authorizingPrescription>
            <quantity>
               <extension url="http://hl7.org/fhir/StructureDefinition/iso21090-PQ-translation">
                  <valueQuantity>
                     <value value="39"/>
                     <unit value="stuk"/>
                     <system value="urn:oid:2.16.840.1.113883.2.4.4.1.900.2"/>
                     <code value="245"/>
                  </valueQuantity>
               </extension>
               <value value="39"/>
               <unit value="stuk"/>
               <system value="http://unitsofmeasure.org"/>
               <code value="1"/>
            </quantity>
            <whenHandedOver value="2022-12-26T11:40:00+01:00"/>
         </MedicationDispense>
      </resource>
      <search>
         <mode value="match"/>
      </search>
   </entry>
   <entry>
      <fullUrl value="urn:uuid:576858e5-c2ac-11ef-1851-020000000000"/>
      <resource>
         <MedicationDispense>
            <meta>
               <profile value="http://nictiz.nl/fhir/StructureDefinition/mp-MedicationDispense"/>
            </meta>
            <extension url="http://nictiz.nl/fhir/StructureDefinition/ext-MedicationDispense.RequestDate">
               <valueDateTime value="2022-12-26T11:40:00+01:00"/>
            </extension>
            <extension url="http://nictiz.nl/fhir/StructureDefinition/ext-PharmaceuticalTreatment.Identifier">
               <valueIdentifier>
                  <system value="urn:oid:2.16.840.1.113883.2.4.3.11.999.77.1.1"/>
                  <value value="MBH_300_script4"/>
               </valueIdentifier>
            </extension>
            <identifier>
               <system value="urn:oid:2.16.840.1.113883.2.4.3.11.999.77.373784005.1"/>
               <value value="MBH_300_script4_MVE_los"/>
            </identifier>
            <status value="completed"/>
            <category>
               <coding>
                  <system value="http://snomed.info/sct"/>
                  <code value="373784005"/>
                  <display value="verstrekken van medicatie"/>
               </coding>
            </category>
            <medicationReference>
               <reference value="urn:uuid:57685971-c2ac-11ef-1851-020000000000"/>
               <type value="Medication"/>
               <display value="DICLOFENAC NATRIUM AUROBINDO TABLET MSR 25MG"/>
            </medicationReference>
            <subject>
               <reference value="urn:uuid:576856ab-c2ac-11ef-1851-020000000000"/>
               <type value="Patient"/>
               <display value="Patient, T. (Themanager) XXX_Braak"/>
            </subject>
            <performer>
               <actor>
                  <reference value="urn:uuid:576857a5-c2ac-11ef-1851-020000000000"/>
                  <type value="Organization"/>
                  <display value="Healthcare provider (organization), Apotheek De Gulle Gaper"/>
               </actor>
            </performer>
            <authorizingPrescription>
               <type value="MedicationRequest"/>
               <identifier>
                  <system value="urn:oid:2.16.840.1.113883.2.4.3.11.999.77.52711000146108.1"/>
                  <value value="MBH_300_script4_VV"/>
               </identifier>
               <display value="relatie naar verstrekkingsverzoek met identificatie: MBH_300_script4_VV || 2.16.840.1.113883.2.4.3.11.999.77.52711000146108.1"/>
            </authorizingPrescription>
            <quantity>
               <extension url="http://hl7.org/fhir/StructureDefinition/iso21090-PQ-translation">
                  <valueQuantity>
                     <value value="13"/>
                     <unit value="stuks"/>
                     <system value="urn:oid:2.16.840.1.113883.2.4.4.1.900.2"/>
                     <code value="245"/>
                  </valueQuantity>
               </extension>
               <value value="13"/>
               <unit value="stuks"/>
               <system value="http://unitsofmeasure.org"/>
               <code value="1"/>
            </quantity>
            <whenHandedOver value="2022-12-26T11:40:01+01:00"/>
            <destination>
               <reference value="urn:uuid:576858f9-c2ac-11ef-1851-020000000000"/>
               <type value="Location"/>
               <display value="afleverlocatie"/>
            </destination>
            <note>
               <text value="Let op, kloppen. De bel doet het niet."/>
            </note>
         </MedicationDispense>
      </resource>
      <search>
         <mode value="match"/>
      </search>
   </entry>
   <entry>
      <fullUrl value="urn:uuid:5768590d-c2ac-11ef-1851-020000000000"/>
      <resource>
         <MedicationAdministration>
            <meta>
               <profile value="http://nictiz.nl/fhir/StructureDefinition/mp-MedicationAdministration2"/>
            </meta>
            <extension url="http://nictiz.nl/fhir/StructureDefinition/ext-RegistrationDateTime">
               <valueDateTime value="2022-12-30T22:25:10+01:00"/>
            </extension>
            <extension url="http://nictiz.nl/fhir/StructureDefinition/ext-PharmaceuticalTreatment.Identifier">
               <valueIdentifier>
                  <system value="urn:oid:2.16.840.1.113883.2.4.3.11.999.77.1.1"/>
                  <value value="MBH_300_script4"/>
               </valueIdentifier>
            </extension>
            <identifier>
               <system value="urn:oid:2.16.840.1.113883.2.4.3.11.999.77.18629005.1"/>
               <value value="MBH_300_script4_MTD1"/>
            </identifier>
            <status value="unknown"/>
            <category>
               <coding>
                  <system value="http://snomed.info/sct"/>
                  <code value="18629005"/>
                  <display value="toediening van medicatie"/>
               </coding>
            </category>
            <medicationReference>
               <reference value="urn:uuid:57685971-c2ac-11ef-1851-020000000000"/>
               <type value="Medication"/>
               <display value="DICLOFENAC NATRIUM AUROBINDO TABLET MSR 25MG"/>
            </medicationReference>
            <subject>
               <reference value="urn:uuid:576856ab-c2ac-11ef-1851-020000000000"/>
               <type value="Patient"/>
               <display value="Patient, T. (Themanager) XXX_Braak"/>
            </subject>
            <supportingInformation>
               <type value="MedicationDispense"/>
               <identifier>
                  <system value="urn:oid:2.16.840.1.113883.2.4.3.11.999.77.422037009.1"/>
                  <value value="MBH_300_script4_TA_GDS"/>
               </identifier>
               <display value="relatie naar toedieningsafspraak met identificatie: MBH_300_script4_TA_GDS || 2.16.840.1.113883.2.4.3.11.999.77.422037009.1"/>
            </supportingInformation>
            <effectiveDateTime value="2022-12-30T22:24:01+01:00"/>
            <performer>
               <actor>
                  <reference value="urn:uuid:57685755-c2ac-11ef-1851-020000000000"/>
                  <type value="PractitionerRole"/>
                  <display value="Healthcare professional (role), Tanja de Bakker, Trombosediensten, Trombosedienst Ons Dorp"/>
               </actor>
            </performer>
            <request>
               <extension url="http://nictiz.nl/fhir/StructureDefinition/ext-ResourceCategory">
                  <valueCodeableConcept>
                     <coding>
                        <system value="http://snomed.info/sct"/>
                        <code value="33633005"/>
                        <display value="voorschrijven"/>
                     </coding>
                  </valueCodeableConcept>
               </extension>
               <type value="MedicationRequest"/>
               <identifier>
                  <system value="urn:oid:2.16.840.1.113883.2.4.3.11.999.77.16076005.1"/>
                  <value value="MBH_300_script4_MA"/>
               </identifier>
               <display value="relatie naar medicatieafspraak met identificatie: MBH_300_script4_MA || 2.16.840.1.113883.2.4.3.11.999.77.16076005.1"/>
            </request>
            <dosage>
               <route>
                  <coding>
                     <system value="urn:oid:2.16.840.1.113883.2.4.4.9"/>
                     <code value="9"/>
                     <display value="oraal"/>
                  </coding>
               </route>
               <dose>
                  <extension url="http://hl7.org/fhir/StructureDefinition/iso21090-PQ-translation">
                     <valueQuantity>
                        <value value="2"/>
                        <unit value="stuks"/>
                        <system value="urn:oid:2.16.840.1.113883.2.4.4.1.900.2"/>
                        <code value="245"/>
                     </valueQuantity>
                  </extension>
                  <value value="2"/>
                  <unit value="stuks"/>
                  <system value="http://unitsofmeasure.org"/>
                  <code value="1"/>
               </dose>
            </dosage>
         </MedicationAdministration>
      </resource>
      <search>
         <mode value="match"/>
      </search>
   </entry>
   <entry>
      <fullUrl value="urn:uuid:57685921-c2ac-11ef-1851-020000000000"/>
      <resource>
         <MedicationAdministration>
            <meta>
               <profile value="http://nictiz.nl/fhir/StructureDefinition/mp-MedicationAdministration2"/>
            </meta>
            <extension url="http://nictiz.nl/fhir/StructureDefinition/ext-RegistrationDateTime">
               <valueDateTime value="2022-12-31T08:15:50+01:00"/>
            </extension>
            <extension url="http://nictiz.nl/fhir/StructureDefinition/ext-MedicationAdministration2.ReasonForDeviation">
               <valueCodeableConcept>
                  <coding>
                     <system value="http://snomed.info/sct"/>
                     <code value="406149000"/>
                     <display value="toediening van medicatie geweigerd"/>
                  </coding>
               </valueCodeableConcept>
            </extension>
            <extension url="http://nictiz.nl/fhir/StructureDefinition/ext-PharmaceuticalTreatment.Identifier">
               <valueIdentifier>
                  <system value="urn:oid:2.16.840.1.113883.2.4.3.11.999.77.1.1"/>
                  <value value="MBH_300_script4"/>
               </valueIdentifier>
            </extension>
            <identifier>
               <system value="urn:oid:2.16.840.1.113883.2.4.3.11.999.77.18629005.1"/>
               <value value="MBH_300_script4_MTD2_GDS"/>
            </identifier>
            <status value="unknown"/>
            <category>
               <coding>
                  <system value="http://snomed.info/sct"/>
                  <code value="18629005"/>
                  <display value="toediening van medicatie"/>
               </coding>
            </category>
            <medicationReference>
               <reference value="urn:uuid:57685971-c2ac-11ef-1851-020000000000"/>
               <type value="Medication"/>
               <display value="DICLOFENAC NATRIUM AUROBINDO TABLET MSR 25MG"/>
            </medicationReference>
            <subject>
               <reference value="urn:uuid:576856ab-c2ac-11ef-1851-020000000000"/>
               <type value="Patient"/>
               <display value="Patient, T. (Themanager) XXX_Braak"/>
            </subject>
            <supportingInformation>
               <type value="MedicationDispense"/>
               <identifier>
                  <system value="urn:oid:2.16.840.1.113883.2.4.3.11.999.77.422037009.1"/>
                  <value value="MBH_300_script4_TA_GDS"/>
               </identifier>
               <display value="relatie naar toedieningsafspraak met identificatie: MBH_300_script4_TA_GDS || 2.16.840.1.113883.2.4.3.11.999.77.422037009.1"/>
            </supportingInformation>
            <effectiveDateTime value="2022-12-31T08:15:00+01:00"/>
            <performer>
               <actor>
                  <reference value="urn:uuid:576856c9-c2ac-11ef-1851-020000000000"/>
                  <type value="PractitionerRole"/>
                  <display value="Healthcare professional (role), Jantien Toedien, Verpleegkundigen, niet nader gespecificeerd, Thuiszorg Om en Bij"/>
               </actor>
            </performer>
            <request>
               <extension url="http://nictiz.nl/fhir/StructureDefinition/ext-ResourceCategory">
                  <valueCodeableConcept>
                     <coding>
                        <system value="http://snomed.info/sct"/>
                        <code value="33633005"/>
                        <display value="voorschrijven"/>
                     </coding>
                  </valueCodeableConcept>
               </extension>
               <type value="MedicationRequest"/>
               <identifier>
                  <system value="urn:oid:2.16.840.1.113883.2.4.3.11.999.77.16076005.1"/>
                  <value value="MBH_300_script4_MA"/>
               </identifier>
               <display value="relatie naar medicatieafspraak met identificatie: MBH_300_script4_MA || 2.16.840.1.113883.2.4.3.11.999.77.16076005.1"/>
            </request>
            <note>
               <text value="deze toediening hoeft niet later ingehaald te worden."/>
            </note>
            <dosage>
               <route>
                  <coding>
                     <system value="urn:oid:2.16.840.1.113883.2.4.4.9"/>
                     <code value="9"/>
                     <display value="oraal"/>
                  </coding>
               </route>
               <dose>
                  <extension url="http://hl7.org/fhir/StructureDefinition/iso21090-PQ-translation">
                     <valueQuantity>
                        <value value="0"/>
                        <unit value="stuks"/>
                        <system value="urn:oid:2.16.840.1.113883.2.4.4.1.900.2"/>
                        <code value="245"/>
                     </valueQuantity>
                  </extension>
                  <value value="0"/>
                  <unit value="stuks"/>
                  <system value="http://unitsofmeasure.org"/>
                  <code value="1"/>
               </dose>
            </dosage>
         </MedicationAdministration>
      </resource>
      <search>
         <mode value="match"/>
      </search>
   </entry>
   <entry>
      <fullUrl value="urn:uuid:57685935-c2ac-11ef-1851-020000000000"/>
      <resource>
         <MedicationAdministration>
            <meta>
               <profile value="http://nictiz.nl/fhir/StructureDefinition/mp-MedicationAdministration2"/>
            </meta>
            <extension url="http://nictiz.nl/fhir/StructureDefinition/ext-RegistrationDateTime">
               <valueDateTime value="2022-12-31T14:05:50+01:00"/>
            </extension>
            <extension url="http://nictiz.nl/fhir/StructureDefinition/ext-PharmaceuticalTreatment.Identifier">
               <valueIdentifier>
                  <system value="urn:oid:2.16.840.1.113883.2.4.3.11.999.77.1.1"/>
                  <value value="MBH_300_script4"/>
               </valueIdentifier>
            </extension>
            <identifier>
               <system value="urn:oid:2.16.840.1.113883.2.4.3.11.999.77.18629005.1"/>
               <value value="MBH_300_script4_MTD3_GDS"/>
            </identifier>
            <status value="unknown"/>
            <category>
               <coding>
                  <system value="http://snomed.info/sct"/>
                  <code value="18629005"/>
                  <display value="toediening van medicatie"/>
               </coding>
            </category>
            <medicationReference>
               <reference value="urn:uuid:57685971-c2ac-11ef-1851-020000000000"/>
               <type value="Medication"/>
               <display value="DICLOFENAC NATRIUM AUROBINDO TABLET MSR 25MG"/>
            </medicationReference>
            <subject>
               <reference value="urn:uuid:576856ab-c2ac-11ef-1851-020000000000"/>
               <type value="Patient"/>
               <display value="Patient, T. (Themanager) XXX_Braak"/>
            </subject>
            <supportingInformation>
               <type value="MedicationDispense"/>
               <identifier>
                  <system value="urn:oid:2.16.840.1.113883.2.4.3.11.999.77.422037009.1"/>
                  <value value="MBH_300_script4_TA_GDS"/>
               </identifier>
               <display value="relatie naar toedieningsafspraak met identificatie: MBH_300_script4_TA_GDS || 2.16.840.1.113883.2.4.3.11.999.77.422037009.1"/>
            </supportingInformation>
            <effectiveDateTime value="2022-12-31T14:05:05+01:00"/>
            <performer>
               <actor>
                  <reference value="urn:uuid:576856c9-c2ac-11ef-1851-020000000000"/>
                  <type value="PractitionerRole"/>
                  <display value="Healthcare professional (role), Jantien Toedien, Verpleegkundigen, niet nader gespecificeerd, Thuiszorg Om en Bij"/>
               </actor>
            </performer>
            <request>
               <extension url="http://nictiz.nl/fhir/StructureDefinition/ext-ResourceCategory">
                  <valueCodeableConcept>
                     <coding>
                        <system value="http://snomed.info/sct"/>
                        <code value="33633005"/>
                        <display value="voorschrijven"/>
                     </coding>
                  </valueCodeableConcept>
               </extension>
               <type value="MedicationRequest"/>
               <identifier>
                  <system value="urn:oid:2.16.840.1.113883.2.4.3.11.999.77.16076005.1"/>
                  <value value="MBH_300_script4_MA"/>
               </identifier>
               <display value="relatie naar medicatieafspraak met identificatie: MBH_300_script4_MA || 2.16.840.1.113883.2.4.3.11.999.77.16076005.1"/>
            </request>
            <dosage>
               <route>
                  <coding>
                     <system value="urn:oid:2.16.840.1.113883.2.4.4.9"/>
                     <code value="9"/>
                     <display value="oraal"/>
                  </coding>
               </route>
               <dose>
                  <extension url="http://hl7.org/fhir/StructureDefinition/iso21090-PQ-translation">
                     <valueQuantity>
                        <value value="1"/>
                        <unit value="stuks"/>
                        <system value="urn:oid:2.16.840.1.113883.2.4.4.1.900.2"/>
                        <code value="245"/>
                     </valueQuantity>
                  </extension>
                  <value value="1"/>
                  <unit value="stuks"/>
                  <system value="http://unitsofmeasure.org"/>
                  <code value="1"/>
               </dose>
            </dosage>
         </MedicationAdministration>
      </resource>
      <search>
         <mode value="match"/>
      </search>
   </entry>
   <entry>
      <fullUrl value="urn:uuid:57685949-c2ac-11ef-1851-020000000000"/>
      <resource>
         <MedicationAdministration>
            <meta>
               <profile value="http://nictiz.nl/fhir/StructureDefinition/mp-MedicationAdministration2"/>
            </meta>
            <extension url="http://nictiz.nl/fhir/StructureDefinition/ext-RegistrationDateTime">
               <valueDateTime value="2022-12-31T14:05:50+01:00"/>
            </extension>
            <extension url="http://nictiz.nl/fhir/StructureDefinition/ext-PharmaceuticalTreatment.Identifier">
               <valueIdentifier>
                  <system value="urn:oid:2.16.840.1.113883.2.4.3.11.999.77.1.1"/>
                  <value value="MBH_300_script4"/>
               </valueIdentifier>
            </extension>
            <identifier>
               <system value="urn:oid:2.16.840.1.113883.2.4.3.11.999.77.18629005.1"/>
               <value value="MBH_300_script4_MTD3_los"/>
            </identifier>
            <status value="unknown"/>
            <category>
               <coding>
                  <system value="http://snomed.info/sct"/>
                  <code value="18629005"/>
                  <display value="toediening van medicatie"/>
               </coding>
            </category>
            <medicationReference>
               <reference value="urn:uuid:57685971-c2ac-11ef-1851-020000000000"/>
               <type value="Medication"/>
               <display value="DICLOFENAC NATRIUM AUROBINDO TABLET MSR 25MG"/>
            </medicationReference>
            <subject>
               <reference value="urn:uuid:576856ab-c2ac-11ef-1851-020000000000"/>
               <type value="Patient"/>
               <display value="Patient, T. (Themanager) XXX_Braak"/>
            </subject>
            <supportingInformation>
               <type value="MedicationDispense"/>
               <identifier>
                  <system value="urn:oid:2.16.840.1.113883.2.4.3.11.999.77.422037009.1"/>
                  <value value="MBH_300_script4_TA_los"/>
               </identifier>
               <display value="relatie naar toedieningsafspraak met identificatie: MBH_300_script4_TA_los || 2.16.840.1.113883.2.4.3.11.999.77.422037009.1"/>
            </supportingInformation>
            <effectiveDateTime value="2022-12-31T14:05:05+01:00"/>
            <performer>
               <actor>
                  <reference value="urn:uuid:576856c9-c2ac-11ef-1851-020000000000"/>
                  <type value="PractitionerRole"/>
                  <display value="Healthcare professional (role), Jantien Toedien, Verpleegkundigen, niet nader gespecificeerd, Thuiszorg Om en Bij"/>
               </actor>
            </performer>
            <request>
               <extension url="http://nictiz.nl/fhir/StructureDefinition/ext-ResourceCategory">
                  <valueCodeableConcept>
                     <coding>
                        <system value="http://snomed.info/sct"/>
                        <code value="33633005"/>
                        <display value="voorschrijven"/>
                     </coding>
                  </valueCodeableConcept>
               </extension>
               <type value="MedicationRequest"/>
               <identifier>
                  <system value="urn:oid:2.16.840.1.113883.2.4.3.11.999.77.16076005.1"/>
                  <value value="MBH_300_script4_MA"/>
               </identifier>
               <display value="relatie naar medicatieafspraak met identificatie: MBH_300_script4_MA || 2.16.840.1.113883.2.4.3.11.999.77.16076005.1"/>
            </request>
            <dosage>
               <route>
                  <coding>
                     <system value="urn:oid:2.16.840.1.113883.2.4.4.9"/>
                     <code value="9"/>
                     <display value="oraal"/>
                  </coding>
               </route>
               <dose>
                  <extension url="http://hl7.org/fhir/StructureDefinition/iso21090-PQ-translation">
                     <valueQuantity>
                        <value value="1"/>
                        <unit value="stuks"/>
                        <system value="urn:oid:2.16.840.1.113883.2.4.4.1.900.2"/>
                        <code value="245"/>
                     </valueQuantity>
                  </extension>
                  <value value="1"/>
                  <unit value="stuks"/>
                  <system value="http://unitsofmeasure.org"/>
                  <code value="1"/>
               </dose>
            </dosage>
         </MedicationAdministration>
      </resource>
      <search>
         <mode value="match"/>
      </search>
   </entry>
   <entry>
      <fullUrl value="urn:uuid:576856ab-c2ac-11ef-1851-020000000000"/>
      <resource>
         <Patient>
            <meta>
               <profile value="http://nictiz.nl/fhir/StructureDefinition/nl-core-Patient"/>
            </meta>
            <identifier>
               <system value="http://fhir.nl/fhir/NamingSystem/bsn"/>
               <value value="999900651"/>
            </identifier>
            <name>
               <extension url="http://hl7.org/fhir/StructureDefinition/humanname-assembly-order">
                  <valueCode value="NL1"/>
               </extension>
               <use value="official"/>
               <text value="T. (Themanager) XXX_Braak"/>
               <family value="XXX_Braak">
                  <extension url="http://hl7.org/fhir/StructureDefinition/humanname-own-name">
                     <valueString value="XXX_Braak"/>
                  </extension>
               </family>
               <given value="T.">
                  <extension url="http://hl7.org/fhir/StructureDefinition/iso21090-EN-qualifier">
                     <valueCode value="IN"/>
                  </extension>
               </given>
            </name>
            <name>
               <use value="usual"/>
               <given value="Themanager"/>
            </name>
            <gender value="female">
               <extension url="http://nictiz.nl/fhir/StructureDefinition/ext-CodeSpecification">
                  <valueCodeableConcept>
                     <coding>
                        <system value="http://terminology.hl7.org/CodeSystem/v3-AdministrativeGender"/>
                        <code value="F"/>
                        <display value="Vrouw"/>
                     </coding>
                  </valueCodeableConcept>
               </extension>
            </gender>
            <birthDate value="1954-07-25"/>
         </Patient>
      </resource>
      <search>
         <mode value="include"/>
      </search>
   </entry>
   <entry>
      <fullUrl value="urn:uuid:576856c9-c2ac-11ef-1851-020000000000"/>
      <resource>
         <PractitionerRole>
            <meta>
               <profile value="http://nictiz.nl/fhir/StructureDefinition/nl-core-HealthProfessional-PractitionerRole"/>
            </meta>
            <practitioner>
               <reference value="urn:uuid:576856e7-c2ac-11ef-1851-020000000000"/>
               <type value="Practitioner"/>
               <display value="Healthcare professional (person), Jantien Toedien"/>
            </practitioner>
            <organization>
               <reference value="urn:uuid:5768581d-c2ac-11ef-1851-020000000000"/>
               <type value="Organization"/>
               <display value="Healthcare provider (organization), Thuiszorg Om en Bij"/>
            </organization>
            <specialty>
               <coding>
                  <system value="urn:oid:2.16.840.1.113883.2.4.6.7"/>
                  <version value="2020-10-23T00:00:00"/>
                  <code value="9100"/>
                  <display value="Verpleegkundigen, niet nader gespecificeerd"/>
               </coding>
            </specialty>
         </PractitionerRole>
      </resource>
      <search>
         <mode value="include"/>
      </search>
   </entry>
   <entry>
      <fullUrl value="urn:uuid:576856e7-c2ac-11ef-1851-020000000000"/>
      <resource>
         <Practitioner>
            <meta>
               <profile value="http://nictiz.nl/fhir/StructureDefinition/nl-core-HealthProfessional-Practitioner"/>
            </meta>
            <identifier>
               <system value="http://fhir.nl/fhir/NamingSystem/uzi-nr-pers"/>
               <value value="222220000"/>
            </identifier>
            <name>
               <use value="official"/>
               <text value="Jantien Toedien"/>
               <family value="Toedien">
                  <extension url="http://hl7.org/fhir/StructureDefinition/humanname-own-name">
                     <valueString value="Toedien"/>
                  </extension>
               </family>
               <given value="Jantien">
                  <extension url="http://hl7.org/fhir/StructureDefinition/iso21090-EN-qualifier">
                     <valueCode value="BR"/>
                  </extension>
               </given>
            </name>
         </Practitioner>
      </resource>
      <search>
         <mode value="include"/>
      </search>
   </entry>
   <entry>
      <fullUrl value="urn:uuid:5768570f-c2ac-11ef-1851-020000000000"/>
      <resource>
         <PractitionerRole>
            <meta>
               <profile value="http://nictiz.nl/fhir/StructureDefinition/nl-core-HealthProfessional-PractitionerRole"/>
            </meta>
            <practitioner>
               <reference value="urn:uuid:5768572d-c2ac-11ef-1851-020000000000"/>
               <type value="Practitioner"/>
               <display value="Healthcare professional (person), Peter van Pulver"/>
            </practitioner>
            <organization>
               <reference value="urn:uuid:576857e1-c2ac-11ef-1851-020000000000"/>
               <type value="Organization"/>
               <display value="Healthcare provider (organization), Huisartsenpraktijk Pulver &amp; Partners"/>
            </organization>
            <specialty>
               <coding>
                  <system value="urn:oid:2.16.840.1.113883.2.4.6.7"/>
                  <version value="2020-10-23T00:00:00"/>
                  <code value="0100"/>
                  <display value="Huisartsen, niet nader gespecificeerd"/>
               </coding>
            </specialty>
         </PractitionerRole>
      </resource>
      <search>
         <mode value="include"/>
      </search>
   </entry>
   <entry>
      <fullUrl value="urn:uuid:5768572d-c2ac-11ef-1851-020000000000"/>
      <resource>
         <Practitioner>
            <meta>
               <profile value="http://nictiz.nl/fhir/StructureDefinition/nl-core-HealthProfessional-Practitioner"/>
            </meta>
            <identifier>
               <system value="http://fhir.nl/fhir/NamingSystem/uzi-nr-pers"/>
               <value value="000001111"/>
            </identifier>
            <name>
               <use value="official"/>
               <text value="Peter van Pulver"/>
               <family value="van Pulver">
                  <extension url="http://hl7.org/fhir/StructureDefinition/humanname-own-prefix">
                     <valueString value="van"/>
                  </extension>
                  <extension url="http://hl7.org/fhir/StructureDefinition/humanname-own-name">
                     <valueString value="Pulver"/>
                  </extension>
               </family>
               <given value="Peter">
                  <extension url="http://hl7.org/fhir/StructureDefinition/iso21090-EN-qualifier">
                     <valueCode value="BR"/>
                  </extension>
               </given>
            </name>
         </Practitioner>
      </resource>
      <search>
         <mode value="include"/>
      </search>
   </entry>
   <entry>
      <fullUrl value="urn:uuid:57685755-c2ac-11ef-1851-020000000000"/>
      <resource>
         <PractitionerRole>
            <meta>
               <profile value="http://nictiz.nl/fhir/StructureDefinition/nl-core-HealthProfessional-PractitionerRole"/>
            </meta>
            <practitioner>
               <reference value="urn:uuid:57685773-c2ac-11ef-1851-020000000000"/>
               <type value="Practitioner"/>
               <display value="Healthcare professional (person), Tanja de Bakker"/>
            </practitioner>
            <organization>
               <reference value="urn:uuid:57685859-c2ac-11ef-1851-020000000000"/>
               <type value="Organization"/>
               <display value="Healthcare provider (organization), Trombosedienst Ons Dorp"/>
            </organization>
            <specialty>
               <coding>
                  <system value="urn:oid:2.16.840.1.113883.2.4.6.7"/>
                  <version value="2020-10-23T00:00:00"/>
                  <code value="3400"/>
                  <display value="Trombosediensten"/>
               </coding>
            </specialty>
         </PractitionerRole>
      </resource>
      <search>
         <mode value="include"/>
      </search>
   </entry>
   <entry>
      <fullUrl value="urn:uuid:57685773-c2ac-11ef-1851-020000000000"/>
      <resource>
         <Practitioner>
            <meta>
               <profile value="http://nictiz.nl/fhir/StructureDefinition/nl-core-HealthProfessional-Practitioner"/>
            </meta>
            <identifier>
               <system value="http://fhir.nl/fhir/NamingSystem/uzi-nr-pers"/>
               <value value="222221111"/>
            </identifier>
            <name>
               <use value="official"/>
               <text value="Tanja de Bakker"/>
               <family value="de Bakker">
                  <extension url="http://hl7.org/fhir/StructureDefinition/humanname-own-prefix">
                     <valueString value="de"/>
                  </extension>
                  <extension url="http://hl7.org/fhir/StructureDefinition/humanname-own-name">
                     <valueString value="Bakker"/>
                  </extension>
               </family>
               <given value="Tanja">
                  <extension url="http://hl7.org/fhir/StructureDefinition/iso21090-EN-qualifier">
                     <valueCode value="BR"/>
                  </extension>
               </given>
            </name>
         </Practitioner>
      </resource>
      <search>
         <mode value="include"/>
      </search>
   </entry>
   <entry>
      <fullUrl value="urn:uuid:576857a5-c2ac-11ef-1851-020000000000"/>
      <resource>
         <Organization>
            <meta>
               <profile value="http://nictiz.nl/fhir/StructureDefinition/nl-core-HealthcareProvider-Organization"/>
            </meta>
            <identifier>
               <system value="http://fhir.nl/fhir/NamingSystem/ura"/>
               <value value="01236578"/>
            </identifier>
            <name value="Apotheek De Gulle Gaper"/>
            <address>
               <extension url="http://nictiz.nl/fhir/StructureDefinition/ext-AddressInformation.AddressType">
                  <valueCodeableConcept>
                     <coding>
                        <system value="http://terminology.hl7.org/CodeSystem/v3-AddressUse"/>
                        <code value="WP"/>
                        <display value="Werkadres"/>
                     </coding>
                  </valueCodeableConcept>
               </extension>
               <use value="work"/>
               <line value="Dorpsstraat 12 A">
                  <extension url="http://hl7.org/fhir/StructureDefinition/iso21090-ADXP-streetName">
                     <valueString value="Dorpsstraat"/>
                  </extension>
                  <extension url="http://hl7.org/fhir/StructureDefinition/iso21090-ADXP-houseNumber">
                     <valueString value="12"/>
                  </extension>
                  <extension url="http://hl7.org/fhir/StructureDefinition/iso21090-ADXP-buildingNumberSuffix">
                     <valueString value="A"/>
                  </extension>
               </line>
               <city value="Ons Dorp"/>
               <postalCode value="1234AA"/>
            </address>
         </Organization>
      </resource>
      <search>
         <mode value="include"/>
      </search>
   </entry>
   <entry>
      <fullUrl value="urn:uuid:576857e1-c2ac-11ef-1851-020000000000"/>
      <resource>
         <Organization>
            <meta>
               <profile value="http://nictiz.nl/fhir/StructureDefinition/nl-core-HealthcareProvider-Organization"/>
            </meta>
            <identifier>
               <system value="http://fhir.nl/fhir/NamingSystem/ura"/>
               <value value="00001111"/>
            </identifier>
            <name value="Huisartsenpraktijk Pulver &amp; Partners"/>
            <address>
               <extension url="http://nictiz.nl/fhir/StructureDefinition/ext-AddressInformation.AddressType">
                  <valueCodeableConcept>
                     <coding>
                        <system value="http://terminology.hl7.org/CodeSystem/v3-AddressUse"/>
                        <code value="WP"/>
                        <display value="Werkadres"/>
                     </coding>
                  </valueCodeableConcept>
               </extension>
               <use value="work"/>
               <line value="Dorpsstraat 1">
                  <extension url="http://hl7.org/fhir/StructureDefinition/iso21090-ADXP-streetName">
                     <valueString value="Dorpsstraat"/>
                  </extension>
                  <extension url="http://hl7.org/fhir/StructureDefinition/iso21090-ADXP-houseNumber">
                     <valueString value="1"/>
                  </extension>
               </line>
               <city value="Ons Dorp"/>
               <postalCode value="1234AA"/>
            </address>
         </Organization>
      </resource>
      <search>
         <mode value="include"/>
      </search>
   </entry>
   <entry>
      <fullUrl value="urn:uuid:5768581d-c2ac-11ef-1851-020000000000"/>
      <resource>
         <Organization>
            <meta>
               <profile value="http://nictiz.nl/fhir/StructureDefinition/nl-core-HealthcareProvider-Organization"/>
            </meta>
            <identifier>
               <system value="http://fhir.nl/fhir/NamingSystem/ura"/>
               <value value="11110000"/>
            </identifier>
            <type>
               <coding>
                  <system value="http://nictiz.nl/fhir/NamingSystem/organization-type"/>
                  <code value="T2"/>
                  <display value="Thuiszorg"/>
               </coding>
            </type>
            <name value="Thuiszorg Om en Bij"/>
         </Organization>
      </resource>
      <search>
         <mode value="include"/>
      </search>
   </entry>
   <entry>
      <fullUrl value="urn:uuid:57685859-c2ac-11ef-1851-020000000000"/>
      <resource>
         <Organization>
            <meta>
               <profile value="http://nictiz.nl/fhir/StructureDefinition/nl-core-HealthcareProvider-Organization"/>
            </meta>
            <identifier>
               <system value="http://fhir.nl/fhir/NamingSystem/ura"/>
               <value value="11112222"/>
            </identifier>
            <type>
               <coding>
                  <system value="urn:oid:2.16.840.1.113883.2.4.6.7"/>
                  <version value="2020-10-23T00:00:00"/>
                  <code value="3400"/>
                  <display value="Trombosediensten"/>
               </coding>
            </type>
            <name value="Trombosedienst Ons Dorp"/>
            <address>
               <extension url="http://nictiz.nl/fhir/StructureDefinition/ext-AddressInformation.AddressType">
                  <valueCodeableConcept>
                     <coding>
                        <system value="http://terminology.hl7.org/CodeSystem/v3-AddressUse"/>
                        <code value="WP"/>
                        <display value="Werkadres"/>
                     </coding>
                  </valueCodeableConcept>
               </extension>
               <use value="work"/>
               <line value="Kerkstraat 28 d">
                  <extension url="http://hl7.org/fhir/StructureDefinition/iso21090-ADXP-streetName">
                     <valueString value="Kerkstraat"/>
                  </extension>
                  <extension url="http://hl7.org/fhir/StructureDefinition/iso21090-ADXP-houseNumber">
                     <valueString value="28"/>
                  </extension>
                  <extension url="http://hl7.org/fhir/StructureDefinition/iso21090-ADXP-buildingNumberSuffix">
                     <valueString value="d"/>
                  </extension>
               </line>
               <city value="Ons Dorp"/>
               <postalCode value="1332GH"/>
            </address>
         </Organization>
      </resource>
      <search>
         <mode value="include"/>
      </search>
   </entry>
   <entry>
      <fullUrl value="urn:uuid:5768595d-c2ac-11ef-1851-020000000000"/>
      <resource>
         <Medication>
            <meta>
               <profile value="http://nictiz.nl/fhir/StructureDefinition/mp-PharmaceuticalProduct"/>
            </meta>
            <code>
               <coding>
                  <system value="urn:oid:2.16.840.1.113883.2.4.4.10"/>
                  <code value="8060"/>
                  <display value="DICLOFENAC-NATRIUM TABLET MSR 25MG"/>
                  <userSelected value="true"/>
               </coding>
               <coding>
                  <system value="urn:oid:2.16.840.1.113883.2.4.4.1"/>
                  <code value="22276"/>
                  <display value="DICLOFENAC-NATRIUM TABLET MSR 25MG"/>
               </coding>
               <text value="DICLOFENAC-NATRIUM TABLET MSR 25MG"/>
            </code>
         </Medication>
      </resource>
      <search>
         <mode value="include"/>
      </search>
   </entry>
   <entry>
      <fullUrl value="urn:uuid:57685971-c2ac-11ef-1851-020000000000"/>
      <resource>
         <Medication>
            <meta>
               <profile value="http://nictiz.nl/fhir/StructureDefinition/mp-PharmaceuticalProduct"/>
            </meta>
            <code>
               <coding>
                  <system value="urn:oid:2.16.840.1.113883.2.4.4.7"/>
                  <code value="630586"/>
                  <display value="DICLOFENAC NATRIUM AUROBINDO TABLET MSR 25MG"/>
                  <userSelected value="true"/>
               </coding>
               <coding>
                  <system value="urn:oid:2.16.840.1.113883.2.4.4.10"/>
                  <code value="8060"/>
                  <display value="DICLOFENAC-NATRIUM TABLET MSR 25MG"/>
               </coding>
               <coding>
                  <system value="urn:oid:2.16.840.1.113883.2.4.4.1"/>
                  <code value="22276"/>
                  <display value="DICLOFENAC-NATRIUM TABLET MSR 25MG"/>
               </coding>
               <text value="DICLOFENAC NATRIUM AUROBINDO TABLET MSR 25MG"/>
            </code>
         </Medication>
      </resource>
      <search>
         <mode value="include"/>
      </search>
   </entry>
   <entry>
      <fullUrl value="urn:uuid:576858f9-c2ac-11ef-1851-020000000000"/>
      <resource>
         <Location>
            <meta>
               <profile value="http://hl7.org/fhir/StructureDefinition/Location"/>
            </meta>
            <name value="thuisadres"/>
         </Location>
      </resource>
      <search>
         <mode value="include"/>
      </search>
   </entry>
</Bundle>