<?xml-model href="http://hl7.org/fhir/STU3/bundle.sch" type="application/xml" schematypens="http://purl.oclc.org/dsdl/schematron"?>
<Bundle xmlns="http://hl7.org/fhir" xmlns:xsi="http://www.w3.org/2001/XMLSchema-instance" xsi:schemaLocation="http://hl7.org/fhir http://hl7.org/fhir/STU3/bundle.xsd">
    <type value="searchset"/>
    <total value="10"/>
    <entry>
        <fullUrl value="urn:uuid:3c6c7f9e-8faf-11ea-6223-020000000000"/>
        <resource>
            <AllergyIntolerance>
                <meta>
                    <profile value="http://nictiz.nl/fhir/StructureDefinition/zib-AllergyIntolerance"/>
                </meta>
                <text>
                    <status value="generated"/>
                    <div xmlns="http://www.w3.org/1999/xhtml">
                        <table>
                            <caption>Allergie/intolerantie. Patiënt: I. XXX_Jangi. Id: AI-test-AWE-01 (urn:oid:2.16.840.1.113883.2.4.3.11.999.26.1.1), Categorie: <span title="allergie voor substantie (419199007 - SNOMED CT)">allergie voor substantie</span>, Status: actief / <i>onbekend (ontbrekend gegeven)</i>
                                <span style="display: block;">Ingevoerd door: van der Spek || Bedrijfsarts, van der Spek || Bedrijfsarts<div>Zorgverlenerrol: van der Spek || Bedrijfsarts, van der Spek || Bedrijfsarts</div>
                                </span>
                            </caption>
                            <tfoot>
                                <tr>
                                    <td colspan="2">voor het eerst gestoken door een bij en enorme bulten</td>
                                </tr>
                            </tfoot>
                            <tbody>
                                <tr>
                                    <th>Code</th>
                                    <td>
                                        <span title="Bijengif (288328004 - SNOMED CT)">Bijengif</span>
                                    </td>
                                </tr>
                                <tr>
                                    <th>Informant</th>
                                    <td>12:45:00, 28 augustus 2019 - I. XXX_Jangi, I. XXX_Jangi</td>
                                </tr>
                                <tr>
                                    <th>Eerste symptomen</th>
                                    <td>14:00:00, 27 augustus 2019</td>
                                </tr>
                                <tr>
                                    <th>Meest recente voorkomen</th>
                                    <td>00:00:00, 15 november 2009</td>
                                </tr>
                                <tr>
                                    <th>Reactie</th>
                                    <td>
                                        <ul>
                                            <li>
                                                <div>14:00:00, 27 augustus 2019 <span title="Matig (6736007 - SNOMED CT)">Matig</span>
                                                </div>
                                                <div>
                                                    <span title="Anafylaxie (39579001 - SNOMED CT)">Anafylaxie</span>, <span title="Jeuk (418363000 - SNOMED CT)">Jeuk</span>
                                                </div>
                                            </li>
                                        </ul>
                                    </td>
                                </tr>
                            </tbody>
                        </table>
                    </div>
                </text>
                <identifier>
                    <system value="urn:oid:2.16.840.1.113883.2.4.3.11.999.26.1.1"/>
                    <value value="AI-test-AWE-01"/>
                </identifier>
                <clinicalStatus value="active">
                    <extension url="http://nictiz.nl/fhir/StructureDefinition/code-specification">
                        <valueCodeableConcept>
                            <coding>
                                <system value="http://hl7.org/fhir/v3/ActStatus"/>
                                <code value="active"/>
                                <display value="Actief"/>
                            </coding>
                        </valueCodeableConcept>
                    </extension>
                </clinicalStatus>
                <verificationStatus>
                    <extension url="http://hl7.org/fhir/StructureDefinition/data-absent-reason">
                        <valueCode value="unknown"/>
                    </extension>
                </verificationStatus>
                <category value="biologic">
                    <extension url="http://nictiz.nl/fhir/StructureDefinition/code-specification">
                        <valueCodeableConcept>
                            <coding>
                                <system value="http://snomed.info/sct"/>
                                <code value="419199007"/>
                                <display value="allergie voor substantie"/>
                            </coding>
                        </valueCodeableConcept>
                    </extension>
                </category>
                <criticality value="low">
                    <extension url="http://nictiz.nl/fhir/StructureDefinition/code-specification">
                        <valueCodeableConcept>
                            <coding>
                                <system value="http://snomed.info/sct"/>
                                <code value="255604002"/>
                                <display value="licht"/>
                            </coding>
                        </valueCodeableConcept>
                    </extension>
                </criticality>
                <code>
                    <coding>
                        <system value="http://snomed.info/sct"/>
                        <code value="288328004"/>
                        <display value="Bijengif"/>
                    </coding>
                </code>
                <patient>
                    <reference value="urn:uuid:3c6c7287-8faf-11ea-6223-020000000000"/>
                    <display value="I. XXX_Jangi"/>
                </patient>
                <onsetDateTime value="2019-08-27T14:00:00+02:00"/>
                <assertedDate value="2019-08-28T12:45:00+02:00"/>
                <recorder>
                    <extension url="http://nictiz.nl/fhir/StructureDefinition/practitionerrole-reference">
                        <valueReference>
                            <reference value="urn:uuid:3c6c7fa6-8faf-11ea-6223-020000000000"/>
                            <display value="van der Spek || Bedrijfsarts"/>
                        </valueReference>
                    </extension>
                    <extension url="http://nictiz.nl/fhir/StructureDefinition/practitionerrole-reference">
                        <valueReference>
                            <reference value="urn:uuid:3c6c7fa6-8faf-11ea-6223-020000000000"/>
                            <display value="van der Spek || Bedrijfsarts"/>
                        </valueReference>
                    </extension>
                    <display value="van der Spek || Bedrijfsarts"/>
                    <display value="van der Spek || Bedrijfsarts"/>
                </recorder>
                <asserter>
                    <reference value="urn:uuid:3c6c7287-8faf-11ea-6223-020000000000"/>
                    <reference value="urn:uuid:3c6c7287-8faf-11ea-6223-020000000000"/>
                    <display value="I. XXX_Jangi"/>
                    <display value="I. XXX_Jangi"/>
                </asserter>
                <lastOccurrence value="2009-11-15T00:00:00+01:00"/>
                <note>
                    <text value="voor het eerst gestoken door een bij en enorme bulten"/>
                </note>
                <reaction>
                    <substance>
                        <coding>
                            <system value="http://snomed.info/sct"/>
                            <code value="288328004"/>
                            <display value="Bijengif"/>
                        </coding>
                    </substance>
                    <manifestation>
                        <coding>
                            <system value="http://snomed.info/sct"/>
                            <code value="39579001"/>
                            <display value="Anafylaxie"/>
                        </coding>
                    </manifestation>
                    <manifestation>
                        <coding>
                            <system value="http://snomed.info/sct"/>
                            <code value="418363000"/>
                            <display value="Jeuk"/>
                        </coding>
                    </manifestation>
                    <onset value="2019-08-27T14:00:00+02:00"/>
                    <severity value="moderate">
                        <extension url="http://nictiz.nl/fhir/StructureDefinition/code-specification">
                            <valueCodeableConcept>
                                <coding>
                                    <system value="http://snomed.info/sct"/>
                                    <code value="6736007"/>
                                    <display value="Matig"/>
                                </coding>
                            </valueCodeableConcept>
                        </extension>
                    </severity>
                    <exposureRoute>
                        <coding>
                            <system value="http://snomed.info/sct"/>
                            <code value="771313007"/>
                            <display value="Sting by bee (event)"/>
                        </coding>
                    </exposureRoute>
                </reaction>
            </AllergyIntolerance>
        </resource>
        <search>
            <mode value="match"/>
        </search>
    </entry>
    <entry>
        <fullUrl value="urn:uuid:3c6c8cf6-8faf-11ea-6223-020000000000"/>
        <resource>
            <AllergyIntolerance>
                <meta>
                    <profile value="http://nictiz.nl/fhir/StructureDefinition/zib-AllergyIntolerance"/>
                </meta>
                <text>
                    <status value="generated"/>
                    <div xmlns="http://www.w3.org/1999/xhtml">
                        <table>
                            <caption>Allergie/intolerantie. Patiënt: I. XXX_Jangi. Id: AI-test-AWE-01 (urn:oid:2.16.840.1.113883.2.4.3.11.999.26.1.1), Categorie: <span title="allergie voor substantie (419199007 - SNOMED CT)">allergie voor substantie</span>, Status: actief / <i>onbekend (ontbrekend gegeven)</i>
                                <span style="display: block;">Ingevoerd door: van der Spek || Bedrijfsarts, van der Spek || Bedrijfsarts<div>Zorgverlenerrol: van der Spek || Bedrijfsarts, van der Spek || Bedrijfsarts</div>
                                </span>
                            </caption>
                            <tfoot>
                                <tr>
                                    <td colspan="2">voor het eerst gestoken door een bij en enorme bulten</td>
                                </tr>
                            </tfoot>
                            <tbody>
                                <tr>
                                    <th>Code</th>
                                    <td>
                                        <span title="Bijengif (288328004 - SNOMED CT)">Bijengif</span>
                                    </td>
                                </tr>
                                <tr>
                                    <th>Informant</th>
                                    <td>12:45:00, 28 augustus 2019 - I. XXX_Jangi, I. XXX_Jangi</td>
                                </tr>
                                <tr>
                                    <th>Eerste symptomen</th>
                                    <td>14:00:00, 27 augustus 2019</td>
                                </tr>
                                <tr>
                                    <th>Meest recente voorkomen</th>
                                    <td>00:00:00, 15 november 2009</td>
                                </tr>
                                <tr>
                                    <th>Reactie</th>
                                    <td>
                                        <ul>
                                            <li>
                                                <div>14:00:00, 27 augustus 2019 <span title="Matig (6736007 - SNOMED CT)">Matig</span>
                                                </div>
                                                <div>
                                                    <span title="Anafylaxie (39579001 - SNOMED CT)">Anafylaxie</span>, <span title="Jeuk (418363000 - SNOMED CT)">Jeuk</span>
                                                </div>
                                            </li>
                                        </ul>
                                    </td>
                                </tr>
                            </tbody>
                        </table>
                    </div>
                </text>
                <identifier>
                    <system value="urn:oid:2.16.840.1.113883.2.4.3.11.999.26.1.1"/>
                    <value value="AI-test-AWE-01"/>
                </identifier>
                <clinicalStatus value="active">
                    <extension url="http://nictiz.nl/fhir/StructureDefinition/code-specification">
                        <valueCodeableConcept>
                            <coding>
                                <system value="http://hl7.org/fhir/v3/ActStatus"/>
                                <code value="active"/>
                                <display value="Actief"/>
                            </coding>
                        </valueCodeableConcept>
                    </extension>
                </clinicalStatus>
                <verificationStatus>
                    <extension url="http://hl7.org/fhir/StructureDefinition/data-absent-reason">
                        <valueCode value="unknown"/>
                    </extension>
                </verificationStatus>
                <category value="biologic">
                    <extension url="http://nictiz.nl/fhir/StructureDefinition/code-specification">
                        <valueCodeableConcept>
                            <coding>
                                <system value="http://snomed.info/sct"/>
                                <code value="419199007"/>
                                <display value="allergie voor substantie"/>
                            </coding>
                        </valueCodeableConcept>
                    </extension>
                </category>
                <criticality value="low">
                    <extension url="http://nictiz.nl/fhir/StructureDefinition/code-specification">
                        <valueCodeableConcept>
                            <coding>
                                <system value="http://snomed.info/sct"/>
                                <code value="255604002"/>
                                <display value="licht"/>
                            </coding>
                        </valueCodeableConcept>
                    </extension>
                </criticality>
                <code>
                    <coding>
                        <system value="http://snomed.info/sct"/>
                        <code value="288328004"/>
                        <display value="Bijengif"/>
                    </coding>
                </code>
                <patient>
                    <reference value="urn:uuid:3c6c7287-8faf-11ea-6223-020000000000"/>
                    <display value="I. XXX_Jangi"/>
                </patient>
                <onsetDateTime value="2019-08-27T14:00:00+02:00"/>
                <assertedDate value="2019-08-28T12:45:00+02:00"/>
                <recorder>
                    <extension url="http://nictiz.nl/fhir/StructureDefinition/practitionerrole-reference">
                        <valueReference>
                            <reference value="urn:uuid:3c6c7fa6-8faf-11ea-6223-020000000000"/>
                            <display value="van der Spek || Bedrijfsarts"/>
                        </valueReference>
                    </extension>
                    <extension url="http://nictiz.nl/fhir/StructureDefinition/practitionerrole-reference">
                        <valueReference>
                            <reference value="urn:uuid:3c6c7fa6-8faf-11ea-6223-020000000000"/>
                            <display value="van der Spek || Bedrijfsarts"/>
                        </valueReference>
                    </extension>
                    <display value="van der Spek || Bedrijfsarts"/>
                    <display value="van der Spek || Bedrijfsarts"/>
                </recorder>
                <asserter>
                    <reference value="urn:uuid:3c6c7287-8faf-11ea-6223-020000000000"/>
                    <reference value="urn:uuid:3c6c7287-8faf-11ea-6223-020000000000"/>
                    <display value="I. XXX_Jangi"/>
                    <display value="I. XXX_Jangi"/>
                </asserter>
                <lastOccurrence value="2009-11-15T00:00:00+01:00"/>
                <note>
                    <text value="voor het eerst gestoken door een bij en enorme bulten"/>
                </note>
                <reaction>
                    <substance>
                        <coding>
                            <system value="http://snomed.info/sct"/>
                            <code value="288328004"/>
                            <display value="Bijengif"/>
                        </coding>
                    </substance>
                    <manifestation>
                        <coding>
                            <system value="http://snomed.info/sct"/>
                            <code value="39579001"/>
                            <display value="Anafylaxie"/>
                        </coding>
                    </manifestation>
                    <manifestation>
                        <coding>
                            <system value="http://snomed.info/sct"/>
                            <code value="418363000"/>
                            <display value="Jeuk"/>
                        </coding>
                    </manifestation>
                    <onset value="2019-08-27T14:00:00+02:00"/>
                    <severity value="moderate">
                        <extension url="http://nictiz.nl/fhir/StructureDefinition/code-specification">
                            <valueCodeableConcept>
                                <coding>
                                    <system value="http://snomed.info/sct"/>
                                    <code value="6736007"/>
                                    <display value="Matig"/>
                                </coding>
                            </valueCodeableConcept>
                        </extension>
                    </severity>
                    <exposureRoute>
                        <coding>
                            <system value="http://snomed.info/sct"/>
                            <code value="771313007"/>
                            <display value="Sting by bee (event)"/>
                        </coding>
                    </exposureRoute>
                </reaction>
            </AllergyIntolerance>
        </resource>
        <search>
            <mode value="match"/>
        </search>
    </entry>
    <entry>
        <fullUrl value="urn:uuid:3c6c7fb9-8faf-11ea-6223-020000000000"/>
        <resource>
            <Flag>
                <meta>
                    <profile value="http://nictiz.nl/fhir/StructureDefinition/zib-Alert"/>
                </meta>
                <text>
                    <status value="generated"/>
                    <div xmlns="http://www.w3.org/1999/xhtml">
                        <table>
                            <caption>Attentievlag. Subject: I. XXX_Jangi. Categorie: <span title="conditie (75323-6 - LOINC)">conditie</span>, Status: <i>onbekend (ontbrekend gegeven)</i>
                            </caption>
                            <tbody>
                                <tr>
                                    <th>Code</th>
                                    <td>
                                        <i>onbekend (ontbrekend gegeven)</i>
                                    </td>
                                </tr>
                                <tr>
                                    <th>Detail</th>
                                    <td>Localized lupus erythematosus</td>
                                </tr>
                            </tbody>
                        </table>
                    </div>
                </text>
                <extension url="http://hl7.org/fhir/StructureDefinition/flag-detail">
                    <valueReference>
                        <reference value="urn:uuid:3c6c7fcb-8faf-11ea-6223-020000000000"/>
                        <display value="Localized lupus erythematosus"/>
                    </valueReference>
                </extension>
                <status>
                    <extension url="http://hl7.org/fhir/StructureDefinition/data-absent-reason">
                        <valueCode value="unknown"/>
                    </extension>
                </status>
                <category>
                    <coding>
                        <system value="http://loinc.org"/>
                        <code value="75323-6"/>
                        <display value="conditie"/>
                    </coding>
                </category>
                <code>
                    <extension url="http://hl7.org/fhir/StructureDefinition/data-absent-reason">
                        <valueCode value="unknown"/>
                    </extension>
                </code>
                <subject>
                    <reference value="urn:uuid:3c6c7287-8faf-11ea-6223-020000000000"/>
                    <display value="I. XXX_Jangi"/>
                </subject>
            </Flag>
        </resource>
        <search>
            <mode value="match"/>
        </search>
    </entry>
    <entry>
        <fullUrl value="urn:uuid:3c6c8d11-8faf-11ea-6223-020000000000"/>
        <resource>
            <Flag>
                <meta>
                    <profile value="http://nictiz.nl/fhir/StructureDefinition/zib-Alert"/>
                </meta>
                <text>
                    <status value="generated"/>
                    <div xmlns="http://www.w3.org/1999/xhtml">
                        <table>
                            <caption>Attentievlag. Subject: I. XXX_Jangi. Categorie: <span title="conditie (75323-6 - LOINC)">conditie</span>, Status: <i>onbekend (ontbrekend gegeven)</i>
                            </caption>
                            <tbody>
                                <tr>
                                    <th>Code</th>
                                    <td>
                                        <i>onbekend (ontbrekend gegeven)</i>
                                    </td>
                                </tr>
                                <tr>
                                    <th>Detail</th>
                                    <td>Localized lupus erythematosus</td>
                                </tr>
                            </tbody>
                        </table>
                    </div>
                </text>
                <extension url="http://hl7.org/fhir/StructureDefinition/flag-detail">
                    <valueReference>
                        <reference value="urn:uuid:3c6c7fcb-8faf-11ea-6223-020000000000"/>
                        <display value="Localized lupus erythematosus"/>
                    </valueReference>
                </extension>
                <status>
                    <extension url="http://hl7.org/fhir/StructureDefinition/data-absent-reason">
                        <valueCode value="unknown"/>
                    </extension>
                </status>
                <category>
                    <coding>
                        <system value="http://loinc.org"/>
                        <code value="75323-6"/>
                        <display value="conditie"/>
                    </coding>
                </category>
                <code>
                    <extension url="http://hl7.org/fhir/StructureDefinition/data-absent-reason">
                        <valueCode value="unknown"/>
                    </extension>
                </code>
                <subject>
                    <reference value="urn:uuid:3c6c7287-8faf-11ea-6223-020000000000"/>
                    <display value="I. XXX_Jangi"/>
                </subject>
            </Flag>
        </resource>
        <search>
            <mode value="match"/>
        </search>
    </entry>
    <entry>
        <fullUrl value="urn:uuid:3c6c7fcb-8faf-11ea-6223-020000000000"/>
        <resource>
            <Condition>
                <meta>
                    <profile value="http://nictiz.nl/fhir/StructureDefinition/zib-Problem"/>
                </meta>
                <text>
                    <status value="generated"/>
                    <div xmlns="http://www.w3.org/1999/xhtml">
                        <table>
                            <caption>Aandoening. Subject: I. XXX_Jangi. Categorie: <span title="Functionele Beperking (248536006 - SNOMED CT)">Functionele Beperking</span>, Status: actief / bevestigd</caption>
                            <tfoot>
                                <tr>
                                    <td colspan="2">matig ernstig</td>
                                </tr>
                            </tfoot>
                            <tbody>
                                <tr>
                                    <th>Code</th>
                                    <td>
                                        <span title="Localized lupus erythematosus (21021000146108 - SNOMED CT)">Localized lupus erythematosus</span>
                                    </td>
                                </tr>
                                <tr>
                                    <th>Informant</th>
                                    <td>achternaam-contact, achternaam-contact</td>
                                </tr>
                                <tr>
                                    <th>Eerste symptomen</th>
                                    <td>Vanaf 00:00:00, 7 januari 2016</td>
                                </tr>
                            </tbody>
                        </table>
                    </div>
                </text>
                <clinicalStatus value="active"/>
                <verificationStatus value="confirmed"/>
                <category>
                    <coding>
                        <system value="http://snomed.info/sct"/>
                        <code value="248536006"/>
                        <display value="Functionele Beperking"/>
                    </coding>
                </category>
                <code>
                    <coding>
                        <system value="http://snomed.info/sct"/>
                        <code value="21021000146108"/>
                        <display value="Localized lupus erythematosus"/>
                    </coding>
                </code>
                <bodySite>
                    <extension url="http://nictiz.nl/fhir/StructureDefinition/BodySite-Qualifier">
                        <valueCodeableConcept>
                            <coding>
                                <system value="http://snomed.info/sct"/>
                                <code value="7771000"/>
                                <display value="Links"/>
                            </coding>
                        </valueCodeableConcept>
                    </extension>
                    <coding>
                        <system value="http://snomed.info/sct"/>
                        <code value="302545001"/>
                        <display value="Entire foot"/>
                    </coding>
                </bodySite>
                <subject>
                    <reference value="urn:uuid:3c6c7287-8faf-11ea-6223-020000000000"/>
                    <display value="I. XXX_Jangi"/>
                </subject>
                <onsetPeriod>
                    <start value="2016-01-07T00:00:00+01:00"/>
                </onsetPeriod>
                <asserter>
                    <reference value="urn:uuid:3c6c8cd9-8faf-11ea-6223-020000000000"/>
                    <reference value="urn:uuid:3c6c8cd9-8faf-11ea-6223-020000000000"/>
                    <display value="achternaam-contact"/>
                    <display value="achternaam-contact"/>
                </asserter>
                <note>
                    <text value="matig ernstig"/>
                </note>
            </Condition>
        </resource>
        <search>
            <mode value="match"/>
        </search>
    </entry>
    <entry>
        <fullUrl value="urn:uuid:3c6c7287-8faf-11ea-6223-020000000000"/>
        <resource>
            <Patient>
                <meta>
                    <profile value="http://fhir.nl/fhir/StructureDefinition/nl-core-patient"/>
                </meta>
                <text>
                    <status value="generated"/>
                    <div xmlns="http://www.w3.org/1999/xhtml">
                        <div>Id 999911727 (BSN), Id 10009 (urn:oid:2.16.840.1.113883.2.4.3.11.999.77.19829.1), I. XXX_Jangi, Man, 2 augustus 1964</div>
                        <div>
                            <a href="tel:+31612345678">+31612345678</a> (Tel Privé)</div>
                        <div>Knolweg 1002, 9999ZZ Stitswerd (Bezoek Bezoek)</div>
                    </div>
                </text>
                <identifier>
                    <system value="http://fhir.nl/fhir/NamingSystem/bsn"/>
                    <value value="999911727"/>
                </identifier>
                <identifier>
                    <system value="urn:oid:2.16.840.1.113883.2.4.3.11.999.77.19829.1"/>
                    <value value="10009"/>
                </identifier>
                <name>
                    <extension url="http://hl7.org/fhir/StructureDefinition/humanname-assembly-order">
                        <valueCode value="NL1"/>
                    </extension>
                    <family value="XXX_Jangi">
                        <extension url="http://hl7.org/fhir/StructureDefinition/humanname-own-name">
                            <valueString value="XXX_Jangi"/>
                        </extension>
                    </family>
                    <given value="I.">
                        <extension url="http://hl7.org/fhir/StructureDefinition/iso21090-EN-qualifier">
                            <valueCode value="IN"/>
                        </extension>
                    </given>
                </name>
                <telecom>
                    <system value="phone">
                        <extension url="http://nictiz.nl/fhir/StructureDefinition/code-specification">
                            <valueCodeableConcept>
                                <coding>
                                    <system value="urn:oid:2.16.840.1.113883.2.4.3.11.60.40.4.22.1"/>
                                    <code value="LL"/>
                                    <display value="Vast telefoonnummer"/>
                                </coding>
                            </valueCodeableConcept>
                        </extension>
                    </system>
                    <value value="+31612345678"/>
                    <use value="home">
                        <extension url="http://nictiz.nl/fhir/StructureDefinition/code-specification">
                            <valueCodeableConcept>
                                <coding>
                                    <system value="http://hl7.org/fhir/v3/AddressUse"/>
                                    <code value="HP"/>
                                    <display value="Telefoonnummer thuis"/>
                                </coding>
                            </valueCodeableConcept>
                        </extension>
                    </use>
                </telecom>
                <gender value="male"/>
                <birthDate value="1964-08-02"/>
                <address>
                    <use value="home">
                        <extension url="http://hl7.org/fhir/StructureDefinition/iso21090-AD-use">
                            <valueCode value="PHYS"/>
                        </extension>
                    </use>
                    <type value="physical"/>
                    <line value="Knolweg 1002">
                        <extension url="http://hl7.org/fhir/StructureDefinition/iso21090-ADXP-streetName">
                            <valueString value="Knolweg"/>
                        </extension>
                        <extension url="http://hl7.org/fhir/StructureDefinition/iso21090-ADXP-houseNumber">
                            <valueString value="1002"/>
                        </extension>
                    </line>
                    <city value="Stitswerd"/>
                    <postalCode value="9999ZZ"/>
                </address>
            </Patient>
        </resource>
        <search>
            <mode value="include"/>
        </search>
    </entry>
    <entry>
        <fullUrl value="urn:uuid:3c6c7fe0-8faf-11ea-6223-020000000000"/>
        <resource>
            <Practitioner>
                <meta>
                    <profile value="http://fhir.nl/fhir/StructureDefinition/nl-core-practitioner"/>
                </meta>
                <text>
                    <status value="generated"/>
                    <div xmlns="http://www.w3.org/1999/xhtml">
                        <div>Id zorgverlener-01 (urn:oid:2.16.840.1.113883.2.4.4.11.999.26.1.139), van der Spek</div>
                    </div>
                </text>
                <identifier>
                    <system value="urn:oid:2.16.840.1.113883.2.4.4.11.999.26.1.139"/>
                    <value value="zorgverlener-01"/>
                </identifier>
                <name>
                    <extension url="http://hl7.org/fhir/StructureDefinition/humanname-assembly-order">
                        <valueCode value="NL1"/>
                    </extension>
                    <family value="van der Spek">
                        <extension url="http://hl7.org/fhir/StructureDefinition/humanname-own-prefix">
                            <valueString value="van der"/>
                        </extension>
                        <extension url="http://hl7.org/fhir/StructureDefinition/humanname-own-name">
                            <valueString value="Spek"/>
                        </extension>
                    </family>
                </name>
            </Practitioner>
        </resource>
        <search>
            <mode value="include"/>
        </search>
    </entry>
    <entry>
        <fullUrl value="urn:uuid:3c6c8cd4-8faf-11ea-6223-020000000000"/>
        <resource>
            <Organization>
                <meta>
                    <profile value="http://fhir.nl/fhir/StructureDefinition/nl-core-organization"/>
                </meta>
                <text>
                    <status value="generated"/>
                    <div xmlns="http://www.w3.org/1999/xhtml">
                        <table>
                            <caption>OrganisatieId: zorgaanbieder-01 (urn:oid:2.16.840.1.113883.2.4.4.11.999.26.1.205)</caption>
                            <tbody>
                                <tr>
                                    <th>Naam</th>
                                    <td>Bedrijfsartsenconsortium - Vestiging Amsterdam</td>
                                </tr>
                                <tr>
                                    <th>Type</th>
                                    <td>
                                        <div>
                                            <span title="Overige artsen, basisarts (8425 - AGB-medisch specialisme)">Overige artsen, basisarts</span>
                                        </div>
                                        <div>
                                            <span title="Preventieve gezondheidszorg (P6 - RoleCodeNL Zorgaanbiedertype)">Preventieve gezondheidszorg</span>
                                        </div>
                                    </td>
                                </tr>
                            </tbody>
                        </table>
                    </div>
                </text>
                <identifier>
                    <system value="urn:oid:2.16.840.1.113883.2.4.4.11.999.26.1.205"/>
                    <value value="zorgaanbieder-01"/>
                </identifier>
                <type>
                    <coding>
                        <system value="urn:oid:2.16.840.1.113883.2.4.6.7"/>
                        <code value="8425"/>
                        <display value="Overige artsen, basisarts"/>
                    </coding>
                </type>
                <type>
                    <coding>
                        <system value="urn:oid:2.16.840.1.113883.2.4.15.1060"/>
                        <code value="P6"/>
                        <display value="Preventieve gezondheidszorg"/>
                    </coding>
                </type>
                <name value="Bedrijfsartsenconsortium - Vestiging Amsterdam"/>
            </Organization>
        </resource>
        <search>
            <mode value="include"/>
        </search>
    </entry>
    <entry>
        <fullUrl value="urn:uuid:3c6c7fa6-8faf-11ea-6223-020000000000"/>
        <resource>
            <PractitionerRole>
                <meta>
                    <profile value="http://fhir.nl/fhir/StructureDefinition/nl-core-practitionerrole"/>
                </meta>
                <text>
                    <status value="generated"/>
                    <div xmlns="http://www.w3.org/1999/xhtml">
                        <table>
                            <caption>Zorgverlenerrol</caption>
                            <tbody>
                                <tr>
                                    <th>Zorgverlener</th>
                                    <td>
                                        <div>van der Spek</div>
                                        <div>Bedrijfsartsenconsortium - Vestiging Amsterdam</div>
                                    </td>
                                </tr>
                                <tr>
                                    <th>Specialisme</th>
                                    <td>
                                        <span title="Bedrijfsarts (01.008 - http://fhir.nl/fhir/NamingSystem/uzi-rolcode)">Bedrijfsarts</span>
                                    </td>
                                </tr>
                                <tr>
                                    <th>Contactgegevens</th>
                                    <td>
                                        <a href="tel:0701234567">0701234567</a> (Tel Werk)</td>
                                </tr>
                            </tbody>
                        </table>
                    </div>
                </text>
                <practitioner>
                    <reference value="urn:uuid:3c6c7fe0-8faf-11ea-6223-020000000000"/>
                    <display value="van der Spek"/>
                </practitioner>
                <organization>
                    <reference value="urn:uuid:3c6c8cd4-8faf-11ea-6223-020000000000"/>
                    <display value="Bedrijfsartsenconsortium - Vestiging Amsterdam"/>
                </organization>
                <specialty>
                    <coding>
                        <system value="http://fhir.nl/fhir/NamingSystem/uzi-rolcode"/>
                        <code value="01.008"/>
                        <display value="Bedrijfsarts"/>
                    </coding>
                </specialty>
                <telecom>
                    <system value="phone">
                        <extension url="http://nictiz.nl/fhir/StructureDefinition/code-specification">
                            <valueCodeableConcept>
                                <coding>
                                    <system value="urn:oid:2.16.840.1.113883.2.4.3.11.60.40.4.22.1"/>
                                    <code value="LL"/>
                                    <display value="Vast telefoonnummer"/>
                                </coding>
                            </valueCodeableConcept>
                        </extension>
                    </system>
                    <value value="0701234567"/>
                    <use value="work">
                        <extension url="http://nictiz.nl/fhir/StructureDefinition/code-specification">
                            <valueCodeableConcept>
                                <coding>
                                    <system value="http://hl7.org/fhir/v3/AddressUse"/>
                                    <code value="WP"/>
                                    <display value="Zakelijk telefoonnummer"/>
                                </coding>
                            </valueCodeableConcept>
                        </extension>
                    </use>
                </telecom>
            </PractitionerRole>
        </resource>
        <search>
            <mode value="include"/>
        </search>
    </entry>
    <entry>
        <fullUrl value="urn:uuid:3c6c8cd9-8faf-11ea-6223-020000000000"/>
        <resource>
            <RelatedPerson>
                <meta>
                    <profile value="http://fhir.nl/fhir/StructureDefinition/nl-core-relatedperson"/>
                </meta>
                <text>
                    <status value="generated"/>
                    <div xmlns="http://www.w3.org/1999/xhtml">
                        <div>achternaam-contact</div>
                        <div>
                            <span title="Curator (juridisch) (3 - RoleCodeLijst (COD472-VEKT))">Curator (juridisch)</span>, <span title="Adoptievader (ADOPTF - v3/RoleCode)">Adoptievader</span> van I. XXX_Jangi</div>
                    </div>
                </text>
                <extension url="http://fhir.nl/fhir/StructureDefinition/nl-core-relatedperson-role">
                    <valueCodeableConcept>
                        <coding>
                            <system value="urn:oid:2.16.840.1.113883.2.4.3.11.22.472"/>
                            <code value="3"/>
                            <display value="Curator (juridisch)"/>
                        </coding>
                    </valueCodeableConcept>
                </extension>
                <patient>
                    <reference value="urn:uuid:3c6c7287-8faf-11ea-6223-020000000000"/>
                    <display value="I. XXX_Jangi"/>
                </patient>
                <relationship>
                    <coding>
                        <system value="http://hl7.org/fhir/v3/RoleCode"/>
                        <code value="ADOPTF"/>
                        <display value="Adoptievader"/>
                    </coding>
                </relationship>
                <name>
                    <extension url="http://hl7.org/fhir/StructureDefinition/humanname-assembly-order">
                        <valueCode value="NL1"/>
                    </extension>
                    <family value="achternaam-contact">
                        <extension url="http://hl7.org/fhir/StructureDefinition/humanname-own-name">
                            <valueString value="achternaam-contact"/>
                        </extension>
                    </family>
                </name>
            </RelatedPerson>
        </resource>
        <search>
            <mode value="include"/>
        </search>
    </entry>
    <type value="searchset"/>
    <total value="10"/>
    <entry>
        <fullUrl value="urn:uuid:3c6c7f9e-8faf-11ea-6223-020000000000"/>
        <resource>
            <AllergyIntolerance>
                <meta>
                    <profile value="http://nictiz.nl/fhir/StructureDefinition/zib-AllergyIntolerance"/>
                </meta>
                <text>
                    <status value="generated"/>
                    <div xmlns="http://www.w3.org/1999/xhtml">
                        <table>
                            <caption>Allergie/intolerantie. Patiënt: I. XXX_Jangi. Id: AI-test-AWE-01 (urn:oid:2.16.840.1.113883.2.4.3.11.999.26.1.1), Categorie: <span title="allergie voor substantie (419199007 - SNOMED CT)">allergie voor substantie</span>, Status: actief / <i>onbekend (ontbrekend gegeven)</i>
                                <span style="display: block;">Ingevoerd door: van der Spek || Bedrijfsarts, van der Spek || Bedrijfsarts<div>Zorgverlenerrol: van der Spek || Bedrijfsarts, van der Spek || Bedrijfsarts</div>
                                </span>
                            </caption>
                            <tfoot>
                                <tr>
                                    <td colspan="2">voor het eerst gestoken door een bij en enorme bulten</td>
                                </tr>
                            </tfoot>
                            <tbody>
                                <tr>
                                    <th>Code</th>
                                    <td>
                                        <span title="Bijengif (288328004 - SNOMED CT)">Bijengif</span>
                                    </td>
                                </tr>
                                <tr>
                                    <th>Informant</th>
                                    <td>12:45:00, 28 augustus 2019 - I. XXX_Jangi, I. XXX_Jangi</td>
                                </tr>
                                <tr>
                                    <th>Eerste symptomen</th>
                                    <td>14:00:00, 27 augustus 2019</td>
                                </tr>
                                <tr>
                                    <th>Meest recente voorkomen</th>
                                    <td>00:00:00, 15 november 2009</td>
                                </tr>
                                <tr>
                                    <th>Reactie</th>
                                    <td>
                                        <ul>
                                            <li>
                                                <div>14:00:00, 27 augustus 2019 <span title="Matig (6736007 - SNOMED CT)">Matig</span>
                                                </div>
                                                <div>
                                                    <span title="Anafylaxie (39579001 - SNOMED CT)">Anafylaxie</span>, <span title="Jeuk (418363000 - SNOMED CT)">Jeuk</span>
                                                </div>
                                            </li>
                                        </ul>
                                    </td>
                                </tr>
                            </tbody>
                        </table>
                    </div>
                </text>
                <identifier>
                    <system value="urn:oid:2.16.840.1.113883.2.4.3.11.999.26.1.1"/>
                    <value value="AI-test-AWE-01"/>
                </identifier>
                <clinicalStatus value="active">
                    <extension url="http://nictiz.nl/fhir/StructureDefinition/code-specification">
                        <valueCodeableConcept>
                            <coding>
                                <system value="http://hl7.org/fhir/v3/ActStatus"/>
                                <code value="active"/>
                                <display value="Actief"/>
                            </coding>
                        </valueCodeableConcept>
                    </extension>
                </clinicalStatus>
                <verificationStatus>
                    <extension url="http://hl7.org/fhir/StructureDefinition/data-absent-reason">
                        <valueCode value="unknown"/>
                    </extension>
                </verificationStatus>
                <category value="biologic">
                    <extension url="http://nictiz.nl/fhir/StructureDefinition/code-specification">
                        <valueCodeableConcept>
                            <coding>
                                <system value="http://snomed.info/sct"/>
                                <code value="419199007"/>
                                <display value="allergie voor substantie"/>
                            </coding>
                        </valueCodeableConcept>
                    </extension>
                </category>
                <criticality value="low">
                    <extension url="http://nictiz.nl/fhir/StructureDefinition/code-specification">
                        <valueCodeableConcept>
                            <coding>
                                <system value="http://snomed.info/sct"/>
                                <code value="255604002"/>
                                <display value="licht"/>
                            </coding>
                        </valueCodeableConcept>
                    </extension>
                </criticality>
                <code>
                    <coding>
                        <system value="http://snomed.info/sct"/>
                        <code value="288328004"/>
                        <display value="Bijengif"/>
                    </coding>
                </code>
                <patient>
                    <reference value="urn:uuid:3c6c7287-8faf-11ea-6223-020000000000"/>
                    <display value="I. XXX_Jangi"/>
                </patient>
                <onsetDateTime value="2019-08-27T14:00:00+02:00"/>
                <assertedDate value="2019-08-28T12:45:00+02:00"/>
                <recorder>
                    <extension url="http://nictiz.nl/fhir/StructureDefinition/practitionerrole-reference">
                        <valueReference>
                            <reference value="urn:uuid:3c6c7fa6-8faf-11ea-6223-020000000000"/>
                            <display value="van der Spek || Bedrijfsarts"/>
                        </valueReference>
                    </extension>
                    <extension url="http://nictiz.nl/fhir/StructureDefinition/practitionerrole-reference">
                        <valueReference>
                            <reference value="urn:uuid:3c6c7fa6-8faf-11ea-6223-020000000000"/>
                            <display value="van der Spek || Bedrijfsarts"/>
                        </valueReference>
                    </extension>
                    <display value="van der Spek || Bedrijfsarts"/>
                    <display value="van der Spek || Bedrijfsarts"/>
                </recorder>
                <asserter>
                    <reference value="urn:uuid:3c6c7287-8faf-11ea-6223-020000000000"/>
                    <reference value="urn:uuid:3c6c7287-8faf-11ea-6223-020000000000"/>
                    <display value="I. XXX_Jangi"/>
                    <display value="I. XXX_Jangi"/>
                </asserter>
                <lastOccurrence value="2009-11-15T00:00:00+01:00"/>
                <note>
                    <text value="voor het eerst gestoken door een bij en enorme bulten"/>
                </note>
                <reaction>
                    <substance>
                        <coding>
                            <system value="http://snomed.info/sct"/>
                            <code value="288328004"/>
                            <display value="Bijengif"/>
                        </coding>
                    </substance>
                    <manifestation>
                        <coding>
                            <system value="http://snomed.info/sct"/>
                            <code value="39579001"/>
                            <display value="Anafylaxie"/>
                        </coding>
                    </manifestation>
                    <manifestation>
                        <coding>
                            <system value="http://snomed.info/sct"/>
                            <code value="418363000"/>
                            <display value="Jeuk"/>
                        </coding>
                    </manifestation>
                    <onset value="2019-08-27T14:00:00+02:00"/>
                    <severity value="moderate">
                        <extension url="http://nictiz.nl/fhir/StructureDefinition/code-specification">
                            <valueCodeableConcept>
                                <coding>
                                    <system value="http://snomed.info/sct"/>
                                    <code value="6736007"/>
                                    <display value="Matig"/>
                                </coding>
                            </valueCodeableConcept>
                        </extension>
                    </severity>
                    <exposureRoute>
                        <coding>
                            <system value="http://snomed.info/sct"/>
                            <code value="771313007"/>
                            <display value="Sting by bee (event)"/>
                        </coding>
                    </exposureRoute>
                </reaction>
            </AllergyIntolerance>
        </resource>
        <search>
            <mode value="match"/>
        </search>
    </entry>
    <entry>
        <fullUrl value="urn:uuid:3c6c8cf6-8faf-11ea-6223-020000000000"/>
        <resource>
            <AllergyIntolerance>
                <meta>
                    <profile value="http://nictiz.nl/fhir/StructureDefinition/zib-AllergyIntolerance"/>
                </meta>
                <text>
                    <status value="generated"/>
                    <div xmlns="http://www.w3.org/1999/xhtml">
                        <table>
                            <caption>Allergie/intolerantie. Patiënt: I. XXX_Jangi. Id: AI-test-AWE-01 (urn:oid:2.16.840.1.113883.2.4.3.11.999.26.1.1), Categorie: <span title="allergie voor substantie (419199007 - SNOMED CT)">allergie voor substantie</span>, Status: actief / <i>onbekend (ontbrekend gegeven)</i>
                                <span style="display: block;">Ingevoerd door: van der Spek || Bedrijfsarts, van der Spek || Bedrijfsarts<div>Zorgverlenerrol: van der Spek || Bedrijfsarts, van der Spek || Bedrijfsarts</div>
                                </span>
                            </caption>
                            <tfoot>
                                <tr>
                                    <td colspan="2">voor het eerst gestoken door een bij en enorme bulten</td>
                                </tr>
                            </tfoot>
                            <tbody>
                                <tr>
                                    <th>Code</th>
                                    <td>
                                        <span title="Bijengif (288328004 - SNOMED CT)">Bijengif</span>
                                    </td>
                                </tr>
                                <tr>
                                    <th>Informant</th>
                                    <td>12:45:00, 28 augustus 2019 - I. XXX_Jangi, I. XXX_Jangi</td>
                                </tr>
                                <tr>
                                    <th>Eerste symptomen</th>
                                    <td>14:00:00, 27 augustus 2019</td>
                                </tr>
                                <tr>
                                    <th>Meest recente voorkomen</th>
                                    <td>00:00:00, 15 november 2009</td>
                                </tr>
                                <tr>
                                    <th>Reactie</th>
                                    <td>
                                        <ul>
                                            <li>
                                                <div>14:00:00, 27 augustus 2019 <span title="Matig (6736007 - SNOMED CT)">Matig</span>
                                                </div>
                                                <div>
                                                    <span title="Anafylaxie (39579001 - SNOMED CT)">Anafylaxie</span>, <span title="Jeuk (418363000 - SNOMED CT)">Jeuk</span>
                                                </div>
                                            </li>
                                        </ul>
                                    </td>
                                </tr>
                            </tbody>
                        </table>
                    </div>
                </text>
                <identifier>
                    <system value="urn:oid:2.16.840.1.113883.2.4.3.11.999.26.1.1"/>
                    <value value="AI-test-AWE-01"/>
                </identifier>
                <clinicalStatus value="active">
                    <extension url="http://nictiz.nl/fhir/StructureDefinition/code-specification">
                        <valueCodeableConcept>
                            <coding>
                                <system value="http://hl7.org/fhir/v3/ActStatus"/>
                                <code value="active"/>
                                <display value="Actief"/>
                            </coding>
                        </valueCodeableConcept>
                    </extension>
                </clinicalStatus>
                <verificationStatus>
                    <extension url="http://hl7.org/fhir/StructureDefinition/data-absent-reason">
                        <valueCode value="unknown"/>
                    </extension>
                </verificationStatus>
                <category value="biologic">
                    <extension url="http://nictiz.nl/fhir/StructureDefinition/code-specification">
                        <valueCodeableConcept>
                            <coding>
                                <system value="http://snomed.info/sct"/>
                                <code value="419199007"/>
                                <display value="allergie voor substantie"/>
                            </coding>
                        </valueCodeableConcept>
                    </extension>
                </category>
                <criticality value="low">
                    <extension url="http://nictiz.nl/fhir/StructureDefinition/code-specification">
                        <valueCodeableConcept>
                            <coding>
                                <system value="http://snomed.info/sct"/>
                                <code value="255604002"/>
                                <display value="licht"/>
                            </coding>
                        </valueCodeableConcept>
                    </extension>
                </criticality>
                <code>
                    <coding>
                        <system value="http://snomed.info/sct"/>
                        <code value="288328004"/>
                        <display value="Bijengif"/>
                    </coding>
                </code>
                <patient>
                    <reference value="urn:uuid:3c6c7287-8faf-11ea-6223-020000000000"/>
                    <display value="I. XXX_Jangi"/>
                </patient>
                <onsetDateTime value="2019-08-27T14:00:00+02:00"/>
                <assertedDate value="2019-08-28T12:45:00+02:00"/>
                <recorder>
                    <extension url="http://nictiz.nl/fhir/StructureDefinition/practitionerrole-reference">
                        <valueReference>
                            <reference value="urn:uuid:3c6c7fa6-8faf-11ea-6223-020000000000"/>
                            <display value="van der Spek || Bedrijfsarts"/>
                        </valueReference>
                    </extension>
                    <extension url="http://nictiz.nl/fhir/StructureDefinition/practitionerrole-reference">
                        <valueReference>
                            <reference value="urn:uuid:3c6c7fa6-8faf-11ea-6223-020000000000"/>
                            <display value="van der Spek || Bedrijfsarts"/>
                        </valueReference>
                    </extension>
                    <display value="van der Spek || Bedrijfsarts"/>
                    <display value="van der Spek || Bedrijfsarts"/>
                </recorder>
                <asserter>
                    <reference value="urn:uuid:3c6c7287-8faf-11ea-6223-020000000000"/>
                    <reference value="urn:uuid:3c6c7287-8faf-11ea-6223-020000000000"/>
                    <display value="I. XXX_Jangi"/>
                    <display value="I. XXX_Jangi"/>
                </asserter>
                <lastOccurrence value="2009-11-15T00:00:00+01:00"/>
                <note>
                    <text value="voor het eerst gestoken door een bij en enorme bulten"/>
                </note>
                <reaction>
                    <substance>
                        <coding>
                            <system value="http://snomed.info/sct"/>
                            <code value="288328004"/>
                            <display value="Bijengif"/>
                        </coding>
                    </substance>
                    <manifestation>
                        <coding>
                            <system value="http://snomed.info/sct"/>
                            <code value="39579001"/>
                            <display value="Anafylaxie"/>
                        </coding>
                    </manifestation>
                    <manifestation>
                        <coding>
                            <system value="http://snomed.info/sct"/>
                            <code value="418363000"/>
                            <display value="Jeuk"/>
                        </coding>
                    </manifestation>
                    <onset value="2019-08-27T14:00:00+02:00"/>
                    <severity value="moderate">
                        <extension url="http://nictiz.nl/fhir/StructureDefinition/code-specification">
                            <valueCodeableConcept>
                                <coding>
                                    <system value="http://snomed.info/sct"/>
                                    <code value="6736007"/>
                                    <display value="Matig"/>
                                </coding>
                            </valueCodeableConcept>
                        </extension>
                    </severity>
                    <exposureRoute>
                        <coding>
                            <system value="http://snomed.info/sct"/>
                            <code value="771313007"/>
                            <display value="Sting by bee (event)"/>
                        </coding>
                    </exposureRoute>
                </reaction>
            </AllergyIntolerance>
        </resource>
        <search>
            <mode value="match"/>
        </search>
    </entry>
    <entry>
        <fullUrl value="urn:uuid:3c6c7fb9-8faf-11ea-6223-020000000000"/>
        <resource>
            <Flag>
                <meta>
                    <profile value="http://nictiz.nl/fhir/StructureDefinition/zib-Alert"/>
                </meta>
                <text>
                    <status value="generated"/>
                    <div xmlns="http://www.w3.org/1999/xhtml">
                        <table>
                            <caption>Attentievlag. Subject: I. XXX_Jangi. Categorie: <span title="conditie (75323-6 - LOINC)">conditie</span>, Status: <i>onbekend (ontbrekend gegeven)</i>
                            </caption>
                            <tbody>
                                <tr>
                                    <th>Code</th>
                                    <td>
                                        <i>onbekend (ontbrekend gegeven)</i>
                                    </td>
                                </tr>
                                <tr>
                                    <th>Detail</th>
                                    <td>Localized lupus erythematosus</td>
                                </tr>
                            </tbody>
                        </table>
                    </div>
                </text>
                <extension url="http://hl7.org/fhir/StructureDefinition/flag-detail">
                    <valueReference>
                        <reference value="urn:uuid:3c6c7fcb-8faf-11ea-6223-020000000000"/>
                        <display value="Localized lupus erythematosus"/>
                    </valueReference>
                </extension>
                <status>
                    <extension url="http://hl7.org/fhir/StructureDefinition/data-absent-reason">
                        <valueCode value="unknown"/>
                    </extension>
                </status>
                <category>
                    <coding>
                        <system value="http://loinc.org"/>
                        <code value="75323-6"/>
                        <display value="conditie"/>
                    </coding>
                </category>
                <code>
                    <extension url="http://hl7.org/fhir/StructureDefinition/data-absent-reason">
                        <valueCode value="unknown"/>
                    </extension>
                </code>
                <subject>
                    <reference value="urn:uuid:3c6c7287-8faf-11ea-6223-020000000000"/>
                    <display value="I. XXX_Jangi"/>
                </subject>
            </Flag>
        </resource>
        <search>
            <mode value="match"/>
        </search>
    </entry>
    <entry>
        <fullUrl value="urn:uuid:3c6c8d11-8faf-11ea-6223-020000000000"/>
        <resource>
            <Flag>
                <meta>
                    <profile value="http://nictiz.nl/fhir/StructureDefinition/zib-Alert"/>
                </meta>
                <text>
                    <status value="generated"/>
                    <div xmlns="http://www.w3.org/1999/xhtml">
                        <table>
                            <caption>Attentievlag. Subject: I. XXX_Jangi. Categorie: <span title="conditie (75323-6 - LOINC)">conditie</span>, Status: <i>onbekend (ontbrekend gegeven)</i>
                            </caption>
                            <tbody>
                                <tr>
                                    <th>Code</th>
                                    <td>
                                        <i>onbekend (ontbrekend gegeven)</i>
                                    </td>
                                </tr>
                                <tr>
                                    <th>Detail</th>
                                    <td>Localized lupus erythematosus</td>
                                </tr>
                            </tbody>
                        </table>
                    </div>
                </text>
                <extension url="http://hl7.org/fhir/StructureDefinition/flag-detail">
                    <valueReference>
                        <reference value="urn:uuid:3c6c7fcb-8faf-11ea-6223-020000000000"/>
                        <display value="Localized lupus erythematosus"/>
                    </valueReference>
                </extension>
                <status>
                    <extension url="http://hl7.org/fhir/StructureDefinition/data-absent-reason">
                        <valueCode value="unknown"/>
                    </extension>
                </status>
                <category>
                    <coding>
                        <system value="http://loinc.org"/>
                        <code value="75323-6"/>
                        <display value="conditie"/>
                    </coding>
                </category>
                <code>
                    <extension url="http://hl7.org/fhir/StructureDefinition/data-absent-reason">
                        <valueCode value="unknown"/>
                    </extension>
                </code>
                <subject>
                    <reference value="urn:uuid:3c6c7287-8faf-11ea-6223-020000000000"/>
                    <display value="I. XXX_Jangi"/>
                </subject>
            </Flag>
        </resource>
        <search>
            <mode value="match"/>
        </search>
    </entry>
    <entry>
        <fullUrl value="urn:uuid:3c6c7fcb-8faf-11ea-6223-020000000000"/>
        <resource>
            <Condition>
                <meta>
                    <profile value="http://nictiz.nl/fhir/StructureDefinition/zib-Problem"/>
                </meta>
                <text>
                    <status value="generated"/>
                    <div xmlns="http://www.w3.org/1999/xhtml">
                        <table>
                            <caption>Aandoening. Subject: I. XXX_Jangi. Categorie: <span title="Functionele Beperking (248536006 - SNOMED CT)">Functionele Beperking</span>, Status: actief / bevestigd</caption>
                            <tfoot>
                                <tr>
                                    <td colspan="2">matig ernstig</td>
                                </tr>
                            </tfoot>
                            <tbody>
                                <tr>
                                    <th>Code</th>
                                    <td>
                                        <span title="Localized lupus erythematosus (21021000146108 - SNOMED CT)">Localized lupus erythematosus</span>
                                    </td>
                                </tr>
                                <tr>
                                    <th>Informant</th>
                                    <td>achternaam-contact, achternaam-contact</td>
                                </tr>
                                <tr>
                                    <th>Eerste symptomen</th>
                                    <td>Vanaf 00:00:00, 7 januari 2016</td>
                                </tr>
                            </tbody>
                        </table>
                    </div>
                </text>
                <clinicalStatus value="active"/>
                <verificationStatus value="confirmed"/>
                <category>
                    <coding>
                        <system value="http://snomed.info/sct"/>
                        <code value="248536006"/>
                        <display value="Functionele Beperking"/>
                    </coding>
                </category>
                <code>
                    <coding>
                        <system value="http://snomed.info/sct"/>
                        <code value="21021000146108"/>
                        <display value="Localized lupus erythematosus"/>
                    </coding>
                </code>
                <bodySite>
                    <extension url="http://nictiz.nl/fhir/StructureDefinition/BodySite-Qualifier">
                        <valueCodeableConcept>
                            <coding>
                                <system value="http://snomed.info/sct"/>
                                <code value="7771000"/>
                                <display value="Links"/>
                            </coding>
                        </valueCodeableConcept>
                    </extension>
                    <coding>
                        <system value="http://snomed.info/sct"/>
                        <code value="302545001"/>
                        <display value="Entire foot"/>
                    </coding>
                </bodySite>
                <subject>
                    <reference value="urn:uuid:3c6c7287-8faf-11ea-6223-020000000000"/>
                    <display value="I. XXX_Jangi"/>
                </subject>
                <onsetPeriod>
                    <start value="2016-01-07T00:00:00+01:00"/>
                </onsetPeriod>
                <asserter>
                    <reference value="urn:uuid:3c6c8cd9-8faf-11ea-6223-020000000000"/>
                    <reference value="urn:uuid:3c6c8cd9-8faf-11ea-6223-020000000000"/>
                    <display value="achternaam-contact"/>
                    <display value="achternaam-contact"/>
                </asserter>
                <note>
                    <text value="matig ernstig"/>
                </note>
            </Condition>
        </resource>
        <search>
            <mode value="match"/>
        </search>
    </entry>
    <entry>
        <fullUrl value="urn:uuid:3c6c7287-8faf-11ea-6223-020000000000"/>
        <resource>
            <Patient>
                <meta>
                    <profile value="http://fhir.nl/fhir/StructureDefinition/nl-core-patient"/>
                </meta>
                <text>
                    <status value="generated"/>
                    <div xmlns="http://www.w3.org/1999/xhtml">
                        <div>Id 999911727 (BSN), Id 10009 (urn:oid:2.16.840.1.113883.2.4.3.11.999.77.19829.1), I. XXX_Jangi, Man, 2 augustus 1964</div>
                        <div>
                            <a href="tel:+31612345678">+31612345678</a> (Tel Privé)</div>
                        <div>Knolweg 1002, 9999ZZ Stitswerd (Bezoek Bezoek)</div>
                    </div>
                </text>
                <identifier>
                    <system value="http://fhir.nl/fhir/NamingSystem/bsn"/>
                    <value value="999911727"/>
                </identifier>
                <identifier>
                    <system value="urn:oid:2.16.840.1.113883.2.4.3.11.999.77.19829.1"/>
                    <value value="10009"/>
                </identifier>
                <name>
                    <extension url="http://hl7.org/fhir/StructureDefinition/humanname-assembly-order">
                        <valueCode value="NL1"/>
                    </extension>
                    <family value="XXX_Jangi">
                        <extension url="http://hl7.org/fhir/StructureDefinition/humanname-own-name">
                            <valueString value="XXX_Jangi"/>
                        </extension>
                    </family>
                    <given value="I.">
                        <extension url="http://hl7.org/fhir/StructureDefinition/iso21090-EN-qualifier">
                            <valueCode value="IN"/>
                        </extension>
                    </given>
                </name>
                <telecom>
                    <system value="phone">
                        <extension url="http://nictiz.nl/fhir/StructureDefinition/code-specification">
                            <valueCodeableConcept>
                                <coding>
                                    <system value="urn:oid:2.16.840.1.113883.2.4.3.11.60.40.4.22.1"/>
                                    <code value="LL"/>
                                    <display value="Vast telefoonnummer"/>
                                </coding>
                            </valueCodeableConcept>
                        </extension>
                    </system>
                    <value value="+31612345678"/>
                    <use value="home">
                        <extension url="http://nictiz.nl/fhir/StructureDefinition/code-specification">
                            <valueCodeableConcept>
                                <coding>
                                    <system value="http://hl7.org/fhir/v3/AddressUse"/>
                                    <code value="HP"/>
                                    <display value="Telefoonnummer thuis"/>
                                </coding>
                            </valueCodeableConcept>
                        </extension>
                    </use>
                </telecom>
                <gender value="male"/>
                <birthDate value="1964-08-02"/>
                <address>
                    <use value="home">
                        <extension url="http://hl7.org/fhir/StructureDefinition/iso21090-AD-use">
                            <valueCode value="PHYS"/>
                        </extension>
                    </use>
                    <type value="physical"/>
                    <line value="Knolweg 1002">
                        <extension url="http://hl7.org/fhir/StructureDefinition/iso21090-ADXP-streetName">
                            <valueString value="Knolweg"/>
                        </extension>
                        <extension url="http://hl7.org/fhir/StructureDefinition/iso21090-ADXP-houseNumber">
                            <valueString value="1002"/>
                        </extension>
                    </line>
                    <city value="Stitswerd"/>
                    <postalCode value="9999ZZ"/>
                </address>
            </Patient>
        </resource>
        <search>
            <mode value="include"/>
        </search>
    </entry>
    <entry>
        <fullUrl value="urn:uuid:3c6c7fe0-8faf-11ea-6223-020000000000"/>
        <resource>
            <Practitioner>
                <meta>
                    <profile value="http://fhir.nl/fhir/StructureDefinition/nl-core-practitioner"/>
                </meta>
                <text>
                    <status value="generated"/>
                    <div xmlns="http://www.w3.org/1999/xhtml">
                        <div>Id zorgverlener-01 (urn:oid:2.16.840.1.113883.2.4.4.11.999.26.1.139), van der Spek</div>
                    </div>
                </text>
                <identifier>
                    <system value="urn:oid:2.16.840.1.113883.2.4.4.11.999.26.1.139"/>
                    <value value="zorgverlener-01"/>
                </identifier>
                <name>
                    <extension url="http://hl7.org/fhir/StructureDefinition/humanname-assembly-order">
                        <valueCode value="NL1"/>
                    </extension>
                    <family value="van der Spek">
                        <extension url="http://hl7.org/fhir/StructureDefinition/humanname-own-prefix">
                            <valueString value="van der"/>
                        </extension>
                        <extension url="http://hl7.org/fhir/StructureDefinition/humanname-own-name">
                            <valueString value="Spek"/>
                        </extension>
                    </family>
                </name>
            </Practitioner>
        </resource>
        <search>
            <mode value="include"/>
        </search>
    </entry>
    <entry>
        <fullUrl value="urn:uuid:3c6c8cd4-8faf-11ea-6223-020000000000"/>
        <resource>
            <Organization>
                <meta>
                    <profile value="http://fhir.nl/fhir/StructureDefinition/nl-core-organization"/>
                </meta>
                <text>
                    <status value="generated"/>
                    <div xmlns="http://www.w3.org/1999/xhtml">
                        <table>
                            <caption>OrganisatieId: zorgaanbieder-01 (urn:oid:2.16.840.1.113883.2.4.4.11.999.26.1.205)</caption>
                            <tbody>
                                <tr>
                                    <th>Naam</th>
                                    <td>Bedrijfsartsenconsortium - Vestiging Amsterdam</td>
                                </tr>
                                <tr>
                                    <th>Type</th>
                                    <td>
                                        <div>
                                            <span title="Overige artsen, basisarts (8425 - AGB-medisch specialisme)">Overige artsen, basisarts</span>
                                        </div>
                                        <div>
                                            <span title="Preventieve gezondheidszorg (P6 - RoleCodeNL Zorgaanbiedertype)">Preventieve gezondheidszorg</span>
                                        </div>
                                    </td>
                                </tr>
                            </tbody>
                        </table>
                    </div>
                </text>
                <identifier>
                    <system value="urn:oid:2.16.840.1.113883.2.4.4.11.999.26.1.205"/>
                    <value value="zorgaanbieder-01"/>
                </identifier>
                <type>
                    <coding>
                        <system value="urn:oid:2.16.840.1.113883.2.4.6.7"/>
                        <code value="8425"/>
                        <display value="Overige artsen, basisarts"/>
                    </coding>
                </type>
                <type>
                    <coding>
                        <system value="urn:oid:2.16.840.1.113883.2.4.15.1060"/>
                        <code value="P6"/>
                        <display value="Preventieve gezondheidszorg"/>
                    </coding>
                </type>
                <name value="Bedrijfsartsenconsortium - Vestiging Amsterdam"/>
            </Organization>
        </resource>
        <search>
            <mode value="include"/>
        </search>
    </entry>
    <entry>
        <fullUrl value="urn:uuid:3c6c7fa6-8faf-11ea-6223-020000000000"/>
        <resource>
            <PractitionerRole>
                <meta>
                    <profile value="http://fhir.nl/fhir/StructureDefinition/nl-core-practitionerrole"/>
                </meta>
                <text>
                    <status value="generated"/>
                    <div xmlns="http://www.w3.org/1999/xhtml">
                        <table>
                            <caption>Zorgverlenerrol</caption>
                            <tbody>
                                <tr>
                                    <th>Zorgverlener</th>
                                    <td>
                                        <div>van der Spek</div>
                                        <div>Bedrijfsartsenconsortium - Vestiging Amsterdam</div>
                                    </td>
                                </tr>
                                <tr>
                                    <th>Specialisme</th>
                                    <td>
                                        <span title="Bedrijfsarts (01.008 - http://fhir.nl/fhir/NamingSystem/uzi-rolcode)">Bedrijfsarts</span>
                                    </td>
                                </tr>
                                <tr>
                                    <th>Contactgegevens</th>
                                    <td>
                                        <a href="tel:0701234567">0701234567</a> (Tel Werk)</td>
                                </tr>
                            </tbody>
                        </table>
                    </div>
                </text>
                <practitioner>
                    <reference value="urn:uuid:3c6c7fe0-8faf-11ea-6223-020000000000"/>
                    <display value="van der Spek"/>
                </practitioner>
                <organization>
                    <reference value="urn:uuid:3c6c8cd4-8faf-11ea-6223-020000000000"/>
                    <display value="Bedrijfsartsenconsortium - Vestiging Amsterdam"/>
                </organization>
                <specialty>
                    <coding>
                        <system value="http://fhir.nl/fhir/NamingSystem/uzi-rolcode"/>
                        <code value="01.008"/>
                        <display value="Bedrijfsarts"/>
                    </coding>
                </specialty>
                <telecom>
                    <system value="phone">
                        <extension url="http://nictiz.nl/fhir/StructureDefinition/code-specification">
                            <valueCodeableConcept>
                                <coding>
                                    <system value="urn:oid:2.16.840.1.113883.2.4.3.11.60.40.4.22.1"/>
                                    <code value="LL"/>
                                    <display value="Vast telefoonnummer"/>
                                </coding>
                            </valueCodeableConcept>
                        </extension>
                    </system>
                    <value value="0701234567"/>
                    <use value="work">
                        <extension url="http://nictiz.nl/fhir/StructureDefinition/code-specification">
                            <valueCodeableConcept>
                                <coding>
                                    <system value="http://hl7.org/fhir/v3/AddressUse"/>
                                    <code value="WP"/>
                                    <display value="Zakelijk telefoonnummer"/>
                                </coding>
                            </valueCodeableConcept>
                        </extension>
                    </use>
                </telecom>
            </PractitionerRole>
        </resource>
        <search>
            <mode value="include"/>
        </search>
    </entry>
    <entry>
        <fullUrl value="urn:uuid:3c6c8cd9-8faf-11ea-6223-020000000000"/>
        <resource>
            <RelatedPerson>
                <meta>
                    <profile value="http://fhir.nl/fhir/StructureDefinition/nl-core-relatedperson"/>
                </meta>
                <text>
                    <status value="generated"/>
                    <div xmlns="http://www.w3.org/1999/xhtml">
                        <div>achternaam-contact</div>
                        <div>
                            <span title="Curator (juridisch) (3 - RoleCodeLijst (COD472-VEKT))">Curator (juridisch)</span>, <span title="Adoptievader (ADOPTF - v3/RoleCode)">Adoptievader</span> van I. XXX_Jangi</div>
                    </div>
                </text>
                <extension url="http://fhir.nl/fhir/StructureDefinition/nl-core-relatedperson-role">
                    <valueCodeableConcept>
                        <coding>
                            <system value="urn:oid:2.16.840.1.113883.2.4.3.11.22.472"/>
                            <code value="3"/>
                            <display value="Curator (juridisch)"/>
                        </coding>
                    </valueCodeableConcept>
                </extension>
                <patient>
                    <reference value="urn:uuid:3c6c7287-8faf-11ea-6223-020000000000"/>
                    <display value="I. XXX_Jangi"/>
                </patient>
                <relationship>
                    <coding>
                        <system value="http://hl7.org/fhir/v3/RoleCode"/>
                        <code value="ADOPTF"/>
                        <display value="Adoptievader"/>
                    </coding>
                </relationship>
                <name>
                    <extension url="http://hl7.org/fhir/StructureDefinition/humanname-assembly-order">
                        <valueCode value="NL1"/>
                    </extension>
                    <family value="achternaam-contact">
                        <extension url="http://hl7.org/fhir/StructureDefinition/humanname-own-name">
                            <valueString value="achternaam-contact"/>
                        </extension>
                    </family>
                </name>
            </RelatedPerson>
        </resource>
        <search>
            <mode value="include"/>
        </search>
    </entry>
</Bundle>
