<?xml version="1.0" encoding="UTF-8"?><Bundle xmlns="http://hl7.org/fhir"        xmlns:xsi="http://www.w3.org/2001/XMLSchema-instance"        xsi:schemaLocation="http://hl7.org/fhir http://hl7.org/fhir/STU3/bundle.xsd">    <type value="searchset"/>    <total value="8"/>    <entry>        <fullUrl value="urn:uuid:df53b326-9aa0-11ea-2046-8cec4bdca314"/>        <resource>            <AllergyIntolerance>                <meta>                    <profile value="http://nictiz.nl/fhir/StructureDefinition/mp612-AllergyIntoleranceToFHIRConversion"/>                </meta>                <text>                    <status value="generated"/>                    <div xmlns="http://www.w3.org/1999/xhtml">                        <table>                            <caption>Allergie/intolerantie. Patiënt: J. XXX_Cevat. Id: CIO_01_01 (urn:oid:2.16.840.1.113883.2.4.3.111.19.1), Categorie:                                 <span title="neiging tot ongewenste reactie op geneesmiddel (419511003 - SNOMED CT)">neiging tot ongewenste reactie op geneesmiddel</span>, Status: actief /                                <i>onbekend (ontbrekend gegeven)</i>                                <span style="display: block;">Ingevoerd door: inwendige geneeskunde 70001001 PLT, inwendige geneeskunde 70001001 PLT                                    <div>Zorgverlenerrol: inwendige geneeskunde 70001001 PLT, inwendige geneeskunde 70001001 PLT</div>                                </span>                            </caption>                            <tfoot>                                <tr>                                    <td colspan="2">Rode vlekken en jeuk. Geldt alleen voor dit merk. Door auteur met id: '111111111' in identificerend systeem: UZI Personen ('2.16.528.1.1007.3.1')</td>                                </tr>                            </tfoot>                            <tbody>                                <tr>                                    <th>Code</th>                                    <td>                                        <span title="paracetamol TABLET 500/125MG (1127038 - G-Standaard HPK)">paracetamol TABLET 500/125MG</span>                                    </td>                                </tr>                                <tr>                                    <th>Informant</th>                                    <td>15:13:28, 23 maart 2020 - J. XXX_Cevat, J. XXX_Cevat</td>                                </tr>                                <tr>                                    <th>Eerste symptomen</th>                                    <td>15:13:28, 3 maart 2020</td>                                </tr>                            </tbody>                        </table>                    </div>                </text>                <identifier>                    <system value="urn:oid:2.16.840.1.113883.2.4.3.111.19.1"/>                    <value value="CIO_01_01"/>                </identifier>                <clinicalStatus value="active">                    <extension url="http://nictiz.nl/fhir/StructureDefinition/code-specification">                        <valueCodeableConcept>                            <coding>                                <system value="http://hl7.org/fhir/v3/ActStatus"/>                                <code value="active"/>                                <display value="active"/>                            </coding>                        </valueCodeableConcept>                    </extension>                </clinicalStatus>                <verificationStatus>                    <extension url="http://hl7.org/fhir/StructureDefinition/data-absent-reason">                        <valueCode value="unknown"/>                    </extension>                </verificationStatus>                <category value="medication">                    <extension url="http://nictiz.nl/fhir/StructureDefinition/code-specification">                        <valueCodeableConcept>                            <coding>                                <system value="http://snomed.info/sct"/>                                <code value="419511003"/>                                <display value="neiging tot ongewenste reactie op geneesmiddel"/>                            </coding>                        </valueCodeableConcept>                    </extension>                </category>                <code>                    <coding>                        <system value="urn:oid:2.16.840.1.113883.2.4.4.7"/>                        <code value="1127038"/>                        <display value="paracetamol TABLET 500/125MG"/>                    </coding>                </code>                <patient>                    <reference value="urn:uuid:df53b815-9aa0-11ea-2046-8cec4bdca314"/>                    <display value="J. XXX_Cevat"/>                </patient>                <onsetDateTime value="2020-03-03T15:13:28+01:00"/>                <assertedDate value="2020-03-23T15:13:28+01:00"/>                <recorder>                    <extension url="http://nictiz.nl/fhir/StructureDefinition/practitionerrole-reference">                        <valueReference>                            <reference value="urn:uuid:df53b32e-9aa0-11ea-2046-8cec4bdca314"/>                            <display value="inwendige geneeskunde 70001001 PLT"/>                        </valueReference>                    </extension>                    <extension url="http://nictiz.nl/fhir/StructureDefinition/practitionerrole-reference">                        <valueReference>                            <reference value="urn:uuid:df53b32e-9aa0-11ea-2046-8cec4bdca314"/>                            <display value="inwendige geneeskunde 70001001 PLT"/>                        </valueReference>                    </extension>                    <display value="inwendige geneeskunde 70001001 PLT"/>                    <display value="inwendige geneeskunde 70001001 PLT"/>                </recorder>                <asserter>                    <reference value="urn:uuid:df53b815-9aa0-11ea-2046-8cec4bdca314"/>                    <reference value="urn:uuid:df53b815-9aa0-11ea-2046-8cec4bdca314"/>                    <display value="J. XXX_Cevat"/>                    <display value="J. XXX_Cevat"/>                </asserter>                <note>                    <text value="Rode vlekken en jeuk. Geldt alleen voor dit merk. Door auteur met id: '111111111' in identificerend systeem: UZI Personen ('2.16.528.1.1007.3.1')"/>                </note>            </AllergyIntolerance>        </resource>        <search>            <mode value="match"/>        </search>    </entry>    <entry>        <fullUrl value="urn:uuid:df53b338-9aa0-11ea-2046-8cec4bdca314"/>        <resource>            <AllergyIntolerance>                <meta>                    <profile value="http://nictiz.nl/fhir/StructureDefinition/mp612-AllergyIntoleranceToFHIRConversion"/>                </meta>                <text>                    <status value="generated"/>                    <div xmlns="http://www.w3.org/1999/xhtml">                        <table>                            <caption>Allergie/intolerantie. Patiënt: J. XXX_Cevat. Id: CIO_01_02 (urn:oid:2.16.840.1.113883.2.4.3.111.19.1), Categorie:                                 <span title="neiging tot ongewenste reactie op geneesmiddel (419511003 - SNOMED CT)">neiging tot ongewenste reactie op geneesmiddel</span>, Status: actief /                                <i>onbekend (ontbrekend gegeven)</i>                                <span style="display: block;">Ingevoerd door: inwendige geneeskunde 70001001 PLT, inwendige geneeskunde 70001001 PLT                                    <div>Zorgverlenerrol: inwendige geneeskunde 70001001 PLT, inwendige geneeskunde 70001001 PLT</div>                                </span>                            </caption>                            <tfoot>                                <tr>                                    <td colspan="2">Overgevoeligheid leidt tot paarse vlekjes op de huid en jeuk. Door auteur met id: '111111111' in identificerend systeem: UZI Personen ('2.16.528.1.1007.3.1')</td>                                </tr>                            </tfoot>                            <tbody>                                <tr>                                    <th>Code</th>                                    <td>                                        <span title="Aspirine (23168 - G-Standaard Bestand 750)">Aspirine</span>                                    </td>                                </tr>                                <tr>                                    <th>Informant</th>                                    <td>15:13:28, 22 februari 2020 - Persoonsidentificatie: 111111111 (uit codesysteem UZI Personen )., Persoonsidentificatie: 111111111 (uit codesysteem UZI Personen ).                                        <div>Zorgverlenerrol: Persoonsidentificatie: 111111111 (uit codesysteem UZI Personen )., Persoonsidentificatie: 111111111 (uit codesysteem UZI Personen ).</div>                                    </td>                                </tr>                                <tr>                                    <th>Eerste symptomen</th>                                    <td>15:13:28, 13 januari 2020</td>                                </tr>                            </tbody>                        </table>                    </div>                </text>                <identifier>                    <system value="urn:oid:2.16.840.1.113883.2.4.3.111.19.1"/>                    <value value="CIO_01_02"/>                </identifier>                <clinicalStatus value="active">                    <extension url="http://nictiz.nl/fhir/StructureDefinition/code-specification">                        <valueCodeableConcept>                            <coding>                                <system value="http://hl7.org/fhir/v3/ActStatus"/>                                <code value="active"/>                                <display value="active"/>                            </coding>                        </valueCodeableConcept>                    </extension>                </clinicalStatus>                <verificationStatus>                    <extension url="http://hl7.org/fhir/StructureDefinition/data-absent-reason">                        <valueCode value="unknown"/>                    </extension>                </verificationStatus>                <category value="medication">                    <extension url="http://nictiz.nl/fhir/StructureDefinition/code-specification">                        <valueCodeableConcept>                            <coding>                                <system value="http://snomed.info/sct"/>                                <code value="419511003"/>                                <display value="neiging tot ongewenste reactie op geneesmiddel"/>                            </coding>                        </valueCodeableConcept>                    </extension>                </category>                <code>                    <coding>                        <system value="urn:oid:2.16.840.1.113883.2.4.4.1.750"/>                        <code value="23168"/>                        <display value="Aspirine"/>                    </coding>                </code>                <patient>                    <reference value="urn:uuid:df53b815-9aa0-11ea-2046-8cec4bdca314"/>                    <display value="J. XXX_Cevat"/>                </patient>                <onsetDateTime value="2020-01-13T15:13:28+01:00"/>                <assertedDate value="2020-02-22T15:13:28+01:00"/>                <recorder>                    <extension url="http://nictiz.nl/fhir/StructureDefinition/practitionerrole-reference">                        <valueReference>                            <reference value="urn:uuid:df53b340-9aa0-11ea-2046-8cec4bdca314"/>                            <display value="inwendige geneeskunde 70001001 PLT"/>                        </valueReference>                    </extension>                    <extension url="http://nictiz.nl/fhir/StructureDefinition/practitionerrole-reference">                        <valueReference>                            <reference value="urn:uuid:df53b340-9aa0-11ea-2046-8cec4bdca314"/>                            <display value="inwendige geneeskunde 70001001 PLT"/>                        </valueReference>                    </extension>                    <display value="inwendige geneeskunde 70001001 PLT"/>                    <display value="inwendige geneeskunde 70001001 PLT"/>                </recorder>                <asserter>                    <extension url="http://nictiz.nl/fhir/StructureDefinition/practitionerrole-reference">                        <valueReference>                            <reference value="urn:uuid:df53b33d-9aa0-11ea-2046-8cec4bdca314"/>                            <display value="Persoonsidentificatie: 111111111 (uit codesysteem UZI Personen )."/>                        </valueReference>                    </extension>                    <extension url="http://nictiz.nl/fhir/StructureDefinition/practitionerrole-reference">                        <valueReference>                            <reference value="urn:uuid:df53b33d-9aa0-11ea-2046-8cec4bdca314"/>                            <display value="Persoonsidentificatie: 111111111 (uit codesysteem UZI Personen )."/>                        </valueReference>                    </extension>                    <display value="Persoonsidentificatie: 111111111 (uit codesysteem UZI Personen )."/>                    <display value="Persoonsidentificatie: 111111111 (uit codesysteem UZI Personen )."/>                </asserter>                <note>                    <text value="Overgevoeligheid leidt tot paarse vlekjes op de huid en jeuk. Door auteur met id: '111111111' in identificerend systeem: UZI Personen ('2.16.528.1.1007.3.1')"/>                </note>            </AllergyIntolerance>        </resource>        <search>            <mode value="match"/>        </search>    </entry>    <entry>        <fullUrl value="urn:uuid:df53b34a-9aa0-11ea-2046-8cec4bdca314"/>        <resource>            <AllergyIntolerance>                <meta>                    <profile value="http://nictiz.nl/fhir/StructureDefinition/mp612-AllergyIntoleranceToFHIRConversion"/>                </meta>                <text>                    <status value="generated"/>                    <div xmlns="http://www.w3.org/1999/xhtml">                        <table>                            <caption>Allergie/intolerantie. Patiënt: J. XXX_Cevat. Id: CIO_01_03 (urn:oid:2.16.840.1.113883.2.4.3.111.19.1), Categorie:                                 <span title="neiging tot ongewenste reactie op geneesmiddel (419511003 - SNOMED CT)">neiging tot ongewenste reactie op geneesmiddel</span>, Status: actief /                                <i>onbekend (ontbrekend gegeven)</i>                                <span style="display: block;">Ingevoerd door: chirurgie, chirurgie                                    <div>Zorgverlenerrol: chirurgie, chirurgie</div>                                </span>                            </caption>                            <tfoot>                                <tr>                                    <td colspan="2">Allergie leidt tot jeuk. Geconstateerd tijdens operatie. Door auteur met id: '333333333' in identificerend systeem: UZI Personen ('2.16.528.1.1007.3.1')</td>                                </tr>                            </tfoot>                            <tbody>                                <tr>                                    <th>Code</th>                                    <td>                                        <span title="Aspirine oraal (16322 - G-Standaard Bestand 725)">Aspirine oraal</span>                                    </td>                                </tr>                                <tr>                                    <th>Informant</th>                                    <td>15:13:28, 23 januari 2020 - Persoonsidentificatie: 333333333 (uit codesysteem UZI Personen )., Persoonsidentificatie: 333333333 (uit codesysteem UZI Personen ).                                        <div>Zorgverlenerrol: Persoonsidentificatie: 333333333 (uit codesysteem UZI Personen )., Persoonsidentificatie: 333333333 (uit codesysteem UZI Personen ).</div>                                    </td>                                </tr>                                <tr>                                    <th>Eerste symptomen</th>                                    <td>15:13:28, 24 november 2019</td>                                </tr>                            </tbody>                        </table>                    </div>                </text>                <identifier>                    <system value="urn:oid:2.16.840.1.113883.2.4.3.111.19.1"/>                    <value value="CIO_01_03"/>                </identifier>                <clinicalStatus value="active">                    <extension url="http://nictiz.nl/fhir/StructureDefinition/code-specification">                        <valueCodeableConcept>                            <coding>                                <system value="http://hl7.org/fhir/v3/ActStatus"/>                                <code value="active"/>                                <display value="active"/>                            </coding>                        </valueCodeableConcept>                    </extension>                </clinicalStatus>                <verificationStatus>                    <extension url="http://hl7.org/fhir/StructureDefinition/data-absent-reason">                        <valueCode value="unknown"/>                    </extension>                </verificationStatus>                <category value="medication">                    <extension url="http://nictiz.nl/fhir/StructureDefinition/code-specification">                        <valueCodeableConcept>                            <coding>                                <system value="http://snomed.info/sct"/>                                <code value="419511003"/>                                <display value="neiging tot ongewenste reactie op geneesmiddel"/>                            </coding>                        </valueCodeableConcept>                    </extension>                </category>                <code>                    <coding>                        <system value="urn:oid:2.16.840.1.113883.2.4.4.1.725"/>                        <code value="16322"/>                        <display value="Aspirine oraal"/>                    </coding>                </code>                <patient>                    <reference value="urn:uuid:df53b815-9aa0-11ea-2046-8cec4bdca314"/>                    <display value="J. XXX_Cevat"/>                </patient>                <onsetDateTime value="2019-11-24T15:13:28+01:00"/>                <assertedDate value="2020-01-23T15:13:28+01:00"/>                <recorder>                    <extension url="http://nictiz.nl/fhir/StructureDefinition/practitionerrole-reference">                        <valueReference>                            <reference value="urn:uuid:df53b352-9aa0-11ea-2046-8cec4bdca314"/>                            <display value="chirurgie"/>                        </valueReference>                    </extension>                    <extension url="http://nictiz.nl/fhir/StructureDefinition/practitionerrole-reference">                        <valueReference>                            <reference value="urn:uuid:df53b352-9aa0-11ea-2046-8cec4bdca314"/>                            <display value="chirurgie"/>                        </valueReference>                    </extension>                    <display value="chirurgie"/>                    <display value="chirurgie"/>                </recorder>                <asserter>                    <extension url="http://nictiz.nl/fhir/StructureDefinition/practitionerrole-reference">                        <valueReference>                            <reference value="urn:uuid:df53b34f-9aa0-11ea-2046-8cec4bdca314"/>                            <display value="Persoonsidentificatie: 333333333 (uit codesysteem UZI Personen )."/>                        </valueReference>                    </extension>                    <extension url="http://nictiz.nl/fhir/StructureDefinition/practitionerrole-reference">                        <valueReference>                            <reference value="urn:uuid:df53b34f-9aa0-11ea-2046-8cec4bdca314"/>                            <display value="Persoonsidentificatie: 333333333 (uit codesysteem UZI Personen )."/>                        </valueReference>                    </extension>                    <display value="Persoonsidentificatie: 333333333 (uit codesysteem UZI Personen )."/>                    <display value="Persoonsidentificatie: 333333333 (uit codesysteem UZI Personen )."/>                </asserter>                <note>                    <text value="Allergie leidt tot jeuk. Geconstateerd tijdens operatie. Door auteur met id: '333333333' in identificerend systeem: UZI Personen ('2.16.528.1.1007.3.1')"/>                </note>            </AllergyIntolerance>        </resource>        <search>            <mode value="match"/>        </search>    </entry>    <entry>        <fullUrl value="urn:uuid:df53b35c-9aa0-11ea-2046-8cec4bdca314"/>        <resource>            <AllergyIntolerance>                <meta>                    <profile value="http://nictiz.nl/fhir/StructureDefinition/mp612-AllergyIntoleranceToFHIRConversion"/>                </meta>                <text>                    <status value="generated"/>                    <div xmlns="http://www.w3.org/1999/xhtml">                        <table>                            <caption>Allergie/intolerantie. Patiënt: J. XXX_Cevat. Id: CIO_01_04 (urn:oid:2.16.840.1.113883.2.4.3.111.19.1), Categorie:                                 <span title="neiging tot ongewenste reactie op geneesmiddel (419511003 - SNOMED CT)">neiging tot ongewenste reactie op geneesmiddel</span>, Status: actief /                                <i>onbekend (ontbrekend gegeven)</i>                                <span style="display: block;">Ingevoerd door: orthopedie, orthopedie                                    <div>Zorgverlenerrol: orthopedie, orthopedie</div>                                </span>                            </caption>                            <tbody>                                <tr>                                    <th>Code</th>                                    <td>                                        <span title="Penicillines (35 - G-Standaard Tabel 122)">Penicillines</span>                                    </td>                                </tr>                                <tr>                                    <th>Informant</th>                                    <td>15:13:28, 24 december 2019 - H. XXX_Mulders, H. XXX_Mulders</td>                                </tr>                                <tr>                                    <th>Eerste symptomen</th>                                    <td>15:13:28, 5 oktober 2019</td>                                </tr>                            </tbody>                        </table>                    </div>                </text>                <identifier>                    <system value="urn:oid:2.16.840.1.113883.2.4.3.111.19.1"/>                    <value value="CIO_01_04"/>                </identifier>                <clinicalStatus value="active">                    <extension url="http://nictiz.nl/fhir/StructureDefinition/code-specification">                        <valueCodeableConcept>                            <coding>                                <system value="http://hl7.org/fhir/v3/ActStatus"/>                                <code value="active"/>                                <display value="active"/>                            </coding>                        </valueCodeableConcept>                    </extension>                </clinicalStatus>                <verificationStatus>                    <extension url="http://hl7.org/fhir/StructureDefinition/data-absent-reason">                        <valueCode value="unknown"/>                    </extension>                </verificationStatus>                <category value="medication">                    <extension url="http://nictiz.nl/fhir/StructureDefinition/code-specification">                        <valueCodeableConcept>                            <coding>                                <system value="http://snomed.info/sct"/>                                <code value="419511003"/>                                <display value="neiging tot ongewenste reactie op geneesmiddel"/>                            </coding>                        </valueCodeableConcept>                    </extension>                </category>                <code>                    <coding>                        <system value="urn:oid:2.16.840.1.113883.2.4.4.1.902.122"/>                        <code value="35"/>                        <display value="Penicillines"/>                    </coding>                </code>                <patient>                    <reference value="urn:uuid:df53b815-9aa0-11ea-2046-8cec4bdca314"/>                    <display value="J. XXX_Cevat"/>                </patient>                <onsetDateTime value="2019-10-05T15:13:28+02:00"/>                <assertedDate value="2019-12-24T15:13:28+01:00"/>                <recorder>                    <extension url="http://nictiz.nl/fhir/StructureDefinition/practitionerrole-reference">                        <valueReference>                            <reference value="urn:uuid:df53b364-9aa0-11ea-2046-8cec4bdca314"/>                            <display value="orthopedie"/>                        </valueReference>                    </extension>                    <extension url="http://nictiz.nl/fhir/StructureDefinition/practitionerrole-reference">                        <valueReference>                            <reference value="urn:uuid:df53b364-9aa0-11ea-2046-8cec4bdca314"/>                            <display value="orthopedie"/>                        </valueReference>                    </extension>                    <display value="orthopedie"/>                    <display value="orthopedie"/>                </recorder>                <asserter>                    <reference value="urn:uuid:df53d047-9aa0-11ea-2046-8cec4bdca314"/>                    <reference value="urn:uuid:df53d047-9aa0-11ea-2046-8cec4bdca314"/>                    <display value="H. XXX_Mulders"/>                    <display value="H. XXX_Mulders"/>                </asserter>            </AllergyIntolerance>        </resource>        <search>            <mode value="match"/>        </search>    </entry>    <entry>        <fullUrl value="urn:uuid:df53d085-9aa0-11ea-2046-8cec4bdca314"/>        <resource>            <AllergyIntolerance>                <meta>                    <profile value="http://nictiz.nl/fhir/StructureDefinition/mp612-AllergyIntoleranceToFHIRConversion"/>                </meta>                <text>                    <status value="generated"/>                    <div xmlns="http://www.w3.org/1999/xhtml">                        <table>                            <caption>Allergie/intolerantie. Patiënt: J. XXX_Cevat. Id: CIO_01_01 (urn:oid:2.16.840.1.113883.2.4.3.111.19.1), Categorie:                                 <span title="neiging tot ongewenste reactie op geneesmiddel (419511003 - SNOMED CT)">neiging tot ongewenste reactie op geneesmiddel</span>, Status: actief /                                <i>onbekend (ontbrekend gegeven)</i>                                <span style="display: block;">Ingevoerd door: inwendige geneeskunde 70001001 PLT, inwendige geneeskunde 70001001 PLT                                    <div>Zorgverlenerrol: inwendige geneeskunde 70001001 PLT, inwendige geneeskunde 70001001 PLT</div>                                </span>                            </caption>                            <tfoot>                                <tr>                                    <td colspan="2">Rode vlekken en jeuk. Geldt alleen voor dit merk. Door auteur met id: '111111111' in identificerend systeem: UZI Personen ('2.16.528.1.1007.3.1')</td>                                </tr>                            </tfoot>                            <tbody>                                <tr>                                    <th>Code</th>                                    <td>                                        <span title="paracetamol TABLET 500/125MG (1127038 - G-Standaard HPK)">paracetamol TABLET 500/125MG</span>                                    </td>                                </tr>                                <tr>                                    <th>Informant</th>                                    <td>15:13:28, 23 maart 2020 - J. XXX_Cevat, J. XXX_Cevat</td>                                </tr>                                <tr>                                    <th>Eerste symptomen</th>                                    <td>15:13:28, 3 maart 2020</td>                                </tr>                            </tbody>                        </table>                    </div>                </text>                <identifier>                    <system value="urn:oid:2.16.840.1.113883.2.4.3.111.19.1"/>                    <value value="CIO_01_01"/>                </identifier>                <clinicalStatus value="active">                    <extension url="http://nictiz.nl/fhir/StructureDefinition/code-specification">                        <valueCodeableConcept>                            <coding>                                <system value="http://hl7.org/fhir/v3/ActStatus"/>                                <code value="active"/>                                <display value="active"/>                            </coding>                        </valueCodeableConcept>                    </extension>                </clinicalStatus>                <verificationStatus>                    <extension url="http://hl7.org/fhir/StructureDefinition/data-absent-reason">                        <valueCode value="unknown"/>                    </extension>                </verificationStatus>                <category value="medication">                    <extension url="http://nictiz.nl/fhir/StructureDefinition/code-specification">                        <valueCodeableConcept>                            <coding>                                <system value="http://snomed.info/sct"/>                                <code value="419511003"/>                                <display value="neiging tot ongewenste reactie op geneesmiddel"/>                            </coding>                        </valueCodeableConcept>                    </extension>                </category>                <code>                    <coding>                        <system value="urn:oid:2.16.840.1.113883.2.4.4.7"/>                        <code value="1127038"/>                        <display value="paracetamol TABLET 500/125MG"/>                    </coding>                </code>                <patient>                    <reference value="urn:uuid:df53b815-9aa0-11ea-2046-8cec4bdca314"/>                    <display value="J. XXX_Cevat"/>                </patient>                <onsetDateTime value="2020-03-03T15:13:28+01:00"/>                <assertedDate value="2020-03-23T15:13:28+01:00"/>                <recorder>                    <extension url="http://nictiz.nl/fhir/StructureDefinition/practitionerrole-reference">                        <valueReference>                            <reference value="urn:uuid:df53d08d-9aa0-11ea-2046-8cec4bdca314"/>                            <display value="inwendige geneeskunde 70001001 PLT"/>                        </valueReference>                    </extension>                    <extension url="http://nictiz.nl/fhir/StructureDefinition/practitionerrole-reference">                        <valueReference>                            <reference value="urn:uuid:df53d08d-9aa0-11ea-2046-8cec4bdca314"/>                            <display value="inwendige geneeskunde 70001001 PLT"/>                        </valueReference>                    </extension>                    <display value="inwendige geneeskunde 70001001 PLT"/>                    <display value="inwendige geneeskunde 70001001 PLT"/>                </recorder>                <asserter>                    <reference value="urn:uuid:df53b815-9aa0-11ea-2046-8cec4bdca314"/>                    <reference value="urn:uuid:df53b815-9aa0-11ea-2046-8cec4bdca314"/>                    <display value="J. XXX_Cevat"/>                    <display value="J. XXX_Cevat"/>                </asserter>                <note>                    <text value="Rode vlekken en jeuk. Geldt alleen voor dit merk. Door auteur met id: '111111111' in identificerend systeem: UZI Personen ('2.16.528.1.1007.3.1')"/>                </note>            </AllergyIntolerance>        </resource>        <search>            <mode value="match"/>        </search>    </entry>    <entry>        <fullUrl value="urn:uuid:df53d097-9aa0-11ea-2046-8cec4bdca314"/>        <resource>            <AllergyIntolerance>                <meta>                    <profile value="http://nictiz.nl/fhir/StructureDefinition/mp612-AllergyIntoleranceToFHIRConversion"/>                </meta>                <text>                    <status value="generated"/>                    <div xmlns="http://www.w3.org/1999/xhtml">                        <table>                            <caption>Allergie/intolerantie. Patiënt: J. XXX_Cevat. Id: CIO_01_02 (urn:oid:2.16.840.1.113883.2.4.3.111.19.1), Categorie:                                 <span title="neiging tot ongewenste reactie op geneesmiddel (419511003 - SNOMED CT)">neiging tot ongewenste reactie op geneesmiddel</span>, Status: actief /                                <i>onbekend (ontbrekend gegeven)</i>                                <span style="display: block;">Ingevoerd door: inwendige geneeskunde 70001001 PLT, inwendige geneeskunde 70001001 PLT                                    <div>Zorgverlenerrol: inwendige geneeskunde 70001001 PLT, inwendige geneeskunde 70001001 PLT</div>                                </span>                            </caption>                            <tfoot>                                <tr>                                    <td colspan="2">Overgevoeligheid leidt tot paarse vlekjes op de huid en jeuk. Door auteur met id: '111111111' in identificerend systeem: UZI Personen ('2.16.528.1.1007.3.1')</td>                                </tr>                            </tfoot>                            <tbody>                                <tr>                                    <th>Code</th>                                    <td>                                        <span title="Aspirine (23168 - G-Standaard Bestand 750)">Aspirine</span>                                    </td>                                </tr>                                <tr>                                    <th>Informant</th>                                    <td>15:13:28, 22 februari 2020 - Persoonsidentificatie: 111111111 (uit codesysteem UZI Personen )., Persoonsidentificatie: 111111111 (uit codesysteem UZI Personen ).                                        <div>Zorgverlenerrol: Persoonsidentificatie: 111111111 (uit codesysteem UZI Personen )., Persoonsidentificatie: 111111111 (uit codesysteem UZI Personen ).</div>                                    </td>                                </tr>                                <tr>                                    <th>Eerste symptomen</th>                                    <td>15:13:28, 13 januari 2020</td>                                </tr>                            </tbody>                        </table>                    </div>                </text>                <identifier>                    <system value="urn:oid:2.16.840.1.113883.2.4.3.111.19.1"/>                    <value value="CIO_01_02"/>                </identifier>                <clinicalStatus value="active">                    <extension url="http://nictiz.nl/fhir/StructureDefinition/code-specification">                        <valueCodeableConcept>                            <coding>                                <system value="http://hl7.org/fhir/v3/ActStatus"/>                                <code value="active"/>                                <display value="active"/>                            </coding>                        </valueCodeableConcept>                    </extension>                </clinicalStatus>                <verificationStatus>                    <extension url="http://hl7.org/fhir/StructureDefinition/data-absent-reason">                        <valueCode value="unknown"/>                    </extension>                </verificationStatus>                <category value="medication">                    <extension url="http://nictiz.nl/fhir/StructureDefinition/code-specification">                        <valueCodeableConcept>                            <coding>                                <system value="http://snomed.info/sct"/>                                <code value="419511003"/>                                <display value="neiging tot ongewenste reactie op geneesmiddel"/>                            </coding>                        </valueCodeableConcept>                    </extension>                </category>                <code>                    <coding>                        <system value="urn:oid:2.16.840.1.113883.2.4.4.1.750"/>                        <code value="23168"/>                        <display value="Aspirine"/>                    </coding>                </code>                <patient>                    <reference value="urn:uuid:df53b815-9aa0-11ea-2046-8cec4bdca314"/>                    <display value="J. XXX_Cevat"/>                </patient>                <onsetDateTime value="2020-01-13T15:13:28+01:00"/>                <assertedDate value="2020-02-22T15:13:28+01:00"/>                <recorder>                    <extension url="http://nictiz.nl/fhir/StructureDefinition/practitionerrole-reference">                        <valueReference>                            <reference value="urn:uuid:df53d09f-9aa0-11ea-2046-8cec4bdca314"/>                            <display value="inwendige geneeskunde 70001001 PLT"/>                        </valueReference>                    </extension>                    <extension url="http://nictiz.nl/fhir/StructureDefinition/practitionerrole-reference">                        <valueReference>                            <reference value="urn:uuid:df53d09f-9aa0-11ea-2046-8cec4bdca314"/>                            <display value="inwendige geneeskunde 70001001 PLT"/>                        </valueReference>                    </extension>                    <display value="inwendige geneeskunde 70001001 PLT"/>                    <display value="inwendige geneeskunde 70001001 PLT"/>                </recorder>                <asserter>                    <extension url="http://nictiz.nl/fhir/StructureDefinition/practitionerrole-reference">                        <valueReference>                            <reference value="urn:uuid:df53b33d-9aa0-11ea-2046-8cec4bdca314"/>                            <display value="Persoonsidentificatie: 111111111 (uit codesysteem UZI Personen )."/>                        </valueReference>                    </extension>                    <extension url="http://nictiz.nl/fhir/StructureDefinition/practitionerrole-reference">                        <valueReference>                            <reference value="urn:uuid:df53b33d-9aa0-11ea-2046-8cec4bdca314"/>                            <display value="Persoonsidentificatie: 111111111 (uit codesysteem UZI Personen )."/>                        </valueReference>                    </extension>                    <display value="Persoonsidentificatie: 111111111 (uit codesysteem UZI Personen )."/>                    <display value="Persoonsidentificatie: 111111111 (uit codesysteem UZI Personen )."/>                </asserter>                <note>                    <text value="Overgevoeligheid leidt tot paarse vlekjes op de huid en jeuk. Door auteur met id: '111111111' in identificerend systeem: UZI Personen ('2.16.528.1.1007.3.1')"/>                </note>            </AllergyIntolerance>        </resource>        <search>            <mode value="match"/>        </search>    </entry>    <entry>        <fullUrl value="urn:uuid:df53d0a9-9aa0-11ea-2046-8cec4bdca314"/>        <resource>            <AllergyIntolerance>                <meta>                    <profile value="http://nictiz.nl/fhir/StructureDefinition/mp612-AllergyIntoleranceToFHIRConversion"/>                </meta>                <text>                    <status value="generated"/>                    <div xmlns="http://www.w3.org/1999/xhtml">                        <table>                            <caption>Allergie/intolerantie. Patiënt: J. XXX_Cevat. Id: CIO_01_03 (urn:oid:2.16.840.1.113883.2.4.3.111.19.1), Categorie:                                 <span title="neiging tot ongewenste reactie op geneesmiddel (419511003 - SNOMED CT)">neiging tot ongewenste reactie op geneesmiddel</span>, Status: actief /                                <i>onbekend (ontbrekend gegeven)</i>                                <span style="display: block;">Ingevoerd door: chirurgie, chirurgie                                    <div>Zorgverlenerrol: chirurgie, chirurgie</div>                                </span>                            </caption>                            <tfoot>                                <tr>                                    <td colspan="2">Allergie leidt tot jeuk. Geconstateerd tijdens operatie. Door auteur met id: '333333333' in identificerend systeem: UZI Personen ('2.16.528.1.1007.3.1')</td>                                </tr>                            </tfoot>                            <tbody>                                <tr>                                    <th>Code</th>                                    <td>                                        <span title="Aspirine oraal (16322 - G-Standaard Bestand 725)">Aspirine oraal</span>                                    </td>                                </tr>                                <tr>                                    <th>Informant</th>                                    <td>15:13:28, 23 januari 2020 - Persoonsidentificatie: 333333333 (uit codesysteem UZI Personen )., Persoonsidentificatie: 333333333 (uit codesysteem UZI Personen ).                                        <div>Zorgverlenerrol: Persoonsidentificatie: 333333333 (uit codesysteem UZI Personen )., Persoonsidentificatie: 333333333 (uit codesysteem UZI Personen ).</div>                                    </td>                                </tr>                                <tr>                                    <th>Eerste symptomen</th>                                    <td>15:13:28, 24 november 2019</td>                                </tr>                            </tbody>                        </table>                    </div>                </text>                <identifier>                    <system value="urn:oid:2.16.840.1.113883.2.4.3.111.19.1"/>                    <value value="CIO_01_03"/>                </identifier>                <clinicalStatus value="active">                    <extension url="http://nictiz.nl/fhir/StructureDefinition/code-specification">                        <valueCodeableConcept>                            <coding>                                <system value="http://hl7.org/fhir/v3/ActStatus"/>                                <code value="active"/>                                <display value="active"/>                            </coding>                        </valueCodeableConcept>                    </extension>                </clinicalStatus>                <verificationStatus>                    <extension url="http://hl7.org/fhir/StructureDefinition/data-absent-reason">                        <valueCode value="unknown"/>                    </extension>                </verificationStatus>                <category value="medication">                    <extension url="http://nictiz.nl/fhir/StructureDefinition/code-specification">                        <valueCodeableConcept>                            <coding>                                <system value="http://snomed.info/sct"/>                                <code value="419511003"/>                                <display value="neiging tot ongewenste reactie op geneesmiddel"/>                            </coding>                        </valueCodeableConcept>                    </extension>                </category>                <code>                    <coding>                        <system value="urn:oid:2.16.840.1.113883.2.4.4.1.725"/>                        <code value="16322"/>                        <display value="Aspirine oraal"/>                    </coding>                </code>                <patient>                    <reference value="urn:uuid:df53b815-9aa0-11ea-2046-8cec4bdca314"/>                    <display value="J. XXX_Cevat"/>                </patient>                <onsetDateTime value="2019-11-24T15:13:28+01:00"/>                <assertedDate value="2020-01-23T15:13:28+01:00"/>                <recorder>                    <extension url="http://nictiz.nl/fhir/StructureDefinition/practitionerrole-reference">                        <valueReference>                            <reference value="urn:uuid:df53d0b1-9aa0-11ea-2046-8cec4bdca314"/>                            <display value="chirurgie"/>                        </valueReference>                    </extension>                    <extension url="http://nictiz.nl/fhir/StructureDefinition/practitionerrole-reference">                        <valueReference>                            <reference value="urn:uuid:df53d0b1-9aa0-11ea-2046-8cec4bdca314"/>                            <display value="chirurgie"/>                        </valueReference>                    </extension>                    <display value="chirurgie"/>                    <display value="chirurgie"/>                </recorder>                <asserter>                    <extension url="http://nictiz.nl/fhir/StructureDefinition/practitionerrole-reference">                        <valueReference>                            <reference value="urn:uuid:df53b34f-9aa0-11ea-2046-8cec4bdca314"/>                            <display value="Persoonsidentificatie: 333333333 (uit codesysteem UZI Personen )."/>                        </valueReference>                    </extension>                    <extension url="http://nictiz.nl/fhir/StructureDefinition/practitionerrole-reference">                        <valueReference>                            <reference value="urn:uuid:df53b34f-9aa0-11ea-2046-8cec4bdca314"/>                            <display value="Persoonsidentificatie: 333333333 (uit codesysteem UZI Personen )."/>                        </valueReference>                    </extension>                    <display value="Persoonsidentificatie: 333333333 (uit codesysteem UZI Personen )."/>                    <display value="Persoonsidentificatie: 333333333 (uit codesysteem UZI Personen )."/>                </asserter>                <note>                    <text value="Allergie leidt tot jeuk. Geconstateerd tijdens operatie. Door auteur met id: '333333333' in identificerend systeem: UZI Personen ('2.16.528.1.1007.3.1')"/>                </note>            </AllergyIntolerance>        </resource>        <search>            <mode value="match"/>        </search>    </entry>    <entry>        <fullUrl value="urn:uuid:df53d0bb-9aa0-11ea-2046-8cec4bdca314"/>        <resource>            <AllergyIntolerance>                <meta>                    <profile value="http://nictiz.nl/fhir/StructureDefinition/mp612-AllergyIntoleranceToFHIRConversion"/>                </meta>                <text>                    <status value="generated"/>                    <div xmlns="http://www.w3.org/1999/xhtml">                        <table>                            <caption>Allergie/intolerantie. Patiënt: J. XXX_Cevat. Id: CIO_01_04 (urn:oid:2.16.840.1.113883.2.4.3.111.19.1), Categorie:                                 <span title="neiging tot ongewenste reactie op geneesmiddel (419511003 - SNOMED CT)">neiging tot ongewenste reactie op geneesmiddel</span>, Status: actief /                                <i>onbekend (ontbrekend gegeven)</i>                                <span style="display: block;">Ingevoerd door: orthopedie, orthopedie                                    <div>Zorgverlenerrol: orthopedie, orthopedie</div>                                </span>                            </caption>                            <tbody>                                <tr>                                    <th>Code</th>                                    <td>                                        <span title="Penicillines (35 - G-Standaard Tabel 122)">Penicillines</span>                                    </td>                                </tr>                                <tr>                                    <th>Informant</th>                                    <td>15:13:28, 24 december 2019 - H. XXX_Mulders, H. XXX_Mulders</td>                                </tr>                                <tr>                                    <th>Eerste symptomen</th>                                    <td>15:13:28, 5 oktober 2019</td>                                </tr>                            </tbody>                        </table>                    </div>                </text>                <identifier>                    <system value="urn:oid:2.16.840.1.113883.2.4.3.111.19.1"/>                    <value value="CIO_01_04"/>                </identifier>                <clinicalStatus value="active">                    <extension url="http://nictiz.nl/fhir/StructureDefinition/code-specification">                        <valueCodeableConcept>                            <coding>                                <system value="http://hl7.org/fhir/v3/ActStatus"/>                                <code value="active"/>                                <display value="active"/>                            </coding>                        </valueCodeableConcept>                    </extension>                </clinicalStatus>                <verificationStatus>                    <extension url="http://hl7.org/fhir/StructureDefinition/data-absent-reason">                        <valueCode value="unknown"/>                    </extension>                </verificationStatus>                <category value="medication">                    <extension url="http://nictiz.nl/fhir/StructureDefinition/code-specification">                        <valueCodeableConcept>                            <coding>                                <system value="http://snomed.info/sct"/>                                <code value="419511003"/>                                <display value="neiging tot ongewenste reactie op geneesmiddel"/>                            </coding>                        </valueCodeableConcept>                    </extension>                </category>                <code>                    <coding>                        <system value="urn:oid:2.16.840.1.113883.2.4.4.1.902.122"/>                        <code value="35"/>                        <display value="Penicillines"/>                    </coding>                </code>                <patient>                    <reference value="urn:uuid:df53b815-9aa0-11ea-2046-8cec4bdca314"/>                    <display value="J. XXX_Cevat"/>                </patient>                <onsetDateTime value="2019-10-05T15:13:28+02:00"/>                <assertedDate value="2019-12-24T15:13:28+01:00"/>                <recorder>                    <extension url="http://nictiz.nl/fhir/StructureDefinition/practitionerrole-reference">                        <valueReference>                            <reference value="urn:uuid:df53d0c3-9aa0-11ea-2046-8cec4bdca314"/>                            <display value="orthopedie"/>                        </valueReference>                    </extension>                    <extension url="http://nictiz.nl/fhir/StructureDefinition/practitionerrole-reference">                        <valueReference>                            <reference value="urn:uuid:df53d0c3-9aa0-11ea-2046-8cec4bdca314"/>                            <display value="orthopedie"/>                        </valueReference>                    </extension>                    <display value="orthopedie"/>                    <display value="orthopedie"/>                </recorder>                <asserter>                    <reference value="urn:uuid:df53d047-9aa0-11ea-2046-8cec4bdca314"/>                    <reference value="urn:uuid:df53d047-9aa0-11ea-2046-8cec4bdca314"/>                    <display value="H. XXX_Mulders"/>                    <display value="H. XXX_Mulders"/>                </asserter>            </AllergyIntolerance>        </resource>        <search>            <mode value="match"/>        </search>    </entry>    <entry>        <fullUrl value="urn:uuid:df53b815-9aa0-11ea-2046-8cec4bdca314"/>        <resource>            <Patient>                <meta>                    <profile value="http://fhir.nl/fhir/StructureDefinition/nl-core-patient"/>                </meta>                <text>                    <status value="generated"/>                    <div xmlns="http://www.w3.org/1999/xhtml">                        <div>Id                             <i>afgeschermd (ontbrekend gegeven)</i> (BSN), J. XXX_Cevat, Man, 30 december 1985                        </div>                        <div>Knolweg 1003, 9999 ZA Stitswerd Het Hogeland, Nederland (Bezoek Bezoek)</div>                    </div>                </text>                <identifier>                    <system value="http://fhir.nl/fhir/NamingSystem/bsn"/>                    <value>                        <extension url="http://hl7.org/fhir/StructureDefinition/data-absent-reason">                            <valueCode value="masked"/>                        </extension>                    </value>                </identifier>                <name>                    <extension url="http://hl7.org/fhir/StructureDefinition/humanname-assembly-order">                        <valueCode value="NL1"/>                    </extension>                    <family value="XXX_Cevat">                        <extension url="http://hl7.org/fhir/StructureDefinition/humanname-own-name">                            <valueString value="XXX_Cevat"/>                        </extension>                    </family>                    <given value="J.">                        <extension url="http://hl7.org/fhir/StructureDefinition/iso21090-EN-qualifier">                            <valueCode value="IN"/>                        </extension>                    </given>                </name>                <gender value="male"/>                <birthDate value="1985-12-30"/>                <address>                    <use value="home">                        <extension url="http://hl7.org/fhir/StructureDefinition/iso21090-AD-use">                            <valueCode value="PHYS"/>                        </extension>                    </use>                    <type value="physical"/>                    <line value="Knolweg 1003">                        <extension url="http://hl7.org/fhir/StructureDefinition/iso21090-ADXP-streetName">                            <valueString value="Knolweg"/>                        </extension>                        <extension url="http://hl7.org/fhir/StructureDefinition/iso21090-ADXP-houseNumber">                            <valueString value="1003"/>                        </extension>                    </line>                    <city value="Stitswerd"/>                    <district value="Het Hogeland"/>                    <postalCode value="9999 ZA"/>                    <country value="Nederland"/>                </address>            </Patient>        </resource>        <search>            <mode value="include"/>        </search>    </entry>    <entry>        <fullUrl value="urn:oid:2.16.528.1.1007.3.1.111111111"/>        <resource>            <Practitioner>                <meta>                    <profile value="http://fhir.nl/fhir/StructureDefinition/nl-core-practitioner"/>                </meta>                <text>                    <status value="generated"/>                    <div xmlns="http://www.w3.org/1999/xhtml">                        <div>Id 111111111 (UZI-NR-PERS)</div>                        <div>Valkendael 45, 6245 HK Maastricht, Nederland (Werk)</div>                    </div>                </text>                <identifier>                    <system value="http://fhir.nl/fhir/NamingSystem/uzi-nr-pers"/>                    <value value="111111111"/>                </identifier>                <address>                    <use value="work"/>                    <line value="Valkendael 45">                        <extension url="http://hl7.org/fhir/StructureDefinition/iso21090-ADXP-streetName">                            <valueString value="Valkendael"/>                        </extension>                        <extension url="http://hl7.org/fhir/StructureDefinition/iso21090-ADXP-houseNumber">                            <valueString value="45"/>                        </extension>                    </line>                    <city value="Maastricht"/>                    <postalCode value="6245 HK"/>                    <country value="Nederland"/>                </address>            </Practitioner>        </resource>        <search>            <mode value="include"/>        </search>    </entry>    <entry>        <fullUrl value="urn:uuid:df53cf99-9aa0-11ea-2046-8cec4bdca314"/>        <resource>            <Practitioner>                <meta>                    <profile value="http://fhir.nl/fhir/StructureDefinition/nl-core-practitioner"/>                </meta>                <text>                    <status value="generated"/>                    <div xmlns="http://www.w3.org/1999/xhtml">                        <div>Id 111111111 (UZI-NR-PERS)</div>                    </div>                </text>                <identifier>                    <system value="http://fhir.nl/fhir/NamingSystem/uzi-nr-pers"/>                    <value value="111111111"/>                </identifier>            </Practitioner>        </resource>        <search>            <mode value="include"/>        </search>    </entry>    <entry>        <fullUrl value="urn:oid:2.16.528.1.1007.3.1.333333333"/>        <resource>            <Practitioner>                <meta>                    <profile value="http://fhir.nl/fhir/StructureDefinition/nl-core-practitioner"/>                </meta>                <text>                    <status value="generated"/>                    <div xmlns="http://www.w3.org/1999/xhtml">                        <div>Id 333333333 (UZI-NR-PERS)</div>                    </div>                </text>                <identifier>                    <system value="http://fhir.nl/fhir/NamingSystem/uzi-nr-pers"/>                    <value value="333333333"/>                </identifier>            </Practitioner>        </resource>        <search>            <mode value="include"/>        </search>    </entry>    <entry>        <fullUrl value="urn:uuid:df53cfa9-9aa0-11ea-2046-8cec4bdca314"/>        <resource>            <Practitioner>                <meta>                    <profile value="http://fhir.nl/fhir/StructureDefinition/nl-core-practitioner"/>                </meta>                <text>                    <status value="generated"/>                    <div xmlns="http://www.w3.org/1999/xhtml">                        <div>Id 333333333 (UZI-NR-PERS)</div>                        <div>Valkendael 45, 6245 HK Maastricht, Nederland (Werk)</div>                    </div>                </text>                <identifier>                    <system value="http://fhir.nl/fhir/NamingSystem/uzi-nr-pers"/>                    <value value="333333333"/>                </identifier>                <address>                    <use value="work"/>                    <line value="Valkendael 45">                        <extension url="http://hl7.org/fhir/StructureDefinition/iso21090-ADXP-streetName">                            <valueString value="Valkendael"/>                        </extension>                        <extension url="http://hl7.org/fhir/StructureDefinition/iso21090-ADXP-houseNumber">                            <valueString value="45"/>                        </extension>                    </line>                    <city value="Maastricht"/>                    <postalCode value="6245 HK"/>                    <country value="Nederland"/>                </address>            </Practitioner>        </resource>        <search>            <mode value="include"/>        </search>    </entry>    <entry>        <fullUrl value="urn:oid:2.16.528.1.1007.3.1.222222222"/>        <resource>            <Practitioner>                <meta>                    <profile value="http://fhir.nl/fhir/StructureDefinition/nl-core-practitioner"/>                </meta>                <text>                    <status value="generated"/>                    <div xmlns="http://www.w3.org/1999/xhtml">                        <div>Id 222222222 (UZI-NR-PERS)</div>                        <div>Valkendael 45, 6245 HK Maastricht, Nederland (Werk)</div>                    </div>                </text>                <identifier>                    <system value="http://fhir.nl/fhir/NamingSystem/uzi-nr-pers"/>                    <value value="222222222"/>                </identifier>                <address>                    <use value="work"/>                    <line value="Valkendael 45">                        <extension url="http://hl7.org/fhir/StructureDefinition/iso21090-ADXP-streetName">                            <valueString value="Valkendael"/>                        </extension>                        <extension url="http://hl7.org/fhir/StructureDefinition/iso21090-ADXP-houseNumber">                            <valueString value="45"/>                        </extension>                    </line>                    <city value="Maastricht"/>                    <postalCode value="6245 HK"/>                    <country value="Nederland"/>                </address>            </Practitioner>        </resource>        <search>            <mode value="include"/>        </search>    </entry>    <entry>        <fullUrl value="urn:oid:2.16.528.1.1007.3.3.3999999"/>        <resource>            <Organization>                <meta>                    <profile value="http://fhir.nl/fhir/StructureDefinition/nl-core-organization"/>                </meta>                <text>                    <status value="generated"/>                    <div xmlns="http://www.w3.org/1999/xhtml">                        <table>                            <caption>OrganisatieId: 03999999 (URA)</caption>                            <tbody>                                <tr>                                    <th>Naam</th>                                    <td>Test Medisch Centrum</td>                                </tr>                                <tr>                                    <th>Type</th>                                    <td>Z4 (RoleCodeNL Zorgaanbiedertype)</td>                                </tr>                                <tr>                                    <th>Adres</th>                                    <td>Valkendael 45, 6245 HK Maastricht, Nederland ()</td>                                </tr>                            </tbody>                        </table>                    </div>                </text>                <identifier>                    <system value="http://fhir.nl/fhir/NamingSystem/ura"/>                    <value value="03999999"/>                </identifier>                <type>                    <coding>                        <system value="urn:oid:2.16.840.1.113883.2.4.15.1060"/>                        <code value="Z4"/>                    </coding>                </type>                <name value="Test Medisch Centrum"/>                <address>                    <line value="Valkendael 45">                        <extension url="http://hl7.org/fhir/StructureDefinition/iso21090-ADXP-streetName">                            <valueString value="Valkendael"/>                        </extension>                        <extension url="http://hl7.org/fhir/StructureDefinition/iso21090-ADXP-houseNumber">                            <valueString value="45"/>                        </extension>                    </line>                    <city value="Maastricht"/>                    <postalCode value="6245 HK"/>                    <country value="Nederland"/>                </address>            </Organization>        </resource>        <search>            <mode value="include"/>        </search>    </entry>    <entry>        <fullUrl value="urn:uuid:df53b32e-9aa0-11ea-2046-8cec4bdca314"/>        <resource>            <PractitionerRole>                <meta>                    <profile value="http://fhir.nl/fhir/StructureDefinition/nl-core-practitionerrole"/>                </meta>                <text>                    <status value="generated"/>                    <div xmlns="http://www.w3.org/1999/xhtml">                        <table>                            <caption>Zorgverlenerrol</caption>                            <tbody>                                <tr>                                    <th>Zorgverlener</th>                                    <td>                                        <div>111111111</div>                                        <div>Test Medisch Centrum</div>                                    </td>                                </tr>                                <tr>                                    <th>Specialisme</th>                                    <td>                                        <span title="inwendige geneeskunde 70001001 PLT (0313 - AGB-medisch specialisme)">inwendige geneeskunde 70001001 PLT</span>                                    </td>                                </tr>                            </tbody>                        </table>                    </div>                </text>                <practitioner>                    <reference value="urn:oid:2.16.528.1.1007.3.1.111111111"/>                    <display value="111111111"/>                </practitioner>                <organization>                    <reference value="urn:oid:2.16.528.1.1007.3.3.3999999"/>                    <display value="Test Medisch Centrum"/>                </organization>                <specialty>                    <coding>                        <system value="urn:oid:2.16.840.1.113883.2.4.6.7"/>                        <code value="0313"/>                        <display value="inwendige geneeskunde 70001001 PLT"/>                    </coding>                </specialty>            </PractitionerRole>        </resource>        <search>            <mode value="include"/>        </search>    </entry>    <entry>        <fullUrl value="urn:uuid:df53b33d-9aa0-11ea-2046-8cec4bdca314"/>        <resource>            <PractitionerRole>                <meta>                    <profile value="http://fhir.nl/fhir/StructureDefinition/nl-core-practitionerrole"/>                </meta>                <text>                    <status value="generated"/>                    <div xmlns="http://www.w3.org/1999/xhtml">                        <table>                            <caption>Zorgverlenerrol</caption>                            <tbody>                                <tr>                                    <th>Zorgverlener</th>                                    <td>                                        <div>111111111</div>                                    </td>                                </tr>                            </tbody>                        </table>                    </div>                </text>                <practitioner>                    <reference value="urn:uuid:df53cf99-9aa0-11ea-2046-8cec4bdca314"/>                    <display value="111111111"/>                </practitioner>            </PractitionerRole>        </resource>        <search>            <mode value="include"/>        </search>    </entry>    <entry>        <fullUrl value="urn:uuid:df53b340-9aa0-11ea-2046-8cec4bdca314"/>        <resource>            <PractitionerRole>                <meta>                    <profile value="http://fhir.nl/fhir/StructureDefinition/nl-core-practitionerrole"/>                </meta>                <text>                    <status value="generated"/>                    <div xmlns="http://www.w3.org/1999/xhtml">                        <table>                            <caption>Zorgverlenerrol</caption>                            <tbody>                                <tr>                                    <th>Zorgverlener</th>                                    <td>                                        <div>111111111</div>                                        <div>Test Medisch Centrum</div>                                    </td>                                </tr>                                <tr>                                    <th>Specialisme</th>                                    <td>                                        <span title="inwendige geneeskunde 70001001 PLT (0313 - AGB-medisch specialisme)">inwendige geneeskunde 70001001 PLT</span>                                    </td>                                </tr>                            </tbody>                        </table>                    </div>                </text>                <practitioner>                    <reference value="urn:oid:2.16.528.1.1007.3.1.111111111"/>                    <display value="111111111"/>                </practitioner>                <organization>                    <reference value="urn:oid:2.16.528.1.1007.3.3.3999999"/>                    <display value="Test Medisch Centrum"/>                </organization>                <specialty>                    <coding>                        <system value="urn:oid:2.16.840.1.113883.2.4.6.7"/>                        <code value="0313"/>                        <display value="inwendige geneeskunde 70001001 PLT"/>                    </coding>                </specialty>            </PractitionerRole>        </resource>        <search>            <mode value="include"/>        </search>    </entry>    <entry>        <fullUrl value="urn:uuid:df53d08d-9aa0-11ea-2046-8cec4bdca314"/>        <resource>            <PractitionerRole>                <meta>                    <profile value="http://fhir.nl/fhir/StructureDefinition/nl-core-practitionerrole"/>                </meta>                <text>                    <status value="generated"/>                    <div xmlns="http://www.w3.org/1999/xhtml">                        <table>                            <caption>Zorgverlenerrol</caption>                            <tbody>                                <tr>                                    <th>Zorgverlener</th>                                    <td>                                        <div>111111111</div>                                        <div>Test Medisch Centrum</div>                                    </td>                                </tr>                                <tr>                                    <th>Specialisme</th>                                    <td>                                        <span title="inwendige geneeskunde 70001001 PLT (0313 - AGB-medisch specialisme)">inwendige geneeskunde 70001001 PLT</span>                                    </td>                                </tr>                            </tbody>                        </table>                    </div>                </text>                <practitioner>                    <reference value="urn:oid:2.16.528.1.1007.3.1.111111111"/>                    <display value="111111111"/>                </practitioner>                <organization>                    <reference value="urn:oid:2.16.528.1.1007.3.3.3999999"/>                    <display value="Test Medisch Centrum"/>                </organization>                <specialty>                    <coding>                        <system value="urn:oid:2.16.840.1.113883.2.4.6.7"/>                        <code value="0313"/>                        <display value="inwendige geneeskunde 70001001 PLT"/>                    </coding>                </specialty>            </PractitionerRole>        </resource>        <search>            <mode value="include"/>        </search>    </entry>    <entry>        <fullUrl value="urn:uuid:df53d09f-9aa0-11ea-2046-8cec4bdca314"/>        <resource>            <PractitionerRole>                <meta>                    <profile value="http://fhir.nl/fhir/StructureDefinition/nl-core-practitionerrole"/>                </meta>                <text>                    <status value="generated"/>                    <div xmlns="http://www.w3.org/1999/xhtml">                        <table>                            <caption>Zorgverlenerrol</caption>                            <tbody>                                <tr>                                    <th>Zorgverlener</th>                                    <td>                                        <div>111111111</div>                                        <div>Test Medisch Centrum</div>                                    </td>                                </tr>                                <tr>                                    <th>Specialisme</th>                                    <td>                                        <span title="inwendige geneeskunde 70001001 PLT (0313 - AGB-medisch specialisme)">inwendige geneeskunde 70001001 PLT</span>                                    </td>                                </tr>                            </tbody>                        </table>                    </div>                </text>                <practitioner>                    <reference value="urn:oid:2.16.528.1.1007.3.1.111111111"/>                    <display value="111111111"/>                </practitioner>                <organization>                    <reference value="urn:oid:2.16.528.1.1007.3.3.3999999"/>                    <display value="Test Medisch Centrum"/>                </organization>                <specialty>                    <coding>                        <system value="urn:oid:2.16.840.1.113883.2.4.6.7"/>                        <code value="0313"/>                        <display value="inwendige geneeskunde 70001001 PLT"/>                    </coding>                </specialty>            </PractitionerRole>        </resource>        <search>            <mode value="include"/>        </search>    </entry>    <entry>        <fullUrl value="urn:uuid:df53b34f-9aa0-11ea-2046-8cec4bdca314"/>        <resource>            <PractitionerRole>                <meta>                    <profile value="http://fhir.nl/fhir/StructureDefinition/nl-core-practitionerrole"/>                </meta>                <text>                    <status value="generated"/>                    <div xmlns="http://www.w3.org/1999/xhtml">                        <table>                            <caption>Zorgverlenerrol</caption>                            <tbody>                                <tr>                                    <th>Zorgverlener</th>                                    <td>                                        <div>333333333</div>                                    </td>                                </tr>                            </tbody>                        </table>                    </div>                </text>                <practitioner>                    <reference value="urn:oid:2.16.528.1.1007.3.1.333333333"/>                    <display value="333333333"/>                </practitioner>            </PractitionerRole>        </resource>        <search>            <mode value="include"/>        </search>    </entry>    <entry>        <fullUrl value="urn:uuid:df53b352-9aa0-11ea-2046-8cec4bdca314"/>        <resource>            <PractitionerRole>                <meta>                    <profile value="http://fhir.nl/fhir/StructureDefinition/nl-core-practitionerrole"/>                </meta>                <text>                    <status value="generated"/>                    <div xmlns="http://www.w3.org/1999/xhtml">                        <table>                            <caption>Zorgverlenerrol</caption>                            <tbody>                                <tr>                                    <th>Zorgverlener</th>                                    <td>                                        <div>333333333</div>                                        <div>Test Medisch Centrum</div>                                    </td>                                </tr>                                <tr>                                    <th>Specialisme</th>                                    <td>                                        <span title="chirurgie (0303 - AGB-medisch specialisme)">chirurgie</span>                                    </td>                                </tr>                            </tbody>                        </table>                    </div>                </text>                <practitioner>                    <reference value="urn:uuid:df53cfa9-9aa0-11ea-2046-8cec4bdca314"/>                    <display value="333333333"/>                </practitioner>                <organization>                    <reference value="urn:oid:2.16.528.1.1007.3.3.3999999"/>                    <display value="Test Medisch Centrum"/>                </organization>                <specialty>                    <coding>                        <system value="urn:oid:2.16.840.1.113883.2.4.6.7"/>                        <code value="0303"/>                        <display value="chirurgie"/>                    </coding>                </specialty>            </PractitionerRole>        </resource>        <search>            <mode value="include"/>        </search>    </entry>    <entry>        <fullUrl value="urn:uuid:df53d0b1-9aa0-11ea-2046-8cec4bdca314"/>        <resource>            <PractitionerRole>                <meta>                    <profile value="http://fhir.nl/fhir/StructureDefinition/nl-core-practitionerrole"/>                </meta>                <text>                    <status value="generated"/>                    <div xmlns="http://www.w3.org/1999/xhtml">                        <table>                            <caption>Zorgverlenerrol</caption>                            <tbody>                                <tr>                                    <th>Zorgverlener</th>                                    <td>                                        <div>333333333</div>                                        <div>Test Medisch Centrum</div>                                    </td>                                </tr>                                <tr>                                    <th>Specialisme</th>                                    <td>                                        <span title="chirurgie (0303 - AGB-medisch specialisme)">chirurgie</span>                                    </td>                                </tr>                            </tbody>                        </table>                    </div>                </text>                <practitioner>                    <reference value="urn:uuid:df53cfa9-9aa0-11ea-2046-8cec4bdca314"/>                    <display value="333333333"/>                </practitioner>                <organization>                    <reference value="urn:oid:2.16.528.1.1007.3.3.3999999"/>                    <display value="Test Medisch Centrum"/>                </organization>                <specialty>                    <coding>                        <system value="urn:oid:2.16.840.1.113883.2.4.6.7"/>                        <code value="0303"/>                        <display value="chirurgie"/>                    </coding>                </specialty>            </PractitionerRole>        </resource>        <search>            <mode value="include"/>        </search>    </entry>    <entry>        <fullUrl value="urn:uuid:df53b364-9aa0-11ea-2046-8cec4bdca314"/>        <resource>            <PractitionerRole>                <meta>                    <profile value="http://fhir.nl/fhir/StructureDefinition/nl-core-practitionerrole"/>                </meta>                <text>                    <status value="generated"/>                    <div xmlns="http://www.w3.org/1999/xhtml">                        <table>                            <caption>Zorgverlenerrol</caption>                            <tbody>                                <tr>                                    <th>Zorgverlener</th>                                    <td>                                        <div>222222222</div>                                        <div>Test Medisch Centrum</div>                                    </td>                                </tr>                                <tr>                                    <th>Specialisme</th>                                    <td>                                        <span title="orthopedie (0305 - AGB-medisch specialisme)">orthopedie</span>                                    </td>                                </tr>                            </tbody>                        </table>                    </div>                </text>                <practitioner>                    <reference value="urn:oid:2.16.528.1.1007.3.1.222222222"/>                    <display value="222222222"/>                </practitioner>                <organization>                    <reference value="urn:oid:2.16.528.1.1007.3.3.3999999"/>                    <display value="Test Medisch Centrum"/>                </organization>                <specialty>                    <coding>                        <system value="urn:oid:2.16.840.1.113883.2.4.6.7"/>                        <code value="0305"/>                        <display value="orthopedie"/>                    </coding>                </specialty>            </PractitionerRole>        </resource>        <search>            <mode value="include"/>        </search>    </entry>    <entry>        <fullUrl value="urn:uuid:df53d0c3-9aa0-11ea-2046-8cec4bdca314"/>        <resource>            <PractitionerRole>                <meta>                    <profile value="http://fhir.nl/fhir/StructureDefinition/nl-core-practitionerrole"/>                </meta>                <text>                    <status value="generated"/>                    <div xmlns="http://www.w3.org/1999/xhtml">                        <table>                            <caption>Zorgverlenerrol</caption>                            <tbody>                                <tr>                                    <th>Zorgverlener</th>                                    <td>                                        <div>222222222</div>                                        <div>Test Medisch Centrum</div>                                    </td>                                </tr>                                <tr>                                    <th>Specialisme</th>                                    <td>                                        <span title="orthopedie (0305 - AGB-medisch specialisme)">orthopedie</span>                                    </td>                                </tr>                            </tbody>                        </table>                    </div>                </text>                <practitioner>                    <reference value="urn:oid:2.16.528.1.1007.3.1.222222222"/>                    <display value="222222222"/>                </practitioner>                <organization>                    <reference value="urn:oid:2.16.528.1.1007.3.3.3999999"/>                    <display value="Test Medisch Centrum"/>                </organization>                <specialty>                    <coding>                        <system value="urn:oid:2.16.840.1.113883.2.4.6.7"/>                        <code value="0305"/>                        <display value="orthopedie"/>                    </coding>                </specialty>            </PractitionerRole>        </resource>        <search>            <mode value="include"/>        </search>    </entry>    <entry>        <fullUrl value="urn:uuid:df53d047-9aa0-11ea-2046-8cec4bdca314"/>        <resource>            <RelatedPerson>                <meta>                    <profile value="http://fhir.nl/fhir/StructureDefinition/nl-core-relatedperson"/>                </meta>                <text>                    <status value="generated"/>                    <div xmlns="http://www.w3.org/1999/xhtml">                        <div>H. XXX_Mulders</div>                        <div>                            <a href="tel:tel:+31612345670">tel:+31612345670</a> (Tel Mobiel),                            <a href="mailto:mailto:pjvandenherik123@hotmail.com">mailto:pjvandenherik123@hotmail.com</a> (E-mail Privé)                        </div>                        <div>Knolweg 1003, 9999 ZA STITSWERD Het Hogeland, Nederland (Bezoek Bezoek)</div>                    </div>                </text>                <patient>                    <reference value="urn:uuid:df53b815-9aa0-11ea-2046-8cec4bdca314"/>                    <display value="J. XXX_Cevat"/>                </patient>                <name>                    <extension url="http://hl7.org/fhir/StructureDefinition/humanname-assembly-order">                        <valueCode value="NL1"/>                    </extension>                    <family value="XXX_Mulders">                        <extension url="http://hl7.org/fhir/StructureDefinition/humanname-own-name">                            <valueString value="XXX_Mulders"/>                        </extension>                    </family>                    <given value="H.">                        <extension url="http://hl7.org/fhir/StructureDefinition/iso21090-EN-qualifier">                            <valueCode value="IN"/>                        </extension>                    </given>                </name>                <telecom>                    <system value="phone">                        <extension url="http://nictiz.nl/fhir/StructureDefinition/code-specification">                            <valueCodeableConcept>                                <coding>                                    <system value="http://hl7.org/fhir/v3/AddressUse"/>                                    <code value="MC"/>                                    <display value="Mobiele telefoon"/>                                </coding>                            </valueCodeableConcept>                        </extension>                    </system>                    <value value="tel:+31612345670"/>                    <use value="mobile">                        <extension url="http://nictiz.nl/fhir/StructureDefinition/code-specification">                            <valueCodeableConcept>                                <coding>                                    <system value="http://hl7.org/fhir/v3/AddressUse"/>                                    <code value="HP"/>                                    <display value="Work place"/>                                </coding>                            </valueCodeableConcept>                        </extension>                    </use>                </telecom>                <telecom>                    <system value="email"/>                    <value value="mailto:pjvandenherik123@hotmail.com"/>                    <use value="home">                        <extension url="http://nictiz.nl/fhir/StructureDefinition/code-specification">                            <valueCodeableConcept>                                <coding>                                    <system value="http://hl7.org/fhir/v3/AddressUse"/>                                    <code value="HP"/>                                    <display value="Primary Home"/>                                </coding>                            </valueCodeableConcept>                        </extension>                    </use>                </telecom>                <address>                    <use value="home">                        <extension url="http://hl7.org/fhir/StructureDefinition/iso21090-AD-use">                            <valueCode value="PHYS"/>                        </extension>                    </use>                    <type value="physical"/>                    <line value="Knolweg 1003">                        <extension url="http://hl7.org/fhir/StructureDefinition/iso21090-ADXP-streetName">                            <valueString value="Knolweg"/>                        </extension>                        <extension url="http://hl7.org/fhir/StructureDefinition/iso21090-ADXP-houseNumber">                            <valueString value="1003"/>                        </extension>                    </line>                    <city value="STITSWERD"/>                    <district value="Het Hogeland"/>                    <postalCode value="9999 ZA"/>                    <country value="Nederland"/>                </address>            </RelatedPerson>        </resource>        <search>            <mode value="include"/>        </search>    </entry></Bundle>