<?xml version="1.0" encoding="UTF-8"?>
<Bundle xmlns="http://hl7.org/fhir">
   <id value="lr-slr-TEST-l2z-1Maximaal-bericht-1MMBLOINC"/>
   <type value="transaction"/>
   <entry>
      <fullUrl value="urn:uuid:ff66e5c0-8d1f-11ef-8037-020000000000"/>
      <resource>
         <Observation>
            <meta>
               <profile value="http://nictiz.nl/fhir/StructureDefinition/nl-core-LaboratoryTestResult"/>
            </meta>
            <extension url="http://nictiz.nl/fhir/StructureDefinition/ext-CopyIndicator">
               <valueBoolean value="true"/>
            </extension>
            <identifier>
               <system value="urn:oid:2.16.840.1.113883.2.4.3.11.999.25.4298.3"/>
               <value value="77889"/>
            </identifier>
            <status value="final"/>
            <category>
               <coding>
                  <system value="http://terminology.hl7.org/CodeSystem/observation-category"/>
                  <code value="laboratory"/>
                  <display value="Laboratory"/>
               </coding>
            </category>
            <code>
               <coding>
                  <system value="http://loinc.org"/>
                  <code value="31709-9"/>
                  <display value="Adenovirus 40+41 Ag [aanwezigheid] in feces"/>
               </coding>
            </code>
            <subject>
               <reference value="urn:uuid:ff66e566-8d1f-11ef-8037-020000000000"/>
               <type value="Patient"/>
               <display value="Patient, Elise Erelies"/>
            </subject>
            <effectiveDateTime value="${DATE, T, D, -5}"/>
            <performer>
               <reference value="urn:uuid:ff66e584-8d1f-11ef-8037-020000000000"/>
               <type value="Organization"/>
               <display value="Healthcare provider (organization), Microbiologisch Lab Flagel"/>
            </performer>
            <valueCodeableConcept>
               <coding>
                  <system value="http://snomed.info/sct"/>
                  <code value="260415000"/>
                  <display value="niet aangetoond"/>
               </coding>
            </valueCodeableConcept>
            <interpretation>
               <text value="Adenovirus niet aanwezig"/>
            </interpretation>
            <method>
               <coding>
                  <system value="http://snomed.info/sct"/>
                  <code value="258048005"/>
                  <display value="Microbiological method (qualifier value)"/>
               </coding>
            </method>
            <specimen>
               <reference value="urn:uuid:ff66e5fc-8d1f-11ef-8037-020000000000"/>
               <type value="Specimen"/>
               <display value="monster"/>
            </specimen>
         </Observation>
      </resource>
      <request>
         <method value="POST"/>
         <url value="Observation"/>
      </request>
   </entry>
   <entry>
      <fullUrl value="urn:uuid:ff66e5fc-8d1f-11ef-8037-020000000000"/>
      <resource>
         <Specimen>
            <meta>
               <profile value="http://nictiz.nl/fhir/StructureDefinition/nl-core-LaboratoryTestResult.Specimen"/>
            </meta>
            <identifier>
               <system value="urn:oid:2.16.840.1.113883.2.4.3.11.999.25.4267.3"/>
               <value value="110068"/>
            </identifier>
            <type>
               <coding>
                  <system value="http://snomed.info/sct"/>
                  <version value="2.16.840.1.113883.6.96"/>
                  <code value="39477002"/>
                  <display value="Feces (substance)"/>
               </coding>
            </type>
            <subject>
               <reference value="urn:uuid:ff66e566-8d1f-11ef-8037-020000000000"/>
               <type value="Patient"/>
               <display value="Patient, Elise Erelies"/>
            </subject>
            <collection>
               <collectedDateTime value="${DATE, T, D, -5}"/>
               <method>
                  <coding>
                     <system value="http://snomed.info/sct"/>
                     <code value="225105004"/>
                     <display value="afname en/of collectie van feces"/>
                  </coding>
               </method>
            </collection>
            <container>
               <extension url="http://hl7.org/fhir/StructureDefinition/specimen-sequenceNumber">
                  <valueInteger value="5"/>
               </extension>
               <type>
                  <coding>
                     <system value="http://snomed.info/sct"/>
                     <version value="2.16.840.1.113883.6.96"/>
                     <code value="434746001"/>
                     <display value="Monsterpotje"/>
                  </coding>
               </type>
            </container>
         </Specimen>
      </resource>
      <request>
         <method value="POST"/>
         <url value="Specimen"/>
      </request>
   </entry>
   <entry>
      <fullUrl value="urn:uuid:ff66e584-8d1f-11ef-8037-020000000000"/>
      <resource>
         <Organization>
            <meta>
               <profile value="http://nictiz.nl/fhir/StructureDefinition/nl-core-HealthcareProvider-Organization"/>
            </meta>
            <identifier>
               <system value="http://fhir.nl/fhir/NamingSystem/ura"/>
               <value value="00003334"/>
            </identifier>
            <type>
               <coding>
                  <system value="http://nictiz.nl/fhir/NamingSystem/organization-type"/>
                  <version value="2023-04-14T00:00:00"/>
                  <code value="L1"/>
                  <display value="Laboratorium"/>
               </coding>
            </type>
            <name value="Microbiologisch Lab Flagel"/>
            <telecom>
               <extension url="http://nictiz.nl/fhir/StructureDefinition/ext-Comment">
                  <valueString value="Bel met vragen"/>
               </extension>
               <system value="phone"/>
               <value value="06-11122244"/>
               <use value="work"/>
            </telecom>
            <address>
               <extension url="http://nictiz.nl/fhir/StructureDefinition/ext-AddressInformation.AddressType">
                  <valueCodeableConcept>
                     <coding>
                        <system value="http://terminology.hl7.org/CodeSystem/v3-AddressUse"/>
                        <code value="WP"/>
                        <display value="Werkadres"/>
                     </coding>
                  </valueCodeableConcept>
               </extension>
               <use value="work"/>
               <line value="Kerkstraat 23">
                  <extension url="http://hl7.org/fhir/StructureDefinition/iso21090-ADXP-streetName">
                     <valueString value="Kerkstraat"/>
                  </extension>
                  <extension url="http://hl7.org/fhir/StructureDefinition/iso21090-ADXP-houseNumber">
                     <valueString value="23"/>
                  </extension>
               </line>
               <city value="Zorgstad"/>
               <postalCode value="2143BB"/>
               <country value="Nederland">
                  <extension url="http://nictiz.nl/fhir/StructureDefinition/ext-CodeSpecification">
                     <valueCodeableConcept>
                        <coding>
                           <system value="urn:iso:std:iso:3166"/>
                           <version value="2020-10-26T00:00:00"/>
                           <code value="NL"/>
                           <display value="Nederland"/>
                        </coding>
                     </valueCodeableConcept>
                  </extension>
               </country>
            </address>
         </Organization>
      </resource>
      <request>
         <method value="POST"/>
         <url value="Organization"/>
      </request>
   </entry>
   <entry>
      <fullUrl value="urn:uuid:ff66e566-8d1f-11ef-8037-020000000000"/>
      <resource>
         <Patient>
            <meta>
               <profile value="http://nictiz.nl/fhir/StructureDefinition/nl-core-Patient"/>
            </meta>
            <identifier>
               <system value="http://fhir.nl/fhir/NamingSystem/bsn"/>
               <value value="999999114"/>
            </identifier>
            <name>
               <use value="official"/>
               <text value="Elise Erelies"/>
               <family value="Erelies">
                  <extension url="http://hl7.org/fhir/StructureDefinition/humanname-own-name">
                     <valueString value="Erelies"/>
                  </extension>
               </family>
               <given value="Elise">
                  <extension url="http://hl7.org/fhir/StructureDefinition/iso21090-EN-qualifier">
                     <valueCode value="BR"/>
                  </extension>
               </given>
            </name>
            <gender value="female">
               <extension url="http://nictiz.nl/fhir/StructureDefinition/ext-CodeSpecification">
                  <valueCodeableConcept>
                     <coding>
                        <system value="http://terminology.hl7.org/CodeSystem/v3-AdministrativeGender"/>
                        <code value="F"/>
                        <display value="Vrouw"/>
                     </coding>
                  </valueCodeableConcept>
               </extension>
            </gender>
            <birthDate value="1950-11-01"/>
         </Patient>
      </resource>
      <request>
         <method value="POST"/>
         <url value="Patient"/>
      </request>
   </entry>
</Bundle>
