<?xml version="1.0" encoding="UTF-8"?>
<Bundle xmlns="http://hl7.org/fhir">
   <id value="lr-slr-KWAL-MMB-NHG-Scenario1-MMBNHG1"/>
   <type value="transaction"/>
   <entry>
      <fullUrl value="urn:uuid:f331d2ca-45a8-11ee-2106-020000000000"/>
      <resource>
         <Observation>
            <meta>
               <profile value="http://nictiz.nl/fhir/StructureDefinition/nl-core-LaboratoryTestResult"/>
            </meta>
            <extension url="http://nictiz.nl/fhir/StructureDefinition/ext-CopyIndicator">
               <valueBoolean value="true"/>
            </extension>
            <extension url="http://nictiz.nl/fhir/StructureDefinition/ext-EdifactReferenceNumber">
               <valueString value="222222"/>
            </extension>
            <identifier>
               <system value="urn:oid:2.16.840.1.113883.2.4.3.11.999.25.4298.3"/>
               <value value="92222"/>
            </identifier>
            <status value="final"/>
            <category>
               <coding>
                  <system value="http://terminology.hl7.org/CodeSystem/observation-category"/>
                  <code value="laboratory"/>
                  <display value="Laboratory"/>
               </coding>
            </category>
            <code>
               <coding>
                  <system value="https://referentiemodel.nhg.org/tabellen/nhg-tabel-45-diagnostische-bepalingen"/>
                  <code value="3373"/>
                  <display value="Herpes simplex v type 1 DNA urine (PCR)"/>
               </coding>
            </code>
            <subject>
               <reference value="urn:uuid:f331d270-45a8-11ee-2106-020000000000"/>
               <type value="Patient"/>
               <display value="Patient, Patricia XXX_Sacht"/>
            </subject>
            <effectiveDateTime value="${DATE, T, M, -4}"/>
            <performer>
               <reference value="urn:uuid:f331d28e-45a8-11ee-2106-020000000000"/>
               <type value="Organization"/>
               <display value="Healthcare provider (organization), Microbiologisch Lab Flagel"/>
            </performer>
            <valueCodeableConcept>
               <coding>
                  <system value="https://referentiemodel.nhg.org/tabellen/nhg-tabel-45-diagnostische-bepalingen#resultaten"/>
                  <code value="31"/>
                  <display value="negatief"/>
               </coding>
            </valueCodeableConcept>
            <note>
               <text value="D.m.v nucleïnezuur-amplificatie is genoom aangetoond- vanvan herpes simplex virus type 1 en herpes en simplexvirus 2"/>
            </note>
            <specimen>
               <reference value="urn:uuid:f331d324-45a8-11ee-2106-020000000000"/>
               <type value="Specimen"/>
               <display value="monster"/>
            </specimen>
         </Observation>
      </resource>
      <request>
         <method value="POST"/>
         <url value="Observation"/>
      </request>
   </entry>
   <entry>
      <fullUrl value="urn:uuid:f331d2e8-45a8-11ee-2106-020000000000"/>
      <resource>
         <Observation>
            <meta>
               <profile value="http://nictiz.nl/fhir/StructureDefinition/nl-core-LaboratoryTestResult"/>
            </meta>
            <extension url="http://nictiz.nl/fhir/StructureDefinition/ext-CopyIndicator">
               <valueBoolean value="true"/>
            </extension>
            <extension url="http://nictiz.nl/fhir/StructureDefinition/ext-EdifactReferenceNumber">
               <valueString value="222222"/>
            </extension>
            <identifier>
               <system value="urn:oid:2.16.840.1.113883.2.4.3.11.999.25.4298.3"/>
               <value value="92223"/>
            </identifier>
            <status value="final"/>
            <category>
               <coding>
                  <system value="http://terminology.hl7.org/CodeSystem/observation-category"/>
                  <code value="laboratory"/>
                  <display value="Laboratory"/>
               </coding>
            </category>
            <code>
               <coding>
                  <system value="https://referentiemodel.nhg.org/tabellen/nhg-tabel-45-diagnostische-bepalingen"/>
                  <code value="3382"/>
                  <display value="Herpes simplex v type 2 DNA urine (PCR)"/>
               </coding>
            </code>
            <subject>
               <reference value="urn:uuid:f331d270-45a8-11ee-2106-020000000000"/>
               <type value="Patient"/>
               <display value="Patient, Patricia XXX_Sacht"/>
            </subject>
            <effectiveDateTime value="${DATE, T, M, -4}"/>
            <performer>
               <reference value="urn:uuid:f331d28e-45a8-11ee-2106-020000000000"/>
               <type value="Organization"/>
               <display value="Healthcare provider (organization), Microbiologisch Lab Flagel"/>
            </performer>
            <valueCodeableConcept>
               <coding>
                  <system value="https://referentiemodel.nhg.org/tabellen/nhg-tabel-45-diagnostische-bepalingen#resultaten"/>
                  <code value="32"/>
                  <display value="positief"/>
               </coding>
            </valueCodeableConcept>
            <interpretation>
               <text value="HSV 2 positief getest"/>
            </interpretation>
            <note>
               <text value="D.m.v nucleïnezuur-amplificatie is genoom aangetoond- vanvan herpes simplex virus type 1 en herpes en simplexvirus 2"/>
            </note>
            <specimen>
               <reference value="urn:uuid:f331d324-45a8-11ee-2106-020000000000"/>
               <type value="Specimen"/>
               <display value="monster"/>
            </specimen>
         </Observation>
      </resource>
      <request>
         <method value="POST"/>
         <url value="Observation"/>
      </request>
   </entry>
   <entry>
      <fullUrl value="urn:uuid:f331d324-45a8-11ee-2106-020000000000"/>
      <resource>
         <Specimen>
            <meta>
               <profile value="http://nictiz.nl/fhir/StructureDefinition/nl-core-LaboratoryTestResult.Specimen"/>
            </meta>
            <identifier>
               <system value="urn:oid:2.16.840.1.113883.2.4.3.11.999.25.4267.3"/>
               <value value="100001"/>
            </identifier>
            <type>
               <coding>
                  <system value="http://snomed.info/sct"/>
                  <code value="447955000"/>
                  <display value="monster van rectum"/>
               </coding>
            </type>
            <subject>
               <reference value="urn:uuid:f331d270-45a8-11ee-2106-020000000000"/>
               <type value="Patient"/>
               <display value="Patient, Patricia XXX_Sacht"/>
            </subject>
            <collection>
               <collectedDateTime value="${DATE, T, D, -35}"/>
               <method>
                  <coding>
                     <system value="http://snomed.info/sct"/>
                     <code value="285570007"/>
                     <display value="afnemen van swab"/>
                  </coding>
               </method>
            </collection>
         </Specimen>
      </resource>
      <request>
         <method value="POST"/>
         <url value="Specimen"/>
      </request>
   </entry>
   <entry>
      <fullUrl value="urn:uuid:f331d28e-45a8-11ee-2106-020000000000"/>
      <resource>
         <Organization>
            <meta>
               <profile value="http://nictiz.nl/fhir/StructureDefinition/nl-core-HealthcareProvider-Organization"/>
            </meta>
            <identifier>
               <system value="http://fhir.nl/fhir/NamingSystem/ura"/>
               <value value="00003334"/>
            </identifier>
            <type>
               <coding>
                  <system value="http://nictiz.nl/fhir/NamingSystem/organization-type"/>
                  <version value="2022-07-07T00:00:00"/>
                  <code value="L1"/>
                  <display value="Laboratorium"/>
               </coding>
            </type>
            <name value="Microbiologisch Lab Flagel"/>
            <telecom>
               <system value="phone"/>
               <value value="06-11122244"/>
            </telecom>
            <address>
               <extension url="http://nictiz.nl/fhir/StructureDefinition/ext-AddressInformation.AddressType">
                  <valueCodeableConcept>
                     <coding>
                        <system value="http://terminology.hl7.org/CodeSystem/v3-AddressUse"/>
                        <code value="WP"/>
                        <display value="Werkadres"/>
                     </coding>
                  </valueCodeableConcept>
               </extension>
               <use value="work"/>
               <line value="Kerkstraat 23">
                  <extension url="http://hl7.org/fhir/StructureDefinition/iso21090-ADXP-streetName">
                     <valueString value="Kerkstraat"/>
                  </extension>
                  <extension url="http://hl7.org/fhir/StructureDefinition/iso21090-ADXP-houseNumber">
                     <valueString value="23"/>
                  </extension>
               </line>
               <city value="Zorgstad"/>
               <postalCode value="2143BB"/>
            </address>
         </Organization>
      </resource>
      <request>
         <method value="POST"/>
         <url value="Organization"/>
      </request>
   </entry>
   <entry>
      <fullUrl value="urn:uuid:f331d270-45a8-11ee-2106-020000000000"/>
      <resource>
         <Patient>
            <meta>
               <profile value="http://nictiz.nl/fhir/StructureDefinition/nl-core-Patient"/>
            </meta>
            <identifier>
               <system value="http://fhir.nl/fhir/NamingSystem/bsn"/>
               <value value="999901011"/>
            </identifier>
            <name>
               <use value="official"/>
               <text value="Patricia XXX_Sacht"/>
               <family value="XXX_Sacht">
                  <extension url="http://hl7.org/fhir/StructureDefinition/humanname-own-name">
                     <valueString value="XXX_Sacht"/>
                  </extension>
               </family>
               <given value="Patricia">
                  <extension url="http://hl7.org/fhir/StructureDefinition/iso21090-EN-qualifier">
                     <valueCode value="BR"/>
                  </extension>
               </given>
            </name>
            <gender value="female">
               <extension url="http://nictiz.nl/fhir/StructureDefinition/ext-CodeSpecification">
                  <valueCodeableConcept>
                     <coding>
                        <system value="http://terminology.hl7.org/CodeSystem/v3-AdministrativeGender"/>
                        <code value="F"/>
                        <display value="Vrouw"/>
                     </coding>
                  </valueCodeableConcept>
               </extension>
            </gender>
            <birthDate value="2000-11-13"/>
         </Patient>
      </resource>
      <request>
         <method value="POST"/>
         <url value="Patient"/>
      </request>
   </entry>
</Bundle>
