<?xml version="1.0" encoding="UTF-8"?>
<Bundle xmlns="http://hl7.org/fhir">
   <id value="lr-slr-TEST-Scenario1b-1b"/>
   <type value="transaction"/>
   <entry>
      <fullUrl value="http://example.nictiz.nl/fhir/Observation/labresult-LAR-NierfunctiePanelLOINC-C"/>
      <resource>
         <Observation>
            <id value="labresult-LAR-NierfunctiePanelLOINC-C"/>
            <meta>
               <profile value="http://nictiz.nl/fhir/StructureDefinition/nl-core-LaboratoryTestResult"/>
            </meta>
            <extension url="http://nictiz.nl/fhir/StructureDefinition/ext-CopyIndicator">
               <valueBoolean value="true"/>
            </extension>
            <extension url="http://nictiz.nl/fhir/StructureDefinition/ext-EdifactReferenceNumber">
               <valueString value="111222"/>
            </extension>
            <identifier>
               <system value="urn:oid:2.16.840.1.113883.2.4.3.11.999.25.4296.2"/>
               <value value="LAR_NierfunctiePanelLOINC"/>
            </identifier>
            <status value="final"/>
            <category>
               <coding>
                  <system value="http://terminology.hl7.org/CodeSystem/observation-category"/>
                  <code value="laboratory"/>
                  <display value="Laboratory"/>
               </coding>
            </category>
            <code>
               <coding>
                  <system value="http://loinc.org"/>
                  <code value="45066-8"/>
                  <display value="creatinine &amp; glomerulaire filtratiesnelheid.voorspeld panel"/>
               </coding>
            </code>
            <subject>
               <reference value="Patient/patient-Erelies"/>
               <type value="Patient"/>
               <display value="Patient, Elise Erelies"/>
            </subject>
            <performer>
               <reference value="urn:uuid:55ea5884-39bf-11ed-1066-020000000000"/>
               <type value="Organization"/>
               <display value="Healthcare provider (organization), Klinisch chemisch Lab 't Proefje"/>
            </performer>
            <specimen>
               <reference value="Specimen/monster-123-119364003"/>
               <type value="Specimen"/>
               <display value="monster"/>
            </specimen>
            <hasMember>
               <reference value="Observation/labtest-LAR-NierfunctiePanelLOINC-11111-C"/>
               <type value="Observation"/>
               <display value="laboratorium_test"/>
            </hasMember>
            <hasMember>
               <reference value="Observation/labtest-LAR-NierfunctiePanelLOINC-22222-C"/>
               <type value="Observation"/>
               <display value="laboratorium_test"/>
            </hasMember>
         </Observation>
      </resource>
      <request>
         <method value="POST"/>
         <url value="Observation"/>
      </request>
   </entry>
   <entry>
      <fullUrl value="http://example.nictiz.nl/fhir/Observation/labtest-LAR-NierfunctiePanelLOINC-11111-C"/>
      <resource>
         <Observation>
            <id value="labtest-LAR-NierfunctiePanelLOINC-11111-C"/>
            <meta>
               <profile value="http://nictiz.nl/fhir/StructureDefinition/nl-core-LaboratoryTestResult"/>
            </meta>
            <extension url="http://nictiz.nl/fhir/StructureDefinition/ext-CopyIndicator">
               <valueBoolean value="true"/>
            </extension>
            <extension url="http://nictiz.nl/fhir/StructureDefinition/ext-EdifactReferenceNumber">
               <valueString value="111222"/>
            </extension>
            <identifier>
               <system value="urn:oid:2.16.840.1.113883.2.4.3.11.999.25.4298.2"/>
               <value value="11111"/>
            </identifier>
            <status value="final"/>
            <category>
               <coding>
                  <system value="http://terminology.hl7.org/CodeSystem/observation-category"/>
                  <code value="laboratory"/>
                  <display value="Laboratory"/>
               </coding>
            </category>
            <code>
               <coding>
                  <system value="http://loinc.org"/>
                  <code value="98979-8"/>
                  <display value="Glomerulaire filtratiesnelheid/1,73 m2.voorspeld [filtratiesnelheid/oppervlakte] in serum of plasma of bloed d.m.v. formule gebaseerd op creatinine (CKD-EPI 2021)"/>
               </coding>
            </code>
            <subject>
               <reference value="Patient/patient-Erelies"/>
               <type value="Patient"/>
               <display value="Patient, Elise Erelies"/>
            </subject>
            <effectiveDateTime value="${DATE, T, D, -20}"/>
            <performer>
               <reference value="urn:uuid:55ea5884-39bf-11ed-1066-020000000000"/>
               <type value="Organization"/>
               <display value="Healthcare provider (organization), Klinisch chemisch Lab 't Proefje"/>
            </performer>
            <valueQuantity>
               <value value="97"/>
               <unit value="mL/min/{1.73_m2}"/>
               <system value="http://unitsofmeasure.org"/>
               <code value="mL/min/{1.73_m2}"/>
            </valueQuantity>
            <interpretation>
               <text value="Waarde is goed."/>
            </interpretation>
            <specimen>
               <reference value="Specimen/monster-123-119364003"/>
               <type value="Specimen"/>
               <display value="monster"/>
            </specimen>
            <referenceRange>
               <low>
                  <value value="90"/>
                  <unit value="mL/min/{1.73_m2}"/>
                  <system value="http://unitsofmeasure.org"/>
                  <code value="mL/min/{1.73_m2}"/>
               </low>
            </referenceRange>
         </Observation>
      </resource>
      <request>
         <method value="POST"/>
         <url value="Observation"/>
      </request>
   </entry>
   <entry>
      <fullUrl value="http://example.nictiz.nl/fhir/Observation/labtest-LAR-NierfunctiePanelLOINC-22222-C"/>
      <resource>
         <Observation>
            <id value="labtest-LAR-NierfunctiePanelLOINC-22222-C"/>
            <meta>
               <profile value="http://nictiz.nl/fhir/StructureDefinition/nl-core-LaboratoryTestResult"/>
            </meta>
            <extension url="http://nictiz.nl/fhir/StructureDefinition/ext-CopyIndicator">
               <valueBoolean value="true"/>
            </extension>
            <extension url="http://nictiz.nl/fhir/StructureDefinition/ext-EdifactReferenceNumber">
               <valueString value="111222"/>
            </extension>
            <identifier>
               <system value="urn:oid:2.16.840.1.113883.2.4.3.11.999.25.4298.2"/>
               <value value="22222"/>
            </identifier>
            <status value="final"/>
            <category>
               <coding>
                  <system value="http://terminology.hl7.org/CodeSystem/observation-category"/>
                  <code value="laboratory"/>
                  <display value="Laboratory"/>
               </coding>
            </category>
            <code>
               <coding>
                  <system value="http://loinc.org"/>
                  <code value="45066-8"/>
                  <display value="Creatinine [mol/volume] in urine"/>
               </coding>
            </code>
            <subject>
               <reference value="Patient/patient-Erelies"/>
               <type value="Patient"/>
               <display value="Patient, Elise Erelies"/>
            </subject>
            <effectiveDateTime value="${DATE, T, D, -20}"/>
            <performer>
               <reference value="urn:uuid:55ea5884-39bf-11ed-1066-020000000000"/>
               <type value="Organization"/>
               <display value="Healthcare provider (organization), Klinisch chemisch Lab 't Proefje"/>
            </performer>
            <valueQuantity>
               <value value="135"/>
               <unit value="umol/l"/>
               <system value="http://unitsofmeasure.org"/>
               <code value="umol/l"/>
            </valueQuantity>
            <interpretation>
               <coding>
                  <system value="http://snomed.info/sct"/>
                  <code value="281302008"/>
                  <display value="boven referentiebereik"/>
               </coding>
               <coding>
                  <system value="http://terminology.hl7.org/CodeSystem/v3-ObservationInterpretation"/>
                  <code value="H"/>
                  <display value="High"/>
               </coding>
            </interpretation>
            <interpretation>
               <text value="Creatinine iets hoger dan normaal."/>
            </interpretation>
            <method>
               <coding>
                  <system value="http://snomed.info/sct"/>
                  <code value="258026004"/>
                  <display value="enzyme method"/>
               </coding>
            </method>
            <specimen>
               <reference value="Specimen/monster-123-119364003"/>
               <type value="Specimen"/>
               <display value="monster"/>
            </specimen>
            <referenceRange>
               <low>
                  <value value="62"/>
                  <unit value="umol/l"/>
                  <system value="http://unitsofmeasure.org"/>
                  <code value="umol/l"/>
               </low>
               <high>
                  <value value="134"/>
                  <unit value="umol/l"/>
                  <system value="http://unitsofmeasure.org"/>
                  <code value="umol/l"/>
               </high>
            </referenceRange>
         </Observation>
      </resource>
      <request>
         <method value="POST"/>
         <url value="Observation"/>
      </request>
   </entry>
   <entry>
      <fullUrl value="http://example.nictiz.nl/fhir/Specimen/monster-123-119364003"/>
      <resource>
         <Specimen>
            <id value="monster-123-119364003"/>
            <meta>
               <profile value="http://nictiz.nl/fhir/StructureDefinition/nl-core-LaboratoryTestResult.Specimen"/>
            </meta>
            <identifier>
               <system value="urn:oid:2.16.840.1.113883.2.4.3.11.999.25.4267.2"/>
               <value value="123"/>
            </identifier>
            <subject>
               <reference value="urn:uuid:55ea5776-39bf-11ed-1066-020000000000"/>
               <type value="Patient"/>
               <display value="Patient, Elise Erelies"/>
            </subject>
            <collection>
               <collectedDateTime value="${DATE, T, D, -20}"/>
            </collection>
            <note>
               <text value="Serum afgenomen bij patiënt."/>
            </note>
         </Specimen>
      </resource>
      <request>
         <method value="POST"/>
         <url value="Specimen"/>
      </request>
   </entry>
   <entry>
      <fullUrl value="urn:uuid:55ea582a-39bf-11ed-1066-020000000000"/>
      <resource>
         <Organization>
            <meta>
               <profile value="http://nictiz.nl/fhir/StructureDefinition/nl-core-HealthcareProvider-Organization"/>
            </meta>
            <identifier>
               <system value="http://fhir.nl/fhir/NamingSystem/ura"/>
               <value value="00005111"/>
            </identifier>
            <type>
               <coding>
                  <system value="http://nictiz.nl/fhir/NamingSystem/organization-type"/>
                  <version value="2022-07-07T00:00:00"/>
                  <code value="Z3"/>
                  <display value="Huisartspraktijk (zelfstandig of groepspraktijk)"/>
               </coding>
            </type>
            <name value="Huisartsenpraktijk Itis"/>
            <address>
               <extension url="http://nictiz.nl/fhir/StructureDefinition/ext-AddressInformation.AddressType">
                  <valueCodeableConcept>
                     <coding>
                        <system value="http://terminology.hl7.org/CodeSystem/v3-AddressUse"/>
                        <code value="WP"/>
                        <display value="Werkadres"/>
                     </coding>
                  </valueCodeableConcept>
               </extension>
               <use value="work"/>
               <line value="Langelaan 1">
                  <extension url="http://hl7.org/fhir/StructureDefinition/iso21090-ADXP-streetName">
                     <valueString value="Langelaan"/>
                  </extension>
                  <extension url="http://hl7.org/fhir/StructureDefinition/iso21090-ADXP-houseNumber">
                     <valueString value="1"/>
                  </extension>
               </line>
               <city value="Onze Stad"/>
               <postalCode value="1234ZZ"/>
            </address>
         </Organization>
      </resource>
      <request>
         <method value="POST"/>
         <url value="Organization"/>
      </request>
   </entry>
   <entry>
      <fullUrl value="urn:uuid:55ea5884-39bf-11ed-1066-020000000000"/>
      <resource>
         <Organization>
            <meta>
               <profile value="http://nictiz.nl/fhir/StructureDefinition/nl-core-HealthcareProvider-Organization"/>
            </meta>
            <identifier>
               <system value="http://fhir.nl/fhir/NamingSystem/ura"/>
               <value value="00003333"/>
            </identifier>
            <type>
               <coding>
                  <system value="http://nictiz.nl/fhir/NamingSystem/organization-type"/>
                  <version value="2022-07-07T00:00:00"/>
                  <code value="L1"/>
                  <display value="Laboratorium"/>
               </coding>
            </type>
            <name value="Klinisch chemisch Lab 't Proefje"/>
            <telecom>
               <extension url="http://nictiz.nl/fhir/StructureDefinition/ext-Comment">
                  <valueString value="Bel met vragen"/>
               </extension>
               <system value="phone"/>
               <value value="06-11122233"/>
               <use value="work"/>
            </telecom>
            <telecom>
               <system value="email"/>
               <value value="tproefje@lab.nl"/>
               <use value="work"/>
            </telecom>
            <address>
               <extension url="http://nictiz.nl/fhir/StructureDefinition/ext-AddressInformation.AddressType">
                  <valueCodeableConcept>
                     <coding>
                        <system value="http://terminology.hl7.org/CodeSystem/v3-AddressUse"/>
                        <code value="WP"/>
                        <display value="Werkadres"/>
                     </coding>
                  </valueCodeableConcept>
               </extension>
               <use value="work"/>
               <line value="Hoofdstraat 23">
                  <extension url="http://hl7.org/fhir/StructureDefinition/iso21090-ADXP-streetName">
                     <valueString value="Hoofdstraat"/>
                  </extension>
                  <extension url="http://hl7.org/fhir/StructureDefinition/iso21090-ADXP-houseNumber">
                     <valueString value="23"/>
                  </extension>
               </line>
               <city value="Zorgstad"/>
               <postalCode value="1234AA"/>
            </address>
         </Organization>
      </resource>
      <request>
         <method value="POST"/>
         <url value="Organization"/>
      </request>
   </entry>
   <entry>
      <fullUrl value="urn:uuid:55ea5776-39bf-11ed-1066-020000000000"/>
      <resource>
         <Patient>
            <meta>
               <profile value="http://nictiz.nl/fhir/StructureDefinition/nl-core-Patient"/>
            </meta>
            <identifier>
               <system value="http://fhir.nl/fhir/NamingSystem/bsn"/>
               <value value="999999114"/>
            </identifier>
            <name>
               <use value="official"/>
               <text value="Elise Erelies"/>
               <family value="Erelies">
                  <extension url="http://hl7.org/fhir/StructureDefinition/humanname-own-name">
                     <valueString value="Erelies"/>
                  </extension>
               </family>
               <given value="Elise">
                  <extension url="http://hl7.org/fhir/StructureDefinition/iso21090-EN-qualifier">
                     <valueCode value="BR"/>
                  </extension>
               </given>
            </name>
            <gender value="female">
               <extension url="http://nictiz.nl/fhir/StructureDefinition/ext-CodeSpecification">
                  <valueCodeableConcept>
                     <coding>
                        <system value="http://terminology.hl7.org/CodeSystem/v3-AdministrativeGender"/>
                        <code value="F"/>
                        <display value="Vrouw"/>
                     </coding>
                  </valueCodeableConcept>
               </extension>
            </gender>
            <birthDate value="1950-11-01"/>
         </Patient>
      </resource>
      <request>
         <method value="POST"/>
         <url value="Patient"/>
      </request>
   </entry>
</Bundle>