<?xml version="1.0" encoding="UTF-8"?>
<Bundle xmlns="http://hl7.org/fhir">
   <id value="lr-slr-KWAL-l2z-1Maximaal-bericht-3KCLOINC"/>
   <type value="transaction"/>
   <entry>
      <fullUrl value="urn:uuid:ff59627e-8d1f-11ef-5968-020000000000"/>
      <resource>
         <Observation>
            <meta>
               <profile value="http://nictiz.nl/fhir/StructureDefinition/nl-core-LaboratoryTestResult"/>
            </meta>
            <extension url="http://nictiz.nl/fhir/StructureDefinition/ext-CopyIndicator">
               <valueBoolean value="true"/>
            </extension>
            <extension url="http://nictiz.nl/fhir/StructureDefinition/ext-EdifactReferenceNumber">
               <valueString value="888222"/>
            </extension>
            <identifier>
               <system value="urn:oid:2.16.840.1.113883.2.4.3.11.999.25.4298.2"/>
               <value value="91111"/>
            </identifier>
            <status value="final"/>
            <category>
               <coding>
                  <system value="http://terminology.hl7.org/CodeSystem/observation-category"/>
                  <code value="laboratory"/>
                  <display value="Laboratory"/>
               </coding>
            </category>
            <code>
               <coding>
                  <system value="http://loinc.org"/>
                  <code value="62238-1"/>
                  <display value="Glomerulaire filtratiesnelheid/1,73 m2.voorspeld [filtratiesnelheid/oppervlakte] in serum of plasma of bloed d.m.v. formule gebaseerd op creatinine (CKD-EPI)formule"/>
               </coding>
            </code>
            <subject>
               <reference value="urn:uuid:ff596224-8d1f-11ef-5968-020000000000"/>
               <type value="Patient"/>
               <display value="Patient, Patricia XXX_Sacht"/>
            </subject>
            <effectiveDateTime value="${DATE, T, D, -30}"/>
            <performer>
               <reference value="urn:uuid:ff596242-8d1f-11ef-5968-020000000000"/>
               <type value="Organization"/>
               <display value="Healthcare provider (organization), Klinisch chemisch Lab 't Proefje"/>
            </performer>
            <valueQuantity>
               <value value="99"/>
               <unit value="mL/min/{1.73_m2}"/>
               <system value="http://unitsofmeasure.org"/>
               <code value="mL/min/{1.73_m2}"/>
            </valueQuantity>
            <interpretation>
               <text value="Waarde is goed."/>
            </interpretation>
            <specimen>
               <reference value="urn:uuid:ff596314-8d1f-11ef-5968-020000000000"/>
               <type value="Specimen"/>
               <display value="monster"/>
            </specimen>
            <referenceRange>
               <low>
                  <value value="90"/>
                  <unit value="mL/min/{1.73_m2}"/>
                  <system value="http://unitsofmeasure.org"/>
                  <code value="mL/min/{1.73_m2}"/>
               </low>
            </referenceRange>
         </Observation>
      </resource>
      <request>
         <method value="POST"/>
         <url value="Observation"/>
      </request>
   </entry>
   <entry>
      <fullUrl value="urn:uuid:ff59629c-8d1f-11ef-5968-020000000000"/>
      <resource>
         <Observation>
            <meta>
               <profile value="http://nictiz.nl/fhir/StructureDefinition/nl-core-LaboratoryTestResult"/>
            </meta>
            <extension url="http://nictiz.nl/fhir/StructureDefinition/ext-CopyIndicator">
               <valueBoolean value="true"/>
            </extension>
            <extension url="http://nictiz.nl/fhir/StructureDefinition/ext-EdifactReferenceNumber">
               <valueString value="888222"/>
            </extension>
            <identifier>
               <system value="urn:oid:2.16.840.1.113883.2.4.3.11.999.25.4298.2"/>
               <value value="92222"/>
            </identifier>
            <status value="final"/>
            <category>
               <coding>
                  <system value="http://terminology.hl7.org/CodeSystem/observation-category"/>
                  <code value="laboratory"/>
                  <display value="Laboratory"/>
               </coding>
            </category>
            <code>
               <coding>
                  <system value="http://loinc.org"/>
                  <code value="14683-7"/>
                  <display value="Creatinine [mol/volume] in urine"/>
               </coding>
            </code>
            <subject>
               <reference value="urn:uuid:ff596224-8d1f-11ef-5968-020000000000"/>
               <type value="Patient"/>
               <display value="Patient, Patricia XXX_Sacht"/>
            </subject>
            <effectiveDateTime value="${DATE, T, D, -30}"/>
            <performer>
               <reference value="urn:uuid:ff596242-8d1f-11ef-5968-020000000000"/>
               <type value="Organization"/>
               <display value="Healthcare provider (organization), Klinisch chemisch Lab 't Proefje"/>
            </performer>
            <valueQuantity>
               <value value="138"/>
               <unit value="mmol/l"/>
               <system value="http://unitsofmeasure.org"/>
               <code value="mmol/l"/>
            </valueQuantity>
            <interpretation>
               <coding>
                  <system value="http://snomed.info/sct"/>
                  <code value="281302008"/>
                  <display value="boven referentiebereik"/>
               </coding>
               <coding>
                  <system value="http://terminology.hl7.org/CodeSystem/v3-ObservationInterpretation"/>
                  <code value="H"/>
                  <display value="High"/>
               </coding>
            </interpretation>
            <interpretation>
               <text value="Creatinine iets hoger dan normaal."/>
            </interpretation>
            <method>
               <coding>
                  <system value="http://snomed.info/sct"/>
                  <code value="258026004"/>
                  <display value="enzyme method"/>
               </coding>
            </method>
            <specimen>
               <reference value="urn:uuid:ff596314-8d1f-11ef-5968-020000000000"/>
               <type value="Specimen"/>
               <display value="monster"/>
            </specimen>
            <referenceRange>
               <low>
                  <value value="62"/>
                  <unit value="mmol/l"/>
                  <system value="http://unitsofmeasure.org"/>
                  <code value="mmol/l"/>
               </low>
               <high>
                  <value value="134"/>
                  <unit value="mmol/l"/>
                  <system value="http://unitsofmeasure.org"/>
                  <code value="mmol/l"/>
               </high>
            </referenceRange>
         </Observation>
      </resource>
      <request>
         <method value="POST"/>
         <url value="Observation"/>
      </request>
   </entry>
   <entry>
      <fullUrl value="urn:uuid:ff5962ba-8d1f-11ef-5968-020000000000"/>
      <resource>
         <Observation>
            <meta>
               <profile value="http://nictiz.nl/fhir/StructureDefinition/nl-core-LaboratoryTestResult"/>
            </meta>
            <extension url="http://nictiz.nl/fhir/StructureDefinition/ext-CopyIndicator">
               <valueBoolean value="true"/>
            </extension>
            <extension url="http://nictiz.nl/fhir/StructureDefinition/ext-EdifactReferenceNumber">
               <valueString value="888222"/>
            </extension>
            <identifier>
               <system value="urn:oid:2.16.840.1.113883.2.4.3.11.999.25.4298.2"/>
               <value value="93333"/>
            </identifier>
            <status value="final"/>
            <category>
               <coding>
                  <system value="http://terminology.hl7.org/CodeSystem/observation-category"/>
                  <code value="laboratory"/>
                  <display value="Laboratory"/>
               </coding>
            </category>
            <code>
               <coding>
                  <system value="http://loinc.org"/>
                  <code value="30000-4"/>
                  <display value="Albumine/creatinine [verhouding] in urine d.m.v. detectielimiet &lt;= 20 mg/L"/>
               </coding>
            </code>
            <subject>
               <reference value="urn:uuid:ff596224-8d1f-11ef-5968-020000000000"/>
               <type value="Patient"/>
               <display value="Patient, Patricia XXX_Sacht"/>
            </subject>
            <effectiveDateTime value="${DATE, T, D, -30}"/>
            <performer>
               <reference value="urn:uuid:ff596242-8d1f-11ef-5968-020000000000"/>
               <type value="Organization"/>
               <display value="Healthcare provider (organization), Klinisch chemisch Lab 't Proefje"/>
            </performer>
            <valueQuantity>
               <value value="2"/>
               <unit value="mg/mmol"/>
               <system value="http://unitsofmeasure.org"/>
               <code value="mg/mmol"/>
            </valueQuantity>
            <interpretation>
               <text value="Goede uitslag voor een patient van 75 jaar."/>
            </interpretation>
            <method>
               <coding>
                  <system value="http://snomed.info/sct"/>
                  <code value="258026004"/>
                  <display value="enzyme method"/>
               </coding>
            </method>
            <specimen>
               <reference value="urn:uuid:ff596314-8d1f-11ef-5968-020000000000"/>
               <type value="Specimen"/>
               <display value="monster"/>
            </specimen>
            <referenceRange>
               <high>
                  <value value="3"/>
                  <unit value="mg/mmol"/>
                  <system value="http://unitsofmeasure.org"/>
                  <code value="mg/mmol"/>
               </high>
            </referenceRange>
         </Observation>
      </resource>
      <request>
         <method value="POST"/>
         <url value="Observation"/>
      </request>
   </entry>
   <entry>
      <fullUrl value="urn:uuid:ff5962d8-8d1f-11ef-5968-020000000000"/>
      <resource>
         <Observation>
            <meta>
               <profile value="http://nictiz.nl/fhir/StructureDefinition/nl-core-LaboratoryTestResult"/>
            </meta>
            <extension url="http://nictiz.nl/fhir/StructureDefinition/ext-CopyIndicator">
               <valueBoolean value="true"/>
            </extension>
            <extension url="http://nictiz.nl/fhir/StructureDefinition/ext-EdifactReferenceNumber">
               <valueString value="888222"/>
            </extension>
            <identifier>
               <system value="urn:oid:2.16.840.1.113883.2.4.3.11.999.25.4298.2"/>
               <value value="94444"/>
            </identifier>
            <status value="final"/>
            <category>
               <coding>
                  <system value="http://terminology.hl7.org/CodeSystem/observation-category"/>
                  <code value="laboratory"/>
                  <display value="Laboratory"/>
               </coding>
            </category>
            <code>
               <coding>
                  <system value="http://loinc.org"/>
                  <code value="14957-5"/>
                  <display value="Albumine [massa/volume] in urine d.m.v. detectielimiet &lt;= 20 mg/L"/>
               </coding>
            </code>
            <subject>
               <reference value="urn:uuid:ff596224-8d1f-11ef-5968-020000000000"/>
               <type value="Patient"/>
               <display value="Patient, Patricia XXX_Sacht"/>
            </subject>
            <effectiveDateTime value="${DATE, T, D, -30}"/>
            <performer>
               <reference value="urn:uuid:ff596242-8d1f-11ef-5968-020000000000"/>
               <type value="Organization"/>
               <display value="Healthcare provider (organization), Klinisch chemisch Lab 't Proefje"/>
            </performer>
            <valueQuantity>
               <value value="0.1"/>
               <unit value="mg/L"/>
               <system value="http://unitsofmeasure.org"/>
               <code value="mg/L"/>
            </valueQuantity>
            <interpretation>
               <text value="Zie ratio voor interpretatie."/>
            </interpretation>
            <specimen>
               <reference value="urn:uuid:ff596314-8d1f-11ef-5968-020000000000"/>
               <type value="Specimen"/>
               <display value="monster"/>
            </specimen>
         </Observation>
      </resource>
      <request>
         <method value="POST"/>
         <url value="Observation"/>
      </request>
   </entry>
   <entry>
      <fullUrl value="urn:uuid:ff596332-8d1f-11ef-5968-020000000000"/>
      <resource>
         <Device>
            <meta>
               <profile value="http://nictiz.nl/fhir/StructureDefinition/nl-core-LaboratoryTestResult.SpecimenSource"/>
            </meta>
            <deviceName>
               <name value="Katheter"/>
               <type value="other"/>
            </deviceName>
            <patient>
               <reference value="urn:uuid:ff596224-8d1f-11ef-5968-020000000000"/>
               <type value="Patient"/>
               <display value="Patient, Patricia XXX_Sacht"/>
            </patient>
         </Device>
      </resource>
      <request>
         <method value="POST"/>
         <url value="Device"/>
      </request>
   </entry>
   <entry>
      <fullUrl value="urn:uuid:ff596314-8d1f-11ef-5968-020000000000"/>
      <resource>
         <Specimen>
            <meta>
               <profile value="http://nictiz.nl/fhir/StructureDefinition/nl-core-LaboratoryTestResult.Specimen"/>
            </meta>
            <identifier>
               <system value="urn:oid:2.16.840.1.113883.2.4.3.11.999.25.4267.2"/>
               <value value="123"/>
            </identifier>
            <type>
               <coding>
                  <system value="http://snomed.info/sct"/>
                  <code value="122575003"/>
                  <display value="Urine"/>
               </coding>
            </type>
            <subject>
               <reference value="urn:uuid:ff596332-8d1f-11ef-5968-020000000000"/>
               <type value="Device"/>
               <display value="bron_monster"/>
            </subject>
            <receivedTime value="${DATE, T, D, -31}"/>
            <collection>
               <collectedDateTime value="${DATE, T, D, -31}"/>
            </collection>
            <container>
               <extension url="http://hl7.org/fhir/StructureDefinition/specimen-sequenceNumber">
                  <valueInteger value="1"/>
               </extension>
            </container>
            <note>
               <text value="Urine ingeleverd door patiënt."/>
            </note>
         </Specimen>
      </resource>
      <request>
         <method value="POST"/>
         <url value="Specimen"/>
      </request>
   </entry>
   <entry>
      <fullUrl value="urn:uuid:ff596242-8d1f-11ef-5968-020000000000"/>
      <resource>
         <Organization>
            <meta>
               <profile value="http://nictiz.nl/fhir/StructureDefinition/nl-core-HealthcareProvider-Organization"/>
            </meta>
            <identifier>
               <system value="http://fhir.nl/fhir/NamingSystem/ura"/>
               <value value="00003333"/>
            </identifier>
            <type>
               <coding>
                  <system value="http://nictiz.nl/fhir/NamingSystem/organization-type"/>
                  <version value="2023-04-14T00:00:00"/>
                  <code value="L1"/>
                  <display value="Laboratorium"/>
               </coding>
            </type>
            <name value="Klinisch chemisch Lab 't Proefje"/>
            <telecom>
               <extension url="http://nictiz.nl/fhir/StructureDefinition/ext-Comment">
                  <valueString value="Bel met vragen"/>
               </extension>
               <system value="phone"/>
               <value value="06-11122233"/>
               <use value="work"/>
            </telecom>
            <telecom>
               <system value="email"/>
               <value value="tproefje@lab.nl"/>
               <use value="work"/>
            </telecom>
            <address>
               <extension url="http://nictiz.nl/fhir/StructureDefinition/ext-AddressInformation.AddressType">
                  <valueCodeableConcept>
                     <coding>
                        <system value="http://terminology.hl7.org/CodeSystem/v3-AddressUse"/>
                        <code value="WP"/>
                        <display value="Werkadres"/>
                     </coding>
                  </valueCodeableConcept>
               </extension>
               <use value="work"/>
               <line value="Hoofdstraat 23">
                  <extension url="http://hl7.org/fhir/StructureDefinition/iso21090-ADXP-streetName">
                     <valueString value="Hoofdstraat"/>
                  </extension>
                  <extension url="http://hl7.org/fhir/StructureDefinition/iso21090-ADXP-houseNumber">
                     <valueString value="23"/>
                  </extension>
               </line>
               <city value="Zorgstad"/>
               <postalCode value="1234 AA"/>
            </address>
         </Organization>
      </resource>
      <request>
         <method value="POST"/>
         <url value="Organization"/>
      </request>
   </entry>
   <entry>
      <fullUrl value="urn:uuid:ff596224-8d1f-11ef-5968-020000000000"/>
      <resource>
         <Patient>
            <meta>
               <profile value="http://nictiz.nl/fhir/StructureDefinition/nl-core-Patient"/>
            </meta>
            <identifier>
               <system value="http://fhir.nl/fhir/NamingSystem/bsn"/>
               <value value="999901011"/>
            </identifier>
            <name>
               <use value="official"/>
               <text value="Patricia XXX_Sacht"/>
               <family value="XXX_Sacht">
                  <extension url="http://hl7.org/fhir/StructureDefinition/humanname-own-name">
                     <valueString value="XXX_Sacht"/>
                  </extension>
               </family>
               <given value="Patricia">
                  <extension url="http://hl7.org/fhir/StructureDefinition/iso21090-EN-qualifier">
                     <valueCode value="BR"/>
                  </extension>
               </given>
            </name>
            <gender value="female">
               <extension url="http://nictiz.nl/fhir/StructureDefinition/ext-CodeSpecification">
                  <valueCodeableConcept>
                     <coding>
                        <system value="http://terminology.hl7.org/CodeSystem/v3-AdministrativeGender"/>
                        <code value="F"/>
                        <display value="Vrouw"/>
                     </coding>
                  </valueCodeableConcept>
               </extension>
            </gender>
            <birthDate value="2000-11-13"/>
         </Patient>
      </resource>
      <request>
         <method value="POST"/>
         <url value="Patient"/>
      </request>
   </entry>
</Bundle>
