<?xml version="1.0" encoding="UTF-8"?>
<Bundle xmlns="http://hl7.org/fhir">
   <id value="lr-slr-TEST-Scenario5a-5a"/>
   <type value="transaction"/>
   <entry>
      <fullUrl value="urn:uuid:f3580468-45a8-11ee-8858-020000000000"/>
      <resource>
         <Observation>
            <meta>
               <profile value="http://nictiz.nl/fhir/StructureDefinition/nl-core-LaboratoryTestResult"/>
            </meta>
            <extension url="http://nictiz.nl/fhir/StructureDefinition/ext-CopyIndicator">
               <valueBoolean value="true"/>
            </extension>
            <extension url="http://nictiz.nl/fhir/StructureDefinition/ext-EdifactReferenceNumber">
               <valueString value="111777"/>
            </extension>
            <identifier>
               <system value="urn:oid:2.16.840.1.113883.2.4.3.11.999.25.4298.2"/>
               <value value="99999"/>
            </identifier>
            <status value="unknown"/>
            <category>
               <coding>
                  <system value="http://terminology.hl7.org/CodeSystem/observation-category"/>
                  <code value="laboratory"/>
                  <display value="Laboratory"/>
               </coding>
            </category>
            <code>
               <coding>
                  <system value="https://referentiemodel.nhg.org/tabellen/nhg-tabel-45-diagnostische-bepalingen"/>
                  <code value="111"/>
                  <display value="Bilirubine totaal"/>
               </coding>
            </code>
            <subject>
               <reference value="urn:uuid:f358040e-45a8-11ee-8858-020000000000"/>
               <type value="Patient"/>
               <display value="Patient, Elise Erelies"/>
            </subject>
            <performer>
               <reference value="urn:uuid:f358042c-45a8-11ee-8858-020000000000"/>
               <type value="Organization"/>
               <display value="Healthcare provider (organization), Klinisch chemisch Lab 't Proefje"/>
            </performer>
            <valueQuantity>
               <value value="5.4"/>
               <unit value="umol/L"/>
               <system value="http://unitsofmeasure.org"/>
               <code value="umol/L"/>
            </valueQuantity>
         </Observation>
      </resource>
      <request>
         <method value="POST"/>
         <url value="Observation"/>
      </request>
   </entry>
   <entry>
      <fullUrl value="urn:uuid:f358042c-45a8-11ee-8858-020000000000"/>
      <resource>
         <Organization>
            <meta>
               <profile value="http://nictiz.nl/fhir/StructureDefinition/nl-core-HealthcareProvider-Organization"/>
            </meta>
            <identifier>
               <system value="http://fhir.nl/fhir/NamingSystem/ura"/>
               <value value="00003333"/>
            </identifier>
            <type>
               <coding>
                  <system value="http://nictiz.nl/fhir/NamingSystem/organization-type"/>
                  <version value="2022-09-10T00:00:00"/>
                  <code value="L1"/>
                  <display value="Laboratorium"/>
               </coding>
            </type>
            <name value="Klinisch chemisch Lab 't Proefje"/>
            <telecom>
               <extension url="http://nictiz.nl/fhir/StructureDefinition/ext-Comment">
                  <valueString value="Bel met vragen"/>
               </extension>
               <system value="phone"/>
               <value value="06-11122233"/>
               <use value="work"/>
            </telecom>
            <telecom>
               <system value="email"/>
               <value value="tproefje@lab.nl"/>
               <use value="work"/>
            </telecom>
            <address>
               <extension url="http://nictiz.nl/fhir/StructureDefinition/ext-AddressInformation.AddressType">
                  <valueCodeableConcept>
                     <coding>
                        <system value="http://terminology.hl7.org/CodeSystem/v3-AddressUse"/>
                        <code value="WP"/>
                        <display value="Werkadres"/>
                     </coding>
                  </valueCodeableConcept>
               </extension>
               <use value="work"/>
               <line value="Hoofdstraat 23">
                  <extension url="http://hl7.org/fhir/StructureDefinition/iso21090-ADXP-streetName">
                     <valueString value="Hoofdstraat"/>
                  </extension>
                  <extension url="http://hl7.org/fhir/StructureDefinition/iso21090-ADXP-houseNumber">
                     <valueString value="23"/>
                  </extension>
               </line>
               <city value="Zorgstad"/>
               <postalCode value="1234AA"/>
            </address>
         </Organization>
      </resource>
      <request>
         <method value="POST"/>
         <url value="Organization"/>
      </request>
   </entry>
   <entry>
      <fullUrl value="urn:uuid:f358040e-45a8-11ee-8858-020000000000"/>
      <resource>
         <Patient>
            <meta>
               <profile value="http://nictiz.nl/fhir/StructureDefinition/nl-core-Patient"/>
            </meta>
            <identifier>
               <system value="http://fhir.nl/fhir/NamingSystem/bsn"/>
               <value value="999999114"/>
            </identifier>
            <name>
               <use value="official"/>
               <text value="Elise Erelies"/>
               <family value="Erelies">
                  <extension url="http://hl7.org/fhir/StructureDefinition/humanname-own-name">
                     <valueString value="Erelies"/>
                  </extension>
               </family>
               <given value="Elise">
                  <extension url="http://hl7.org/fhir/StructureDefinition/iso21090-EN-qualifier">
                     <valueCode value="BR"/>
                  </extension>
               </given>
            </name>
            <gender value="female">
               <extension url="http://nictiz.nl/fhir/StructureDefinition/ext-CodeSpecification">
                  <valueCodeableConcept>
                     <coding>
                        <system value="http://terminology.hl7.org/CodeSystem/v3-AdministrativeGender"/>
                        <code value="F"/>
                        <display value="Vrouw"/>
                     </coding>
                  </valueCodeableConcept>
               </extension>
            </gender>
            <birthDate value="1950-11-01"/>
         </Patient>
      </resource>
      <request>
         <method value="POST"/>
         <url value="Patient"/>
      </request>
   </entry>
</Bundle>
