<Bundle xmlns="http://hl7.org/fhir">
   <id value="lr-slr-TEST-l2z-4Bericht-met-meerdere-aparte-resultaten-4KCNHG"/>
   <type value="transaction"/>
   <entry>
      <fullUrl value="urn:uuid:068e5765-7e7e-11f0-1463-020000000000"/>
      <resource>
         <Observation>
            <meta>
               <profile value="http://nictiz.nl/fhir/StructureDefinition/nl-core-LaboratoryTestResult"/>
            </meta>
            <extension url="http://nictiz.nl/fhir/StructureDefinition/ext-CopyIndicator">
               <valueBoolean value="true"/>
            </extension>
            <extension url="http://nictiz.nl/fhir/StructureDefinition/ext-EdifactReferenceNumber">
               <valueString value="111444"/>
            </extension>
            <identifier>
               <system value="urn:oid:2.16.840.1.113883.2.4.3.11.999.25.4298.2"/>
               <value value="66666"/>
            </identifier>
            <status value="final"/>
            <category>
               <coding>
                  <system value="http://terminology.hl7.org/CodeSystem/observation-category"/>
                  <code value="laboratory"/>
                  <display value="Laboratory"/>
               </coding>
            </category>
            <code>
               <coding>
                  <system value="https://referentiemodel.nhg.org/tabellen/nhg-tabel-45-diagnostische-bepalingen"/>
                  <code value="624"/>
                  <display value="Natrium"/>
               </coding>
            </code>
            <subject>
               <reference value="urn:uuid:068e56b1-7e7e-11f0-1463-020000000000"/>
               <type value="Patient"/>
               <display value="Patient, E. XXX_Doppen"/>
            </subject>
            <effectiveDateTime value="${DATE, T, D, -64}"/>
            <performer>
               <reference value="urn:uuid:068e56ed-7e7e-11f0-1463-020000000000"/>
               <type value="Organization"/>
               <display value="Healthcare provider (organization), Klinisch chemisch Lab 't Proefje"/>
            </performer>
            <valueQuantity>
               <value value="165"/>
               <unit value="mmol/l"/>
               <system value="http://unitsofmeasure.org"/>
               <code value="mmol/l"/>
            </valueQuantity>
            <interpretation>
               <coding>
                  <system value="http://snomed.info/sct"/>
                  <code value="281302008"/>
                  <display value="boven referentiebereik"/>
               </coding>
               <coding>
                  <system value="http://terminology.hl7.org/CodeSystem/v3-ObservationInterpretation"/>
                  <code value="H"/>
                  <display value="High"/>
               </coding>
            </interpretation>
            <interpretation>
               <text value="Te hoog Natriumgehalte"/>
            </interpretation>
            <specimen>
               <reference value="urn:uuid:068e57dd-7e7e-11f0-1463-020000000000"/>
               <type value="Specimen"/>
               <display value="monster"/>
            </specimen>
            <referenceRange>
               <low>
                  <value value="135"/>
                  <unit value="mmol/l"/>
                  <system value="http://unitsofmeasure.org"/>
                  <code value="mmol/l"/>
               </low>
               <high>
                  <value value="145"/>
                  <unit value="mmol/l"/>
                  <system value="http://unitsofmeasure.org"/>
                  <code value="mmol/l"/>
               </high>
            </referenceRange>
         </Observation>
      </resource>
      <request>
         <method value="POST"/>
         <url value="Observation"/>
      </request>
   </entry>
   <entry>
      <fullUrl value="urn:uuid:068e5779-7e7e-11f0-1463-020000000000"/>
      <resource>
         <Observation>
            <meta>
               <profile value="http://nictiz.nl/fhir/StructureDefinition/nl-core-LaboratoryTestResult"/>
            </meta>
            <extension url="http://nictiz.nl/fhir/StructureDefinition/ext-CopyIndicator">
               <valueBoolean value="true"/>
            </extension>
            <extension url="http://nictiz.nl/fhir/StructureDefinition/ext-EdifactReferenceNumber">
               <valueString value="111333"/>
            </extension>
            <identifier>
               <system value="urn:oid:2.16.840.1.113883.2.4.3.11.999.25.4298.1"/>
               <value value="55555"/>
            </identifier>
            <status value="final"/>
            <category>
               <coding>
                  <system value="http://terminology.hl7.org/CodeSystem/observation-category"/>
                  <code value="laboratory"/>
                  <display value="Laboratory"/>
               </coding>
            </category>
            <code>
               <coding>
                  <system value="https://referentiemodel.nhg.org/tabellen/nhg-tabel-45-diagnostische-bepalingen"/>
                  <code value="509"/>
                  <display value="international normalised ratio (PT-INR)"/>
               </coding>
            </code>
            <subject>
               <reference value="urn:uuid:068e56b1-7e7e-11f0-1463-020000000000"/>
               <type value="Patient"/>
               <display value="Patient, E. XXX_Doppen"/>
            </subject>
            <effectiveDateTime value="${DATE, T, D, -10}"/>
            <performer>
               <reference value="urn:uuid:068e5715-7e7e-11f0-1463-020000000000"/>
               <type value="Organization"/>
               <display value="Healthcare provider (organization), Trombosedienst Ons Dorp"/>
            </performer>
            <valueQuantity>
               <value value="2.9"/>
               <unit value="{INR}"/>
               <system value="http://unitsofmeasure.org"/>
               <code value="{INR}"/>
            </valueQuantity>
            <interpretation>
               <coding>
                  <system value="http://snomed.info/sct"/>
                  <code value="281302008"/>
                  <display value="boven referentiebereik"/>
               </coding>
               <coding>
                  <system value="http://terminology.hl7.org/CodeSystem/v3-ObservationInterpretation"/>
                  <code value="H"/>
                  <display value="High"/>
               </coding>
            </interpretation>
            <interpretation>
               <text value="Te hoog let op."/>
            </interpretation>
            <specimen>
               <reference value="urn:uuid:068e57f1-7e7e-11f0-1463-020000000000"/>
               <type value="Specimen"/>
               <display value="monster"/>
            </specimen>
            <referenceRange>
               <low>
                  <value value="0.9"/>
                  <unit value="{INR}"/>
                  <system value="http://unitsofmeasure.org"/>
                  <code value="{INR}"/>
               </low>
               <high>
                  <value value="1.1"/>
                  <unit value="{INR}"/>
                  <system value="http://unitsofmeasure.org"/>
                  <code value="{INR}"/>
               </high>
            </referenceRange>
         </Observation>
      </resource>
      <request>
         <method value="POST"/>
         <url value="Observation"/>
      </request>
   </entry>
   <entry>
      <fullUrl value="urn:uuid:068e578d-7e7e-11f0-1463-020000000000"/>
      <resource>
         <Observation>
            <meta>
               <profile value="http://nictiz.nl/fhir/StructureDefinition/nl-core-LaboratoryTestResult"/>
            </meta>
            <extension url="http://nictiz.nl/fhir/StructureDefinition/ext-CopyIndicator">
               <valueBoolean value="true"/>
            </extension>
            <extension url="http://nictiz.nl/fhir/StructureDefinition/ext-EdifactReferenceNumber">
               <valueString value="111555"/>
            </extension>
            <identifier>
               <system value="urn:oid:2.16.840.1.113883.2.4.3.11.999.25.4298.4"/>
               <value value="77777"/>
            </identifier>
            <status value="final"/>
            <category>
               <coding>
                  <system value="http://terminology.hl7.org/CodeSystem/observation-category"/>
                  <code value="laboratory"/>
                  <display value="Laboratory"/>
               </coding>
            </category>
            <code>
               <coding>
                  <system value="https://referentiemodel.nhg.org/tabellen/nhg-tabel-45-diagnostische-bepalingen"/>
                  <code value="513"/>
                  <display value="Kalium"/>
               </coding>
            </code>
            <subject>
               <reference value="urn:uuid:068e56b1-7e7e-11f0-1463-020000000000"/>
               <type value="Patient"/>
               <display value="Patient, E. XXX_Doppen"/>
            </subject>
            <effectiveDateTime value="${DATE, T, M, -1}"/>
            <performer>
               <reference value="urn:uuid:068e573d-7e7e-11f0-1463-020000000000"/>
               <type value="Organization"/>
               <display value="Healthcare provider (organization), Klinisch chemisch Lab de Erlenmeyer"/>
            </performer>
            <valueQuantity>
               <value value="4.0"/>
               <unit value="mmol/l"/>
               <system value="http://unitsofmeasure.org"/>
               <code value="mmol/l"/>
            </valueQuantity>
            <specimen>
               <reference value="urn:uuid:068e5805-7e7e-11f0-1463-020000000000"/>
               <type value="Specimen"/>
               <display value="monster"/>
            </specimen>
            <referenceRange>
               <low>
                  <value value="3.5"/>
                  <unit value="mmol/l"/>
                  <system value="http://unitsofmeasure.org"/>
                  <code value="mmol/l"/>
               </low>
               <high>
                  <value value="5.0"/>
                  <unit value="mmol/l"/>
                  <system value="http://unitsofmeasure.org"/>
                  <code value="mmol/l"/>
               </high>
            </referenceRange>
         </Observation>
      </resource>
      <request>
         <method value="POST"/>
         <url value="Observation"/>
      </request>
   </entry>
   <entry>
      <fullUrl value="urn:uuid:068e57dd-7e7e-11f0-1463-020000000000"/>
      <resource>
         <Specimen>
            <meta>
               <profile value="http://nictiz.nl/fhir/StructureDefinition/nl-core-LaboratoryTestResult.Specimen"/>
            </meta>
            <identifier>
               <system value="urn:oid:2.16.840.1.113883.2.4.3.11.999.25.4267.2"/>
               <value value="334"/>
            </identifier>
            <type>
               <coding>
                  <system value="http://snomed.info/sct"/>
                  <code value="87612001"/>
                  <display value="Bloed"/>
               </coding>
            </type>
            <subject>
               <reference value="urn:uuid:068e56b1-7e7e-11f0-1463-020000000000"/>
               <type value="Patient"/>
               <display value="Patient, E. XXX_Doppen"/>
            </subject>
            <collection>
               <collectedDateTime value="${DATE, T, D, -65}"/>
               <method>
                  <coding>
                     <system value="http://snomed.info/sct"/>
                     <code value="713143008"/>
                     <display value="afname van arterieel bloed"/>
                  </coding>
               </method>
            </collection>
            <container>
               <extension url="http://hl7.org/fhir/StructureDefinition/specimen-sequenceNumber">
                  <valueInteger value="1"/>
               </extension>
            </container>
         </Specimen>
      </resource>
      <request>
         <method value="POST"/>
         <url value="Specimen"/>
      </request>
   </entry>
   <entry>
      <fullUrl value="urn:uuid:068e57f1-7e7e-11f0-1463-020000000000"/>
      <resource>
         <Specimen>
            <meta>
               <profile value="http://nictiz.nl/fhir/StructureDefinition/nl-core-LaboratoryTestResult.Specimen"/>
            </meta>
            <identifier>
               <system value="urn:oid:2.16.840.1.113883.2.4.3.11.999.25.4267.1"/>
               <value value="1122"/>
            </identifier>
            <type>
               <coding>
                  <system value="http://snomed.info/sct"/>
                  <code value="87612001"/>
                  <display value="Bloed"/>
               </coding>
            </type>
            <subject>
               <reference value="urn:uuid:068e56b1-7e7e-11f0-1463-020000000000"/>
               <type value="Patient"/>
               <display value="Patient, E. XXX_Doppen"/>
            </subject>
            <collection>
               <collectedDateTime value="${DATE, T, D, -11}"/>
            </collection>
            <container>
               <type>
                  <coding>
                     <system value="http://snomed.info/sct"/>
                     <code value="767387006"/>
                     <display value="vacuümbuis voor bloedafname met citraat, theofylline, adenosine en dipyramidol (fysiek object)"/>
                  </coding>
               </type>
            </container>
         </Specimen>
      </resource>
      <request>
         <method value="POST"/>
         <url value="Specimen"/>
      </request>
   </entry>
   <entry>
      <fullUrl value="urn:uuid:068e5805-7e7e-11f0-1463-020000000000"/>
      <resource>
         <Specimen>
            <meta>
               <profile value="http://nictiz.nl/fhir/StructureDefinition/nl-core-LaboratoryTestResult.Specimen"/>
            </meta>
            <identifier>
               <system value="urn:oid:2.16.840.1.113883.2.4.3.11.999.25.4267.4"/>
               <value value="334"/>
            </identifier>
            <type>
               <coding>
                  <system value="http://snomed.info/sct"/>
                  <code value="87612001"/>
                  <display value="bloed"/>
               </coding>
            </type>
            <subject>
               <reference value="urn:uuid:068e56b1-7e7e-11f0-1463-020000000000"/>
               <type value="Patient"/>
               <display value="Patient, E. XXX_Doppen"/>
            </subject>
            <collection>
               <collectedDateTime value="${DATE, T, M, -1}"/>
               <method>
                  <coding>
                     <system value="http://snomed.info/sct"/>
                     <code value="713143008"/>
                     <display value="afname van arterieel bloed"/>
                  </coding>
               </method>
            </collection>
            <container>
               <extension url="http://hl7.org/fhir/StructureDefinition/specimen-sequenceNumber">
                  <valueInteger value="2"/>
               </extension>
            </container>
         </Specimen>
      </resource>
      <request>
         <method value="POST"/>
         <url value="Specimen"/>
      </request>
   </entry>
   <entry>
      <fullUrl value="urn:uuid:068e56ed-7e7e-11f0-1463-020000000000"/>
      <resource>
         <Organization>
            <meta>
               <profile value="http://nictiz.nl/fhir/StructureDefinition/nl-core-HealthcareProvider-Organization"/>
            </meta>
            <identifier>
               <system value="http://fhir.nl/fhir/NamingSystem/ura"/>
               <value value="00003333"/>
            </identifier>
            <type>
               <coding>
                  <system value="http://nictiz.nl/fhir/NamingSystem/organization-type"/>
                  <version value="2023-04-14T00:00:00"/>
                  <code value="L1"/>
                  <display value="Laboratorium"/>
               </coding>
            </type>
            <name value="Klinisch chemisch Lab 't Proefje"/>
            <telecom>
               <extension url="http://nictiz.nl/fhir/StructureDefinition/ext-Comment">
                  <valueString value="Bel met vragen"/>
               </extension>
               <system value="phone"/>
               <value value="06-11122233"/>
               <use value="work"/>
            </telecom>
            <telecom>
               <system value="email"/>
               <value value="tproefje@lab.nl"/>
               <use value="work"/>
            </telecom>
            <address>
               <extension url="http://nictiz.nl/fhir/StructureDefinition/ext-AddressInformation.AddressType">
                  <valueCodeableConcept>
                     <coding>
                        <system value="http://terminology.hl7.org/CodeSystem/v3-AddressUse"/>
                        <code value="WP"/>
                        <display value="Werkadres"/>
                     </coding>
                  </valueCodeableConcept>
               </extension>
               <use value="work"/>
               <line value="Hoofdstraat 23">
                  <extension url="http://hl7.org/fhir/StructureDefinition/iso21090-ADXP-streetName">
                     <valueString value="Hoofdstraat"/>
                  </extension>
                  <extension url="http://hl7.org/fhir/StructureDefinition/iso21090-ADXP-houseNumber">
                     <valueString value="23"/>
                  </extension>
               </line>
               <city value="Zorgstad"/>
               <postalCode value="1234AA"/>
            </address>
         </Organization>
      </resource>
      <request>
         <method value="POST"/>
         <url value="Organization"/>
      </request>
   </entry>
   <entry>
      <fullUrl value="urn:uuid:068e5715-7e7e-11f0-1463-020000000000"/>
      <resource>
         <Organization>
            <meta>
               <profile value="http://nictiz.nl/fhir/StructureDefinition/nl-core-HealthcareProvider-Organization"/>
            </meta>
            <identifier>
               <system value="http://fhir.nl/fhir/NamingSystem/ura"/>
               <value value="11112222"/>
            </identifier>
            <type>
               <coding>
                  <system value="http://nictiz.nl/fhir/NamingSystem/organization-type"/>
                  <version value="2023-04-14T00:00:00"/>
                  <code value="TD"/>
                  <display value="Trombosedienst"/>
               </coding>
            </type>
            <name value="Trombosedienst Ons Dorp"/>
            <telecom>
               <system value="phone">
                  <extension url="http://nictiz.nl/fhir/StructureDefinition/ext-CodeSpecification">
                     <valueCodeableConcept>
                        <coding>
                           <system value="http://terminology.hl7.org/CodeSystem/v3-AddressUse"/>
                           <code value="MC"/>
                           <display value="Mobiel telefoonnummer"/>
                        </coding>
                     </valueCodeableConcept>
                  </extension>
               </system>
               <value value="06-11122266"/>
            </telecom>
            <address>
               <line value="Kerkstraat 28 d">
                  <extension url="http://hl7.org/fhir/StructureDefinition/iso21090-ADXP-streetName">
                     <valueString value="Kerkstraat"/>
                  </extension>
                  <extension url="http://hl7.org/fhir/StructureDefinition/iso21090-ADXP-houseNumber">
                     <valueString value="28"/>
                  </extension>
                  <extension url="http://hl7.org/fhir/StructureDefinition/iso21090-ADXP-buildingNumberSuffix">
                     <valueString value="d"/>
                  </extension>
               </line>
               <city value="Ons Dorp"/>
               <postalCode value="1332GH"/>
            </address>
         </Organization>
      </resource>
      <request>
         <method value="POST"/>
         <url value="Organization"/>
      </request>
   </entry>
   <entry>
      <fullUrl value="urn:uuid:068e573d-7e7e-11f0-1463-020000000000"/>
      <resource>
         <Organization>
            <meta>
               <profile value="http://nictiz.nl/fhir/StructureDefinition/nl-core-HealthcareProvider-Organization"/>
            </meta>
            <identifier>
               <system value="http://fhir.nl/fhir/NamingSystem/ura"/>
               <value value="00003335"/>
            </identifier>
            <type>
               <coding>
                  <system value="http://nictiz.nl/fhir/NamingSystem/organization-type"/>
                  <version value="2023-04-14T00:00:00"/>
                  <code value="L1"/>
                  <display value="Laboratorium"/>
               </coding>
            </type>
            <name value="Klinisch chemisch Lab de Erlenmeyer"/>
            <telecom>
               <system value="phone"/>
               <value value="06-11122255"/>
            </telecom>
            <address>
               <extension url="http://nictiz.nl/fhir/StructureDefinition/ext-AddressInformation.AddressType">
                  <valueCodeableConcept>
                     <coding>
                        <system value="http://terminology.hl7.org/CodeSystem/v3-AddressUse"/>
                        <code value="WP"/>
                        <display value="Werkadres"/>
                     </coding>
                  </valueCodeableConcept>
               </extension>
               <use value="work"/>
               <line value="Kerkstraat 101 A">
                  <extension url="http://hl7.org/fhir/StructureDefinition/iso21090-ADXP-streetName">
                     <valueString value="Kerkstraat"/>
                  </extension>
                  <extension url="http://hl7.org/fhir/StructureDefinition/iso21090-ADXP-houseNumber">
                     <valueString value="101"/>
                  </extension>
                  <extension url="http://hl7.org/fhir/StructureDefinition/iso21090-ADXP-buildingNumberSuffix">
                     <valueString value="A"/>
                  </extension>
               </line>
               <city value="Zorgstad"/>
               <postalCode value="2143BB"/>
            </address>
         </Organization>
      </resource>
      <request>
         <method value="POST"/>
         <url value="Organization"/>
      </request>
   </entry>
   <entry>
      <fullUrl value="urn:uuid:068e56b1-7e7e-11f0-1463-020000000000"/>
      <resource>
         <Patient>
            <meta>
               <profile value="http://nictiz.nl/fhir/StructureDefinition/nl-core-Patient"/>
            </meta>
            <identifier>
               <system value="http://fhir.nl/fhir/NamingSystem/bsn"/>
               <value value="999900511"/>
            </identifier>
            <name>
               <use value="official"/>
               <text value="E. XXX_Doppen"/>
               <family value="XXX_Doppen">
                  <extension url="http://hl7.org/fhir/StructureDefinition/humanname-own-name">
                     <valueString value="XXX_Doppen"/>
                  </extension>
               </family>
               <given value="E.">
                  <extension url="http://hl7.org/fhir/StructureDefinition/iso21090-EN-qualifier">
                     <valueCode value="IN"/>
                  </extension>
               </given>
            </name>
            <gender value="male">
               <extension url="http://nictiz.nl/fhir/StructureDefinition/ext-CodeSpecification">
                  <valueCodeableConcept>
                     <coding>
                        <system value="http://terminology.hl7.org/CodeSystem/v3-AdministrativeGender"/>
                        <code value="M"/>
                        <display value="Man"/>
                     </coding>
                  </valueCodeableConcept>
               </extension>
            </gender>
            <birthDate value="1963-10-24"/>
         </Patient>
      </resource>
      <request>
         <method value="POST"/>
         <url value="Patient"/>
      </request>
   </entry>
   <entry>
      <fullUrl value="urn:uuid:068e56c5-7e7e-11f0-1463-020000000000"/>
      <resource>
         <Organization>
            <meta>
               <profile value="http://nictiz.nl/fhir/StructureDefinition/nl-core-HealthcareProvider-Organization"/>
            </meta>
            <identifier>
               <system value="http://fhir.nl/fhir/NamingSystem/ura"/>
               <value value="00001111"/>
            </identifier>
            <type>
               <coding>
                  <system value="http://nictiz.nl/fhir/NamingSystem/organization-type"/>
                  <version value="2023-04-14T00:00:00"/>
                  <code value="Z3"/>
                  <display value="Huisartspraktijk (zelfstandig of groepspraktijk)"/>
               </coding>
            </type>
            <name value="Huisartsenpraktijk Pulver &amp; Partners"/>
            <address>
               <extension url="http://nictiz.nl/fhir/StructureDefinition/ext-AddressInformation.AddressType">
                  <valueCodeableConcept>
                     <coding>
                        <system value="http://terminology.hl7.org/CodeSystem/v3-AddressUse"/>
                        <code value="WP"/>
                        <display value="Werkadres"/>
                     </coding>
                  </valueCodeableConcept>
               </extension>
               <use value="work"/>
               <line value="Dorpsstraat 1">
                  <extension url="http://hl7.org/fhir/StructureDefinition/iso21090-ADXP-streetName">
                     <valueString value="Dorpsstraat"/>
                  </extension>
                  <extension url="http://hl7.org/fhir/StructureDefinition/iso21090-ADXP-houseNumber">
                     <valueString value="1"/>
                  </extension>
               </line>
               <city value="Ons Dorp"/>
               <postalCode value="1234AA"/>
            </address>
         </Organization>
      </resource>
      <request>
         <method value="POST"/>
         <url value="Organization"/>
      </request>
   </entry>
</Bundle>