<?xml version="1.0" encoding="UTF-8"?>
<Bundle xmlns="http://hl7.org/fhir">
   <id value="lr-slr-KWAL-KC-NHG-Scenario2b-KCNHG2b"/>
   <type value="transaction"/>
   <entry>
      <fullUrl value="urn:uuid:baa3cdbc-3dbc-11ee-1009-020000000000"/>
      <resource>
         <Observation>
            <meta>
               <profile value="http://nictiz.nl/fhir/StructureDefinition/nl-core-LaboratoryTestResult"/>
            </meta>
            <extension url="http://nictiz.nl/fhir/StructureDefinition/ext-CopyIndicator">
               <valueBoolean value="true"/>
            </extension>
            <extension url="http://nictiz.nl/fhir/StructureDefinition/ext-EdifactReferenceNumber">
               <valueString value="999222"/>
            </extension>
            <identifier>
               <system value="urn:oid:2.16.840.1.113883.2.4.3.11.999.25.4298.1"/>
               <value value="95555"/>
            </identifier>
            <status value="corrected"/>
            <category>
               <coding>
                  <system value="http://terminology.hl7.org/CodeSystem/observation-category"/>
                  <code value="laboratory"/>
                  <display value="Laboratory"/>
               </coding>
            </category>
            <code>
               <coding>
                  <system value="https://referentiemodel.nhg.org/tabellen/nhg-tabel-45-diagnostische-bepalingen"/>
                  <code value="509"/>
                  <display value="international normalised ratio (PT-INR)"/>
               </coding>
            </code>
            <subject>
               <reference value="urn:uuid:baa3cd62-3dbc-11ee-1009-020000000000"/>
               <type value="Patient"/>
               <display value="Patient, Patricia XXX_Sacht"/>
            </subject>
            <effectiveDateTime value="${DATE, T, D, -10}"/>
            <performer>
               <reference value="urn:uuid:baa3cd80-3dbc-11ee-1009-020000000000"/>
               <type value="Organization"/>
               <display value="Healthcare provider (organization), Trombosedienst Ons Dorp"/>
            </performer>
            <valueQuantity>
               <value value="2.4"/>
            </valueQuantity>
            <interpretation>
               <coding>
                  <system value="http://snomed.info/sct"/>
                  <code value="281302008"/>
                  <display value="boven referentiebereik"/>
               </coding>
               <coding>
                  <system value="http://terminology.hl7.org/CodeSystem/v3-ObservationInterpretation"/>
                  <code value="H"/>
                  <display value="High"/>
               </coding>
            </interpretation>
            <interpretation>
               <text value="Gecorrigeerde uitslag op eerder uitgevoerd onderzoek. Machine was stuk."/>
            </interpretation>
            <specimen>
               <reference value="urn:uuid:baa3cdf8-3dbc-11ee-1009-020000000000"/>
               <type value="Specimen"/>
               <display value="monster"/>
            </specimen>
         </Observation>
      </resource>
      <request>
         <method value="POST"/>
         <url value="Observation"/>
      </request>
   </entry>
   <entry>
      <fullUrl value="urn:uuid:baa3cdf8-3dbc-11ee-1009-020000000000"/>
      <resource>
         <Specimen>
            <meta>
               <profile value="http://nictiz.nl/fhir/StructureDefinition/nl-core-LaboratoryTestResult.Specimen"/>
            </meta>
            <identifier>
               <system value="urn:oid:2.16.840.1.113883.2.4.3.11.999.25.4267.1"/>
               <value value="1122"/>
            </identifier>
            <type>
               <coding>
                  <system value="http://snomed.info/sct"/>
                  <code value="119361006"/>
                  <display value="Plasma"/>
               </coding>
            </type>
            <subject>
               <reference value="urn:uuid:baa3cd62-3dbc-11ee-1009-020000000000"/>
               <type value="Patient"/>
               <display value="Patient, Patricia XXX_Sacht"/>
            </subject>
            <collection>
               <collectedDateTime value="${DATE, T, D, -11}"/>
            </collection>
            <container>
               <type>
                  <coding>
                     <system value="http://snomed.info/sct"/>
                     <code value="767387006"/>
                     <display value="vacuümbuis voor bloedafname"/>
                  </coding>
               </type>
            </container>
         </Specimen>
      </resource>
      <request>
         <method value="POST"/>
         <url value="Specimen"/>
      </request>
   </entry>
   <entry>
      <fullUrl value="urn:uuid:baa3cd80-3dbc-11ee-1009-020000000000"/>
      <resource>
         <Organization>
            <meta>
               <profile value="http://nictiz.nl/fhir/StructureDefinition/nl-core-HealthcareProvider-Organization"/>
            </meta>
            <identifier>
               <system value="http://fhir.nl/fhir/NamingSystem/ura"/>
               <value value="11112222"/>
            </identifier>
            <type>
               <coding>
                  <system value="http://nictiz.nl/fhir/NamingSystem/organization-type"/>
                  <version value="2022-07-07T00:00:00"/>
                  <code value="TD"/>
                  <display value="Trombosedienst"/>
               </coding>
            </type>
            <name value="Trombosedienst Ons Dorp"/>
            <telecom>
               <system value="phone">
                  <extension url="http://nictiz.nl/fhir/StructureDefinition/ext-CodeSpecification">
                     <valueCodeableConcept>
                        <coding>
                           <system value="http://terminology.hl7.org/CodeSystem/v3-AddressUse"/>
                           <code value="MC"/>
                           <display value="Mobiel telefoonnummer"/>
                        </coding>
                     </valueCodeableConcept>
                  </extension>
               </system>
               <value value="06-11122266"/>
            </telecom>
            <address>
               <line value="Kerkstraat 28 d">
                  <extension url="http://hl7.org/fhir/StructureDefinition/iso21090-ADXP-streetName">
                     <valueString value="Kerkstraat"/>
                  </extension>
                  <extension url="http://hl7.org/fhir/StructureDefinition/iso21090-ADXP-houseNumber">
                     <valueString value="28"/>
                  </extension>
                  <extension url="http://hl7.org/fhir/StructureDefinition/iso21090-ADXP-buildingNumberSuffix">
                     <valueString value="d"/>
                  </extension>
               </line>
               <city value="Ons Dorp"/>
               <postalCode value="1332GH"/>
            </address>
         </Organization>
      </resource>
      <request>
         <method value="POST"/>
         <url value="Organization"/>
      </request>
   </entry>
   <entry>
      <fullUrl value="urn:uuid:baa3cd62-3dbc-11ee-1009-020000000000"/>
      <resource>
         <Patient>
            <meta>
               <profile value="http://nictiz.nl/fhir/StructureDefinition/nl-core-Patient"/>
            </meta>
            <identifier>
               <system value="http://fhir.nl/fhir/NamingSystem/bsn"/>
               <value value="999901011"/>
            </identifier>
            <name>
               <use value="official"/>
               <text value="Patricia XXX_Sacht"/>
               <family value="XXX_Sacht">
                  <extension url="http://hl7.org/fhir/StructureDefinition/humanname-own-name">
                     <valueString value="XXX_Sacht"/>
                  </extension>
               </family>
               <given value="Patricia">
                  <extension url="http://hl7.org/fhir/StructureDefinition/iso21090-EN-qualifier">
                     <valueCode value="BR"/>
                  </extension>
               </given>
            </name>
            <gender value="female">
               <extension url="http://nictiz.nl/fhir/StructureDefinition/ext-CodeSpecification">
                  <valueCodeableConcept>
                     <coding>
                        <system value="http://terminology.hl7.org/CodeSystem/v3-AdministrativeGender"/>
                        <code value="F"/>
                        <display value="Vrouw"/>
                     </coding>
                  </valueCodeableConcept>
               </extension>
            </gender>
            <birthDate value="2000-11-13"/>
         </Patient>
      </resource>
      <request>
         <method value="POST"/>
         <url value="Patient"/>
      </request>
   </entry>
</Bundle>
