<Bundle xmlns="http://hl7.org/fhir">
   <id value="7b1f9a4e-7560-11ed-6268-020000000000"/>
   <type value="searchset"/>
   <total value="20"/>
   <entry>
      <fullUrl value="urn:uuid:7b1f9e5c-7560-11ed-6268-020000000000"/>
      <resource>
         <MedicationRequest>
            <id value="21684011138832431199977160760051-MBH200toedieningssnelheidMA"/>
            <meta>
               <profile value="http://nictiz.nl/fhir/StructureDefinition/mp-MedicationAgreement"/>
            </meta>
            <extension url="http://nictiz.nl/fhir/StructureDefinition/ext-RenderedDosageInstruction">
               <valueString value="Vanaf 1 jan 2022, tot en met 9 jan 2022, toedieningssnelheid: maximaal 0.2 à 0.5 ml per uur, parenteraal"/>
            </extension>
            <extension url="http://nictiz.nl/fhir/StructureDefinition/ext-TimeInterval.Period">
               <valuePeriod>
                  <start value="2022-01-01T00:00:00+01:00"/>
                  <end value="2022-01-09T23:59:59+01:00"/>
               </valuePeriod>
            </extension>
            <extension url="http://nictiz.nl/fhir/StructureDefinition/ext-PharmaceuticalTreatment.Identifier">
               <valueIdentifier>
                  <system value="urn:oid:2.16.840.1.113883.2.4.3.11.999.77.1.1"/>
                  <value value="MBH_200_toedieningssnelheid"/>
               </valueIdentifier>
            </extension>
            <identifier>
               <system value="urn:oid:2.16.840.1.113883.2.4.3.11.999.77.16076005.1"/>
               <value value="MBH_200_toedieningssnelheid_MA"/>
            </identifier>
            <status value="unknown"/>
            <intent value="order"/>
            <category>
               <coding>
                  <system value="http://snomed.info/sct"/>
                  <code value="33633005"/>
                  <display value="voorschrijven van geneesmiddel"/>
               </coding>
            </category>
            <medicationReference>
               <reference value="urn:uuid:7b1fa0b4-7560-11ed-6268-020000000000"/>
               <type value="Medication"/>
               <display value="MORFINE INFVLST 5MG/ML CAS 100ML"/>
            </medicationReference>
            <subject>
               <reference value="urn:uuid:7b1f9a88-7560-11ed-6268-020000000000"/>
               <type value="Patient"/>
               <display value="Patient, G. XXX_Hemsbergen"/>
            </subject>
            <authoredOn value="2022-01-01T08:47:00+01:00"/>
            <requester>
               <reference value="urn:uuid:7b1f9b46-7560-11ed-6268-020000000000"/>
               <type value="PractitionerRole"/>
               <display value="Healthcare professional (role), Peter van Pulver, Huisartsen, niet nader gespecificeerd, Huisartsenpraktijk Pulver &amp; Partners"/>
            </requester>
            <dosageInstruction>
               <sequence value="1"/>
               <route>
                  <coding>
                     <system value="urn:oid:2.16.840.1.113883.2.4.4.9"/>
                     <code value="10"/>
                     <display value="parenteraal"/>
                  </coding>
               </route>
               <doseAndRate>
                  <rateRange>
                     <low>
                        <value value="0.2"/>
                        <unit value="ml/h"/>
                        <system value="http://unitsofmeasure.org"/>
                        <code value="ml/h"/>
                     </low>
                     <high>
                        <value value="0.5"/>
                        <unit value="ml/h"/>
                        <system value="http://unitsofmeasure.org"/>
                        <code value="ml/h"/>
                     </high>
                  </rateRange>
               </doseAndRate>
            </dosageInstruction>
         </MedicationRequest>
      </resource>
      <search>
         <mode value="match"/>
      </search>
   </entry>
   <entry>
      <fullUrl value="urn:uuid:7b1f9e7a-7560-11ed-6268-020000000000"/>
      <resource>
         <MedicationRequest>
            <id value="21684011138832431199977160760051-MBH200toedieningsduurMA"/>
            <meta>
               <profile value="http://nictiz.nl/fhir/StructureDefinition/mp-MedicationAgreement"/>
            </meta>
            <extension url="http://nictiz.nl/fhir/StructureDefinition/ext-RenderedDosageInstruction">
               <valueString value="Vanaf 1 jan 2022, 1 maal per dag 1 stuk gedurende 16 uur, transdermaal"/>
            </extension>
            <extension url="http://nictiz.nl/fhir/StructureDefinition/ext-TimeInterval.Period">
               <valuePeriod>
                  <start value="2022-01-01T00:00:00+01:00"/>
               </valuePeriod>
            </extension>
            <extension url="http://nictiz.nl/fhir/StructureDefinition/ext-PharmaceuticalTreatment.Identifier">
               <valueIdentifier>
                  <system value="urn:oid:2.16.840.1.113883.2.4.3.11.999.77.1.1"/>
                  <value value="MBH_200_toedieningsduur"/>
               </valueIdentifier>
            </extension>
            <identifier>
               <system value="urn:oid:2.16.840.1.113883.2.4.3.11.999.77.16076005.1"/>
               <value value="MBH_200_toedieningsduur_MA"/>
            </identifier>
            <status value="unknown"/>
            <intent value="order"/>
            <category>
               <coding>
                  <system value="http://snomed.info/sct"/>
                  <code value="33633005"/>
                  <display value="voorschrijven van geneesmiddel"/>
               </coding>
            </category>
            <medicationReference>
               <reference value="urn:uuid:7b1fa0f0-7560-11ed-6268-020000000000"/>
               <type value="Medication"/>
               <display value="NITROGLYCERINE PLEISTER 5MG/24UUR (DEPONIT T)"/>
            </medicationReference>
            <subject>
               <reference value="urn:uuid:7b1f9a88-7560-11ed-6268-020000000000"/>
               <type value="Patient"/>
               <display value="Patient, G. XXX_Hemsbergen"/>
            </subject>
            <authoredOn value="2022-01-01T08:49:00+01:00"/>
            <requester>
               <reference value="urn:uuid:7b1f9b46-7560-11ed-6268-020000000000"/>
               <type value="PractitionerRole"/>
               <display value="Healthcare professional (role), Peter van Pulver, Huisartsen, niet nader gespecificeerd, Huisartsenpraktijk Pulver &amp; Partners"/>
            </requester>
            <dosageInstruction>
               <sequence value="1"/>
               <timing>
                  <repeat>
                     <duration value="16"/>
                     <durationUnit value="h"/>
                     <frequency value="1"/>
                     <period value="1"/>
                     <periodUnit value="d"/>
                  </repeat>
               </timing>
               <route>
                  <coding>
                     <system value="urn:oid:2.16.840.1.113883.2.4.4.9"/>
                     <code value="58"/>
                     <display value="transdermaal"/>
                  </coding>
               </route>
               <doseAndRate>
                  <doseQuantity>
                     <extension url="http://hl7.org/fhir/StructureDefinition/iso21090-PQ-translation">
                        <valueQuantity>
                           <value value="1"/>
                           <unit value="stuk"/>
                           <system value="urn:oid:2.16.840.1.113883.2.4.4.1.900.2"/>
                           <code value="245"/>
                        </valueQuantity>
                     </extension>
                     <value value="1"/>
                     <unit value="stuk"/>
                     <system value="http://unitsofmeasure.org"/>
                     <code value="1"/>
                  </doseQuantity>
               </doseAndRate>
            </dosageInstruction>
         </MedicationRequest>
      </resource>
      <search>
         <mode value="match"/>
      </search>
   </entry>
   <entry>
      <fullUrl value="urn:uuid:7b1f9e98-7560-11ed-6268-020000000000"/>
      <resource>
         <MedicationRequest>
            <id value="21684011138832431199977160760051-MBH200zonodigMA"/>
            <meta>
               <profile value="http://nictiz.nl/fhir/StructureDefinition/mp-MedicationAgreement"/>
            </meta>
            <extension url="http://nictiz.nl/fhir/StructureDefinition/ext-RenderedDosageInstruction">
               <valueString value="Vanaf 1 jan 2022, tot en met 28 jan 2022, Zo nodig 1 maal per dag 1 stuk, Oraal"/>
            </extension>
            <extension url="http://nictiz.nl/fhir/StructureDefinition/ext-TimeInterval.Period">
               <valuePeriod>
                  <start value="2022-01-01T00:00:00+01:00"/>
                  <end value="2022-01-28T23:59:59+01:00"/>
               </valuePeriod>
            </extension>
            <extension url="http://nictiz.nl/fhir/StructureDefinition/ext-PharmaceuticalTreatment.Identifier">
               <valueIdentifier>
                  <system value="urn:oid:2.16.840.1.113883.2.4.3.11.999.77.1.1"/>
                  <value value="MBH_200_zonodig"/>
               </valueIdentifier>
            </extension>
            <identifier>
               <system value="urn:oid:2.16.840.1.113883.2.4.3.11.999.77.16076005.1"/>
               <value value="MBH_200_zonodig_MA"/>
            </identifier>
            <status value="unknown"/>
            <intent value="order"/>
            <category>
               <coding>
                  <system value="http://snomed.info/sct"/>
                  <code value="33633005"/>
                  <display value="voorschrijven van geneesmiddel"/>
               </coding>
            </category>
            <medicationReference>
               <reference value="urn:uuid:7b1fa12c-7560-11ed-6268-020000000000"/>
               <type value="Medication"/>
               <display value="ACETYLSALICYLZUUR 100MG TAB"/>
            </medicationReference>
            <subject>
               <reference value="urn:uuid:7b1f9a88-7560-11ed-6268-020000000000"/>
               <type value="Patient"/>
               <display value="Patient, G. XXX_Hemsbergen"/>
            </subject>
            <authoredOn value="2022-01-01T08:57:00+01:00"/>
            <requester>
               <reference value="urn:uuid:7b1f9b46-7560-11ed-6268-020000000000"/>
               <type value="PractitionerRole"/>
               <display value="Healthcare professional (role), Peter van Pulver, Huisartsen, niet nader gespecificeerd, Huisartsenpraktijk Pulver &amp; Partners"/>
            </requester>
            <dosageInstruction>
               <sequence value="1"/>
               <timing>
                  <repeat>
                     <frequency value="1"/>
                     <period value="1"/>
                     <periodUnit value="d"/>
                  </repeat>
               </timing>
               <asNeededCodeableConcept>
                  <coding>
                     <system value="https://referentiemodel.nhg.org/tabellen/nhg-tabel-25-gebruiksvoorschrift#aanvullend-numeriek"/>
                     <code value="1137"/>
                     <display value="Zo nodig"/>
                  </coding>
               </asNeededCodeableConcept>
               <route>
                  <coding>
                     <system value="urn:oid:2.16.840.1.113883.2.4.4.9"/>
                     <code value="9"/>
                     <display value="Oraal"/>
                  </coding>
               </route>
               <doseAndRate>
                  <doseQuantity>
                     <extension url="http://hl7.org/fhir/StructureDefinition/iso21090-PQ-translation">
                        <valueQuantity>
                           <value value="1"/>
                           <unit value="stuk"/>
                           <system value="urn:oid:2.16.840.1.113883.2.4.4.1.900.2"/>
                           <code value="245"/>
                        </valueQuantity>
                     </extension>
                     <value value="1"/>
                     <unit value="stuk"/>
                     <system value="http://unitsofmeasure.org"/>
                     <code value="1"/>
                  </doseQuantity>
               </doseAndRate>
            </dosageInstruction>
         </MedicationRequest>
      </resource>
      <search>
         <mode value="match"/>
      </search>
   </entry>
   <entry>
      <fullUrl value="urn:uuid:7b1f9eb6-7560-11ed-6268-020000000000"/>
      <resource>
         <MedicationRequest>
            <id value="7b1f92bd-7560-11ed-6268-020000000000"/>
            <meta>
               <profile value="http://nictiz.nl/fhir/StructureDefinition/mp-MedicationAgreement"/>
            </meta>
            <extension url="http://nictiz.nl/fhir/StructureDefinition/ext-RenderedDosageInstruction">
               <valueString value="Vanaf 1 jan 2022, tot en met 8 jan 2022, elke dag om 09:00, 12:00 en 15:00 1 stuk - let op, tijden exact aanhouden, oraal"/>
            </extension>
            <extension url="http://nictiz.nl/fhir/StructureDefinition/ext-TimeInterval.Period">
               <valuePeriod>
                  <start value="2022-01-01T00:00:00+01:00"/>
                  <end value="2022-01-08T23:59:59+01:00"/>
               </valuePeriod>
            </extension>
            <extension url="http://nictiz.nl/fhir/StructureDefinition/ext-PharmaceuticalTreatment.Identifier">
               <valueIdentifier>
                  <system value="urn:oid:2.16.840.1.113883.2.4.3.11.999.77.1.1"/>
                  <value value="MBH_200_tijdstippen_niet_flexibel"/>
               </valueIdentifier>
            </extension>
            <identifier>
               <system value="urn:oid:2.16.840.1.113883.2.4.3.11.999.77.16076005.1"/>
               <value value="MBH_200_tijdstippen_niet_flexibel_MA"/>
            </identifier>
            <status value="unknown"/>
            <intent value="order"/>
            <category>
               <coding>
                  <system value="http://snomed.info/sct"/>
                  <code value="33633005"/>
                  <display value="voorschrijven van geneesmiddel"/>
               </coding>
            </category>
            <medicationReference>
               <reference value="urn:uuid:7b1fa168-7560-11ed-6268-020000000000"/>
               <type value="Medication"/>
               <display value="METFORMINE 500MG TABLET"/>
            </medicationReference>
            <subject>
               <reference value="urn:uuid:7b1f9a88-7560-11ed-6268-020000000000"/>
               <type value="Patient"/>
               <display value="Patient, G. XXX_Hemsbergen"/>
            </subject>
            <authoredOn value="2022-01-01T09:15:00+01:00"/>
            <requester>
               <reference value="urn:uuid:7b1f9b46-7560-11ed-6268-020000000000"/>
               <type value="PractitionerRole"/>
               <display value="Healthcare professional (role), Peter van Pulver, Huisartsen, niet nader gespecificeerd, Huisartsenpraktijk Pulver &amp; Partners"/>
            </requester>
            <dosageInstruction>
               <sequence value="1"/>
               <timing>
                  <repeat>
                     <extension url="http://hl7.org/fhir/StructureDefinition/timing-exact">
                        <valueBoolean value="true"/>
                     </extension>
                     <timeOfDay value="09:00:00"/>
                     <timeOfDay value="12:00:00"/>
                     <timeOfDay value="15:00:00"/>
                  </repeat>
               </timing>
               <route>
                  <coding>
                     <system value="urn:oid:2.16.840.1.113883.2.4.4.9"/>
                     <code value="9"/>
                     <display value="oraal"/>
                  </coding>
               </route>
               <doseAndRate>
                  <doseQuantity>
                     <extension url="http://hl7.org/fhir/StructureDefinition/iso21090-PQ-translation">
                        <valueQuantity>
                           <value value="1"/>
                           <unit value="stuk"/>
                           <system value="urn:oid:2.16.840.1.113883.2.4.4.1.900.2"/>
                           <code value="245"/>
                        </valueQuantity>
                     </extension>
                     <value value="1"/>
                     <unit value="stuk"/>
                     <system value="http://unitsofmeasure.org"/>
                     <code value="1"/>
                  </doseQuantity>
               </doseAndRate>
            </dosageInstruction>
         </MedicationRequest>
      </resource>
      <search>
         <mode value="match"/>
      </search>
   </entry>
   <entry>
      <fullUrl value="urn:uuid:7b1f9ed4-7560-11ed-6268-020000000000"/>
      <resource>
         <MedicationRequest>
            <id value="7b1f9d30-7560-11ed-6268-020000000000"/>
            <meta>
               <profile value="http://nictiz.nl/fhir/StructureDefinition/mp-DispenseRequest"/>
            </meta>
            <extension url="http://nictiz.nl/fhir/StructureDefinition/ext-PharmaceuticalTreatment.Identifier">
               <valueIdentifier>
                  <system value="urn:oid:2.16.840.1.113883.2.4.3.11.999.77.1.1"/>
                  <value value="MBH_200_toedieningssnelheid"/>
               </valueIdentifier>
            </extension>
            <identifier>
               <system value="urn:oid:2.16.840.1.113883.2.4.3.11.999.77.52711000146108.1"/>
               <value value="MBH_200_toedieningssnelheid_VV"/>
            </identifier>
            <status value="unknown"/>
            <intent value="order"/>
            <category>
               <coding>
                  <system value="http://snomed.info/sct"/>
                  <code value="52711000146108"/>
                  <display value="verstrekkingsverzoek"/>
               </coding>
            </category>
            <medicationReference>
               <reference value="urn:uuid:7b1fa0b4-7560-11ed-6268-020000000000"/>
               <type value="Medication"/>
               <display value="MORFINE INFVLST 5MG/ML CAS 100ML"/>
            </medicationReference>
            <subject>
               <reference value="urn:uuid:7b1f9a88-7560-11ed-6268-020000000000"/>
               <type value="Patient"/>
               <display value="Patient, G. XXX_Hemsbergen"/>
            </subject>
            <authoredOn value="2022-01-01T08:47:00+01:00"/>
            <requester>
               <reference value="urn:uuid:7b1f9b46-7560-11ed-6268-020000000000"/>
               <type value="PractitionerRole"/>
               <display value="Healthcare professional (role), Peter van Pulver, Huisartsen, niet nader gespecificeerd, Huisartsenpraktijk Pulver &amp; Partners"/>
            </requester>
            <performer>
               <reference value="urn:uuid:7b1f9e20-7560-11ed-6268-020000000000"/>
               <type value="Organization"/>
               <display value="Healthcare provider (organization), Apotheek de Gulle Gaper"/>
            </performer>
            <basedOn>
               <type value="MedicationRequest"/>
               <identifier>
                  <system value="urn:oid:2.16.840.1.113883.2.4.3.11.999.77.16076005.1"/>
                  <value value="MBH_200_toedieningssnelheid_MA"/>
               </identifier>
               <display value="relatie naar medicatieafspraak  met identificatie: MBH_200_toedieningssnelheid_MA || 2.16.840.1.113883.2.4.3.11.999.77.16076005.1"/>
            </basedOn>
            <dispenseRequest>
               <quantity>
                  <extension url="http://hl7.org/fhir/StructureDefinition/iso21090-PQ-translation">
                     <valueQuantity>
                        <value value="100"/>
                        <unit value="milliliter"/>
                        <system value="urn:oid:2.16.840.1.113883.2.4.4.1.900.2"/>
                        <code value="233"/>
                     </valueQuantity>
                  </extension>
                  <value value="100"/>
                  <unit value="milliliter"/>
                  <system value="http://unitsofmeasure.org"/>
                  <code value="ml"/>
               </quantity>
            </dispenseRequest>
         </MedicationRequest>
      </resource>
      <search>
         <mode value="match"/>
      </search>
   </entry>
   <entry>
      <fullUrl value="urn:uuid:7b1f9ef2-7560-11ed-6268-020000000000"/>
      <resource>
         <MedicationRequest>
            <id value="21684011138832431199977527110001461081-MBH200toedieningsduurVV"/>
            <meta>
               <profile value="http://nictiz.nl/fhir/StructureDefinition/mp-DispenseRequest"/>
            </meta>
            <extension url="http://nictiz.nl/fhir/StructureDefinition/ext-PharmaceuticalTreatment.Identifier">
               <valueIdentifier>
                  <system value="urn:oid:2.16.840.1.113883.2.4.3.11.999.77.1.1"/>
                  <value value="MBH_200_toedieningsduur"/>
               </valueIdentifier>
            </extension>
            <identifier>
               <system value="urn:oid:2.16.840.1.113883.2.4.3.11.999.77.52711000146108.1"/>
               <value value="MBH_200_toedieningsduur_VV"/>
            </identifier>
            <status value="unknown"/>
            <intent value="order"/>
            <category>
               <coding>
                  <system value="http://snomed.info/sct"/>
                  <code value="52711000146108"/>
                  <display value="verstrekkingsverzoek"/>
               </coding>
            </category>
            <medicationReference>
               <reference value="urn:uuid:7b1fa0f0-7560-11ed-6268-020000000000"/>
               <type value="Medication"/>
               <display value="NITROGLYCERINE PLEISTER 5MG/24UUR (DEPONIT T)"/>
            </medicationReference>
            <subject>
               <reference value="urn:uuid:7b1f9a88-7560-11ed-6268-020000000000"/>
               <type value="Patient"/>
               <display value="Patient, G. XXX_Hemsbergen"/>
            </subject>
            <authoredOn value="2022-01-01T08:49:00+01:00"/>
            <requester>
               <reference value="urn:uuid:7b1f9b46-7560-11ed-6268-020000000000"/>
               <type value="PractitionerRole"/>
               <display value="Healthcare professional (role), Peter van Pulver, Huisartsen, niet nader gespecificeerd, Huisartsenpraktijk Pulver &amp; Partners"/>
            </requester>
            <performer>
               <reference value="urn:uuid:7b1f9e20-7560-11ed-6268-020000000000"/>
               <type value="Organization"/>
               <display value="Healthcare provider (organization), Apotheek de Gulle Gaper"/>
            </performer>
            <basedOn>
               <type value="MedicationRequest"/>
               <identifier>
                  <system value="urn:oid:2.16.840.1.113883.2.4.3.11.999.77.16076005.1"/>
                  <value value="MBH_200_toedieningsduur_MA"/>
               </identifier>
               <display value="relatie naar medicatieafspraak  met identificatie: MBH_200_toedieningsduur_MA || 2.16.840.1.113883.2.4.3.11.999.77.16076005.1"/>
            </basedOn>
            <dispenseRequest>
               <quantity>
                  <extension url="http://hl7.org/fhir/StructureDefinition/iso21090-PQ-translation">
                     <valueQuantity>
                        <value value="30"/>
                        <unit value="stuks"/>
                        <system value="urn:oid:2.16.840.1.113883.2.4.4.1.900.2"/>
                        <code value="245"/>
                     </valueQuantity>
                  </extension>
                  <value value="30"/>
                  <unit value="stuks"/>
                  <system value="http://unitsofmeasure.org"/>
                  <code value="1"/>
               </quantity>
            </dispenseRequest>
         </MedicationRequest>
      </resource>
      <search>
         <mode value="match"/>
      </search>
   </entry>
   <entry>
      <fullUrl value="urn:uuid:7b1f9f10-7560-11ed-6268-020000000000"/>
      <resource>
         <MedicationRequest>
            <id value="21684011138832431199977527110001461081-MBH200zonodigVV"/>
            <meta>
               <profile value="http://nictiz.nl/fhir/StructureDefinition/mp-DispenseRequest"/>
            </meta>
            <extension url="http://nictiz.nl/fhir/StructureDefinition/ext-PharmaceuticalTreatment.Identifier">
               <valueIdentifier>
                  <system value="urn:oid:2.16.840.1.113883.2.4.3.11.999.77.1.1"/>
                  <value value="MBH_200_zonodig"/>
               </valueIdentifier>
            </extension>
            <identifier>
               <system value="urn:oid:2.16.840.1.113883.2.4.3.11.999.77.52711000146108.1"/>
               <value value="MBH_200_zonodig_VV"/>
            </identifier>
            <status value="unknown"/>
            <intent value="order"/>
            <category>
               <coding>
                  <system value="http://snomed.info/sct"/>
                  <code value="52711000146108"/>
                  <display value="verstrekkingsverzoek"/>
               </coding>
            </category>
            <medicationReference>
               <reference value="urn:uuid:7b1fa12c-7560-11ed-6268-020000000000"/>
               <type value="Medication"/>
               <display value="ACETYLSALICYLZUUR 100MG TAB"/>
            </medicationReference>
            <subject>
               <reference value="urn:uuid:7b1f9a88-7560-11ed-6268-020000000000"/>
               <type value="Patient"/>
               <display value="Patient, G. XXX_Hemsbergen"/>
            </subject>
            <authoredOn value="2022-01-01T08:57:00+01:00"/>
            <requester>
               <reference value="urn:uuid:7b1f9b46-7560-11ed-6268-020000000000"/>
               <type value="PractitionerRole"/>
               <display value="Healthcare professional (role), Peter van Pulver, Huisartsen, niet nader gespecificeerd, Huisartsenpraktijk Pulver &amp; Partners"/>
            </requester>
            <performer>
               <reference value="urn:uuid:7b1f9e20-7560-11ed-6268-020000000000"/>
               <type value="Organization"/>
               <display value="Healthcare provider (organization), Apotheek de Gulle Gaper"/>
            </performer>
            <basedOn>
               <type value="MedicationRequest"/>
               <identifier>
                  <system value="urn:oid:2.16.840.1.113883.2.4.3.11.999.77.16076005.1"/>
                  <value value="MBH_200_zonodig_MA"/>
               </identifier>
               <display value="relatie naar medicatieafspraak  met identificatie: MBH_200_zonodig_MA || 2.16.840.1.113883.2.4.3.11.999.77.16076005.1"/>
            </basedOn>
            <dispenseRequest>
               <quantity>
                  <extension url="http://hl7.org/fhir/StructureDefinition/iso21090-PQ-translation">
                     <valueQuantity>
                        <value value="14"/>
                        <unit value="stuk"/>
                        <system value="urn:oid:2.16.840.1.113883.2.4.4.1.900.2"/>
                        <code value="245"/>
                     </valueQuantity>
                  </extension>
                  <value value="14"/>
                  <unit value="stuk"/>
                  <system value="http://unitsofmeasure.org"/>
                  <code value="1"/>
               </quantity>
            </dispenseRequest>
         </MedicationRequest>
      </resource>
      <search>
         <mode value="match"/>
      </search>
   </entry>
   <entry>
      <fullUrl value="urn:uuid:7b1f9f2e-7560-11ed-6268-020000000000"/>
      <resource>
         <MedicationRequest>
            <id value="7b1f92d6-7560-11ed-6268-020000000000"/>
            <meta>
               <profile value="http://nictiz.nl/fhir/StructureDefinition/mp-DispenseRequest"/>
            </meta>
            <extension url="http://nictiz.nl/fhir/StructureDefinition/ext-PharmaceuticalTreatment.Identifier">
               <valueIdentifier>
                  <system value="urn:oid:2.16.840.1.113883.2.4.3.11.999.77.1.1"/>
                  <value value="MBH_200_tijdstippen_niet_flexibel"/>
               </valueIdentifier>
            </extension>
            <identifier>
               <system value="urn:oid:2.16.840.1.113883.2.4.3.11.999.77.52711000146108.1"/>
               <value value="MBH_200_tijdstippen_niet_flexibel_VV"/>
            </identifier>
            <status value="unknown"/>
            <intent value="order"/>
            <category>
               <coding>
                  <system value="http://snomed.info/sct"/>
                  <code value="52711000146108"/>
                  <display value="verstrekkingsverzoek"/>
               </coding>
            </category>
            <medicationReference>
               <reference value="urn:uuid:7b1fa168-7560-11ed-6268-020000000000"/>
               <type value="Medication"/>
               <display value="METFORMINE 500MG TABLET"/>
            </medicationReference>
            <subject>
               <reference value="urn:uuid:7b1f9a88-7560-11ed-6268-020000000000"/>
               <type value="Patient"/>
               <display value="Patient, G. XXX_Hemsbergen"/>
            </subject>
            <authoredOn value="2022-01-01T09:15:00+01:00"/>
            <requester>
               <reference value="urn:uuid:7b1f9b46-7560-11ed-6268-020000000000"/>
               <type value="PractitionerRole"/>
               <display value="Healthcare professional (role), Peter van Pulver, Huisartsen, niet nader gespecificeerd, Huisartsenpraktijk Pulver &amp; Partners"/>
            </requester>
            <performer>
               <reference value="urn:uuid:7b1f9e20-7560-11ed-6268-020000000000"/>
               <type value="Organization"/>
               <display value="Healthcare provider (organization), Apotheek de Gulle Gaper"/>
            </performer>
            <basedOn>
               <type value="MedicationRequest"/>
               <identifier>
                  <system value="urn:oid:2.16.840.1.113883.2.4.3.11.999.77.16076005.1"/>
                  <value value="MBH_200_tijdstippen_niet_flexibel_MA"/>
               </identifier>
               <display value="relatie naar medicatieafspraak  met identificatie: MBH_200_tijdstippen_niet_flexibel_MA || 2.16.840.1.113883.2.4.3.11.999.77.16076005.1"/>
            </basedOn>
            <dispenseRequest>
               <quantity>
                  <extension url="http://hl7.org/fhir/StructureDefinition/iso21090-PQ-translation">
                     <valueQuantity>
                        <value value="24"/>
                        <unit value="stuk"/>
                        <system value="urn:oid:2.16.840.1.113883.2.4.4.1.900.2"/>
                        <code value="245"/>
                     </valueQuantity>
                  </extension>
                  <value value="24"/>
                  <unit value="stuk"/>
                  <system value="http://unitsofmeasure.org"/>
                  <code value="1"/>
               </quantity>
            </dispenseRequest>
         </MedicationRequest>
      </resource>
      <search>
         <mode value="match"/>
      </search>
   </entry>
   <entry>
      <fullUrl value="urn:uuid:7b1f9f4c-7560-11ed-6268-020000000000"/>
      <resource>
         <MedicationDispense>
            <id value="216840111388324311999774220370091-MBH200toedieningssnelheidTA"/>
            <meta>
               <profile value="http://nictiz.nl/fhir/StructureDefinition/mp-AdministrationAgreement"/>
            </meta>
            <extension url="http://nictiz.nl/fhir/StructureDefinition/ext-AdministrationAgreement.AdministrationAgreementDateTime">
               <valueDateTime value="2022-01-01T09:47:00+01:00"/>
            </extension>
            <extension url="http://nictiz.nl/fhir/StructureDefinition/ext-RenderedDosageInstruction">
               <valueString value="Vanaf 1 jan 2022, tot en met 9 jan 2022, toedieningssnelheid: maximaal 0.2 à 0.5 ml per uur, parenteraal"/>
            </extension>
            <extension url="http://nictiz.nl/fhir/StructureDefinition/ext-TimeInterval.Period">
               <valuePeriod>
                  <start value="2022-01-01T00:00:00+01:00"/>
                  <end value="2022-01-09T23:59:59+01:00"/>
               </valuePeriod>
            </extension>
            <extension url="http://nictiz.nl/fhir/StructureDefinition/ext-PharmaceuticalTreatment.Identifier">
               <valueIdentifier>
                  <system value="urn:oid:2.16.840.1.113883.2.4.3.11.999.77.1.1"/>
                  <value value="MBH_200_toedieningssnelheid"/>
               </valueIdentifier>
            </extension>
            <identifier>
               <system value="urn:oid:2.16.840.1.113883.2.4.3.11.999.77.422037009.1"/>
               <value value="MBH_200_toedieningssnelheid_TA"/>
            </identifier>
            <status value="unknown"/>
            <category>
               <coding>
                  <system value="http://snomed.info/sct"/>
                  <code value="422037009"/>
                  <display value="toedieningsafspraak"/>
               </coding>
            </category>
            <medicationReference>
               <reference value="urn:uuid:7b1fa0d2-7560-11ed-6268-020000000000"/>
               <type value="Medication"/>
               <display value="MORFINEHYDROCHLORIDE 1ML= 5MG EPI CAS 100ML FNA MR"/>
            </medicationReference>
            <subject>
               <reference value="urn:uuid:7b1f9a88-7560-11ed-6268-020000000000"/>
               <type value="Patient"/>
               <display value="Patient, G. XXX_Hemsbergen"/>
            </subject>
            <performer>
               <actor>
                  <reference value="urn:uuid:7b1f9e20-7560-11ed-6268-020000000000"/>
                  <type value="Organization"/>
                  <display value="Healthcare provider (organization), Apotheek de Gulle Gaper"/>
               </actor>
            </performer>
            <authorizingPrescription>
               <type value="MedicationRequest"/>
               <identifier>
                  <system value="urn:oid:2.16.840.1.113883.2.4.3.11.999.77.16076005.1"/>
                  <value value="MBH_200_toedieningssnelheid_MA"/>
               </identifier>
               <display value="relatie naar medicatieafspraak met identificatie: MBH_200_toedieningssnelheid_MA || 2.16.840.1.113883.2.4.3.11.999.77.16076005.1"/>
            </authorizingPrescription>
            <dosageInstruction>
               <sequence value="1"/>
               <route>
                  <coding>
                     <system value="urn:oid:2.16.840.1.113883.2.4.4.9"/>
                     <code value="10"/>
                     <display value="parenteraal"/>
                  </coding>
               </route>
               <doseAndRate>
                  <rateRange>
                     <low>
                        <value value="0.2"/>
                        <unit value="ml/h"/>
                        <system value="http://unitsofmeasure.org"/>
                        <code value="ml/h"/>
                     </low>
                     <high>
                        <value value="0.5"/>
                        <unit value="ml/h"/>
                        <system value="http://unitsofmeasure.org"/>
                        <code value="ml/h"/>
                     </high>
                  </rateRange>
               </doseAndRate>
            </dosageInstruction>
         </MedicationDispense>
      </resource>
      <search>
         <mode value="match"/>
      </search>
   </entry>
   <entry>
      <fullUrl value="urn:uuid:7b1f9f6a-7560-11ed-6268-020000000000"/>
      <resource>
         <MedicationDispense>
            <id value="216840111388324311999774220370091-MBH200toedieningsduurTA"/>
            <meta>
               <profile value="http://nictiz.nl/fhir/StructureDefinition/mp-AdministrationAgreement"/>
            </meta>
            <extension url="http://nictiz.nl/fhir/StructureDefinition/ext-AdministrationAgreement.AdministrationAgreementDateTime">
               <valueDateTime value="2022-01-01T09:49:00+01:00"/>
            </extension>
            <extension url="http://nictiz.nl/fhir/StructureDefinition/ext-RenderedDosageInstruction">
               <valueString value="Vanaf 1 jan 2022, 1 maal per dag 1 stuk gedurende 16 uur, transdermaal"/>
            </extension>
            <extension url="http://nictiz.nl/fhir/StructureDefinition/ext-TimeInterval.Period">
               <valuePeriod>
                  <start value="2022-01-01T00:00:00+01:00"/>
               </valuePeriod>
            </extension>
            <extension url="http://nictiz.nl/fhir/StructureDefinition/ext-PharmaceuticalTreatment.Identifier">
               <valueIdentifier>
                  <system value="urn:oid:2.16.840.1.113883.2.4.3.11.999.77.1.1"/>
                  <value value="MBH_200_toedieningsduur"/>
               </valueIdentifier>
            </extension>
            <identifier>
               <system value="urn:oid:2.16.840.1.113883.2.4.3.11.999.77.422037009.1"/>
               <value value="MBH_200_toedieningsduur_TA"/>
            </identifier>
            <status value="unknown"/>
            <category>
               <coding>
                  <system value="http://snomed.info/sct"/>
                  <code value="422037009"/>
                  <display value="toedieningsafspraak"/>
               </coding>
            </category>
            <medicationReference>
               <reference value="urn:uuid:7b1fa10e-7560-11ed-6268-020000000000"/>
               <type value="Medication"/>
               <display value="DEPONIT T 5 PLEISTER TRANSDERMAAL 18,7MG"/>
            </medicationReference>
            <subject>
               <reference value="urn:uuid:7b1f9a88-7560-11ed-6268-020000000000"/>
               <type value="Patient"/>
               <display value="Patient, G. XXX_Hemsbergen"/>
            </subject>
            <performer>
               <actor>
                  <reference value="urn:uuid:7b1f9e20-7560-11ed-6268-020000000000"/>
                  <type value="Organization"/>
                  <display value="Healthcare provider (organization), Apotheek de Gulle Gaper"/>
               </actor>
            </performer>
            <authorizingPrescription>
               <type value="MedicationRequest"/>
               <identifier>
                  <system value="urn:oid:2.16.840.1.113883.2.4.3.11.999.77.16076005.1"/>
                  <value value="MBH_200_toedieningsduur_MA"/>
               </identifier>
               <display value="relatie naar medicatieafspraak met identificatie: MBH_200_toedieningsduur_MA || 2.16.840.1.113883.2.4.3.11.999.77.16076005.1"/>
            </authorizingPrescription>
            <dosageInstruction>
               <sequence value="1"/>
               <timing>
                  <repeat>
                     <duration value="16"/>
                     <durationUnit value="h"/>
                     <frequency value="1"/>
                     <period value="1"/>
                     <periodUnit value="d"/>
                  </repeat>
               </timing>
               <route>
                  <coding>
                     <system value="urn:oid:2.16.840.1.113883.2.4.4.9"/>
                     <code value="58"/>
                     <display value="transdermaal"/>
                  </coding>
               </route>
               <doseAndRate>
                  <doseQuantity>
                     <extension url="http://hl7.org/fhir/StructureDefinition/iso21090-PQ-translation">
                        <valueQuantity>
                           <value value="1"/>
                           <unit value="stuk"/>
                           <system value="urn:oid:2.16.840.1.113883.2.4.4.1.900.2"/>
                           <code value="245"/>
                        </valueQuantity>
                     </extension>
                     <value value="1"/>
                     <unit value="stuk"/>
                     <system value="http://unitsofmeasure.org"/>
                     <code value="1"/>
                  </doseQuantity>
               </doseAndRate>
            </dosageInstruction>
         </MedicationDispense>
      </resource>
      <search>
         <mode value="match"/>
      </search>
   </entry>
   <entry>
      <fullUrl value="urn:uuid:7b1f9f88-7560-11ed-6268-020000000000"/>
      <resource>
         <MedicationDispense>
            <id value="216840111388324311999774220370091-MBH200zonodigTA"/>
            <meta>
               <profile value="http://nictiz.nl/fhir/StructureDefinition/mp-AdministrationAgreement"/>
            </meta>
            <extension url="http://nictiz.nl/fhir/StructureDefinition/ext-AdministrationAgreement.AdministrationAgreementDateTime">
               <valueDateTime value="2022-01-01T09:57:00+01:00"/>
            </extension>
            <extension url="http://nictiz.nl/fhir/StructureDefinition/ext-RenderedDosageInstruction">
               <valueString value="Vanaf 1 jan 2022, tot en met 28 jan 2022, Zo nodig 1 maal per dag 1 stuk, Oraal"/>
            </extension>
            <extension url="http://nictiz.nl/fhir/StructureDefinition/ext-TimeInterval.Period">
               <valuePeriod>
                  <start value="2022-01-01T00:00:00+01:00"/>
                  <end value="2022-01-28T23:59:59+01:00"/>
               </valuePeriod>
            </extension>
            <extension url="http://nictiz.nl/fhir/StructureDefinition/ext-PharmaceuticalTreatment.Identifier">
               <valueIdentifier>
                  <system value="urn:oid:2.16.840.1.113883.2.4.3.11.999.77.1.1"/>
                  <value value="MBH_200_zonodig"/>
               </valueIdentifier>
            </extension>
            <identifier>
               <system value="urn:oid:2.16.840.1.113883.2.4.3.11.999.77.422037009.1"/>
               <value value="MBH_200_zonodig_TA"/>
            </identifier>
            <status value="unknown"/>
            <category>
               <coding>
                  <system value="http://snomed.info/sct"/>
                  <code value="422037009"/>
                  <display value="toedieningsafspraak"/>
               </coding>
            </category>
            <medicationReference>
               <reference value="urn:uuid:7b1fa14a-7560-11ed-6268-020000000000"/>
               <type value="Medication"/>
               <display value="ASPIRINE TABLET 100MG"/>
            </medicationReference>
            <subject>
               <reference value="urn:uuid:7b1f9a88-7560-11ed-6268-020000000000"/>
               <type value="Patient"/>
               <display value="Patient, G. XXX_Hemsbergen"/>
            </subject>
            <performer>
               <actor>
                  <reference value="urn:uuid:7b1f9e20-7560-11ed-6268-020000000000"/>
                  <type value="Organization"/>
                  <display value="Healthcare provider (organization), Apotheek de Gulle Gaper"/>
               </actor>
            </performer>
            <authorizingPrescription>
               <type value="MedicationRequest"/>
               <identifier>
                  <system value="urn:oid:2.16.840.1.113883.2.4.3.11.999.77.16076005.1"/>
                  <value value="MBH_200_zonodig_MA"/>
               </identifier>
               <display value="relatie naar medicatieafspraak met identificatie: MBH_200_zonodig_MA || 2.16.840.1.113883.2.4.3.11.999.77.16076005.1"/>
            </authorizingPrescription>
            <dosageInstruction>
               <sequence value="1"/>
               <timing>
                  <repeat>
                     <frequency value="1"/>
                     <period value="1"/>
                     <periodUnit value="d"/>
                  </repeat>
               </timing>
               <asNeededCodeableConcept>
                  <coding>
                     <system value="https://referentiemodel.nhg.org/tabellen/nhg-tabel-25-gebruiksvoorschrift#aanvullend-numeriek"/>
                     <code value="1137"/>
                     <display value="Zo nodig"/>
                  </coding>
               </asNeededCodeableConcept>
               <route>
                  <coding>
                     <system value="urn:oid:2.16.840.1.113883.2.4.4.9"/>
                     <code value="9"/>
                     <display value="Oraal"/>
                  </coding>
               </route>
               <doseAndRate>
                  <doseQuantity>
                     <extension url="http://hl7.org/fhir/StructureDefinition/iso21090-PQ-translation">
                        <valueQuantity>
                           <value value="1"/>
                           <unit value="stuk"/>
                           <system value="urn:oid:2.16.840.1.113883.2.4.4.1.900.2"/>
                           <code value="245"/>
                        </valueQuantity>
                     </extension>
                     <value value="1"/>
                     <unit value="stuk"/>
                     <system value="http://unitsofmeasure.org"/>
                     <code value="1"/>
                  </doseQuantity>
               </doseAndRate>
            </dosageInstruction>
         </MedicationDispense>
      </resource>
      <search>
         <mode value="match"/>
      </search>
   </entry>
   <entry>
      <fullUrl value="urn:uuid:7b1f9fa6-7560-11ed-6268-020000000000"/>
      <resource>
         <MedicationDispense>
            <id value="7b1f92e4-7560-11ed-6268-020000000000"/>
            <meta>
               <profile value="http://nictiz.nl/fhir/StructureDefinition/mp-AdministrationAgreement"/>
            </meta>
            <extension url="http://nictiz.nl/fhir/StructureDefinition/ext-AdministrationAgreement.AdministrationAgreementDateTime">
               <valueDateTime value="2022-01-01T10:15:00+01:00"/>
            </extension>
            <extension url="http://nictiz.nl/fhir/StructureDefinition/ext-RenderedDosageInstruction">
               <valueString value="elke dag om 09:00, 12:00 en 15:00 1 stuk - let op, tijden exact aanhouden, oraal"/>
            </extension>
            <extension url="http://nictiz.nl/fhir/StructureDefinition/ext-PharmaceuticalTreatment.Identifier">
               <valueIdentifier>
                  <system value="urn:oid:2.16.840.1.113883.2.4.3.11.999.77.1.1"/>
                  <value value="MBH_200_tijdstippen_niet_flexibel"/>
               </valueIdentifier>
            </extension>
            <identifier>
               <system value="urn:oid:2.16.840.1.113883.2.4.3.11.999.77.422037009.1"/>
               <value value="MBH_200_tijdstippen_niet_flexibel_TA"/>
            </identifier>
            <status value="unknown"/>
            <category>
               <coding>
                  <system value="http://snomed.info/sct"/>
                  <code value="422037009"/>
                  <display value="toedieningsafspraak"/>
               </coding>
            </category>
            <medicationReference>
               <reference value="urn:uuid:7b1fa168-7560-11ed-6268-020000000000"/>
               <type value="Medication"/>
               <display value="METFORMINE 500MG TABLET"/>
            </medicationReference>
            <subject>
               <reference value="urn:uuid:7b1f9a88-7560-11ed-6268-020000000000"/>
               <type value="Patient"/>
               <display value="Patient, G. XXX_Hemsbergen"/>
            </subject>
            <performer>
               <actor>
                  <reference value="urn:uuid:7b1f9e20-7560-11ed-6268-020000000000"/>
                  <type value="Organization"/>
                  <display value="Healthcare provider (organization), Apotheek de Gulle Gaper"/>
               </actor>
            </performer>
            <authorizingPrescription>
               <type value="MedicationRequest"/>
               <identifier>
                  <system value="urn:oid:2.16.840.1.113883.2.4.3.11.999.77.16076005.1"/>
                  <value value="MBH_200_tijdstippen_niet_flexibel_MA"/>
               </identifier>
               <display value="relatie naar medicatieafspraak met identificatie: MBH_200_tijdstippen_niet_flexibel_MA || 2.16.840.1.113883.2.4.3.11.999.77.16076005.1"/>
            </authorizingPrescription>
            <dosageInstruction>
               <sequence value="1"/>
               <timing>
                  <repeat>
                     <extension url="http://hl7.org/fhir/StructureDefinition/timing-exact">
                        <valueBoolean value="true"/>
                     </extension>
                     <timeOfDay value="09:00:00"/>
                     <timeOfDay value="12:00:00"/>
                     <timeOfDay value="15:00:00"/>
                  </repeat>
               </timing>
               <route>
                  <coding>
                     <system value="urn:oid:2.16.840.1.113883.2.4.4.9"/>
                     <code value="9"/>
                     <display value="oraal"/>
                  </coding>
               </route>
               <doseAndRate>
                  <doseQuantity>
                     <extension url="http://hl7.org/fhir/StructureDefinition/iso21090-PQ-translation">
                        <valueQuantity>
                           <value value="1"/>
                           <unit value="stuk"/>
                           <system value="urn:oid:2.16.840.1.113883.2.4.4.1.900.2"/>
                           <code value="245"/>
                        </valueQuantity>
                     </extension>
                     <value value="1"/>
                     <unit value="stuk"/>
                     <system value="http://unitsofmeasure.org"/>
                     <code value="1"/>
                  </doseQuantity>
               </doseAndRate>
            </dosageInstruction>
         </MedicationDispense>
      </resource>
      <search>
         <mode value="match"/>
      </search>
   </entry>
   <entry>
      <fullUrl value="urn:uuid:7b1f9fc4-7560-11ed-6268-020000000000"/>
      <resource>
         <MedicationDispense>
            <id value="216840111388324311999773737840051-MBH200toedieningssnelheidMVE"/>
            <meta>
               <profile value="http://nictiz.nl/fhir/StructureDefinition/mp-MedicationDispense"/>
            </meta>
            <extension url="http://nictiz.nl/fhir/StructureDefinition/ext-PharmaceuticalTreatment.Identifier">
               <valueIdentifier>
                  <system value="urn:oid:2.16.840.1.113883.2.4.3.11.999.77.1.1"/>
                  <value value="MBH_200_toedieningssnelheid"/>
               </valueIdentifier>
            </extension>
            <identifier>
               <system value="urn:oid:2.16.840.1.113883.2.4.3.11.999.77.373784005.1"/>
               <value value="MBH_200_toedieningssnelheid_MVE"/>
            </identifier>
            <status value="completed"/>
            <category>
               <coding>
                  <system value="http://snomed.info/sct"/>
                  <code value="373784005"/>
                  <display value="verstrekken van medicatie"/>
               </coding>
            </category>
            <medicationReference>
               <reference value="urn:uuid:7b1fa0d2-7560-11ed-6268-020000000000"/>
               <type value="Medication"/>
               <display value="MORFINEHYDROCHLORIDE 1ML= 5MG EPI CAS 100ML FNA MR"/>
            </medicationReference>
            <subject>
               <reference value="urn:uuid:7b1f9a88-7560-11ed-6268-020000000000"/>
               <type value="Patient"/>
               <display value="Patient, G. XXX_Hemsbergen"/>
            </subject>
            <performer>
               <actor>
                  <reference value="urn:uuid:7b1f9e20-7560-11ed-6268-020000000000"/>
                  <type value="Organization"/>
                  <display value="Healthcare provider (organization), Apotheek de Gulle Gaper"/>
               </actor>
            </performer>
            <authorizingPrescription>
               <type value="MedicationRequest"/>
               <identifier>
                  <system value="urn:oid:2.16.840.1.113883.2.4.3.11.999.77.52711000146108.1"/>
                  <value value="MBH_200_toedieningssnelheid_VV"/>
               </identifier>
               <display value="relatie naar verstrekkingsverzoek met identificatie: MBH_200_toedieningssnelheid_VV || 2.16.840.1.113883.2.4.3.11.999.77.52711000146108.1"/>
            </authorizingPrescription>
            <quantity>
               <extension url="http://hl7.org/fhir/StructureDefinition/iso21090-PQ-translation">
                  <valueQuantity>
                     <value value="100"/>
                     <unit value="milliliter"/>
                     <system value="urn:oid:2.16.840.1.113883.2.4.4.1.900.2"/>
                     <code value="233"/>
                  </valueQuantity>
               </extension>
               <value value="100"/>
               <unit value="milliliter"/>
               <system value="http://unitsofmeasure.org"/>
               <code value="ml"/>
            </quantity>
            <whenHandedOver value="2022-01-01T09:47:00+01:00"/>
         </MedicationDispense>
      </resource>
      <search>
         <mode value="match"/>
      </search>
   </entry>
   <entry>
      <fullUrl value="urn:uuid:7b1f9fe2-7560-11ed-6268-020000000000"/>
      <resource>
         <MedicationDispense>
            <id value="216840111388324311999773737840051-MBH200toedieningsduurMVE"/>
            <meta>
               <profile value="http://nictiz.nl/fhir/StructureDefinition/mp-MedicationDispense"/>
            </meta>
            <extension url="http://nictiz.nl/fhir/StructureDefinition/ext-PharmaceuticalTreatment.Identifier">
               <valueIdentifier>
                  <system value="urn:oid:2.16.840.1.113883.2.4.3.11.999.77.1.1"/>
                  <value value="MBH_200_toedieningsduur"/>
               </valueIdentifier>
            </extension>
            <identifier>
               <system value="urn:oid:2.16.840.1.113883.2.4.3.11.999.77.373784005.1"/>
               <value value="MBH_200_toedieningsduur_MVE"/>
            </identifier>
            <status value="completed"/>
            <category>
               <coding>
                  <system value="http://snomed.info/sct"/>
                  <code value="373784005"/>
                  <display value="verstrekken van medicatie"/>
               </coding>
            </category>
            <medicationReference>
               <reference value="urn:uuid:7b1fa10e-7560-11ed-6268-020000000000"/>
               <type value="Medication"/>
               <display value="DEPONIT T 5 PLEISTER TRANSDERMAAL 18,7MG"/>
            </medicationReference>
            <subject>
               <reference value="urn:uuid:7b1f9a88-7560-11ed-6268-020000000000"/>
               <type value="Patient"/>
               <display value="Patient, G. XXX_Hemsbergen"/>
            </subject>
            <performer>
               <actor>
                  <reference value="urn:uuid:7b1f9e20-7560-11ed-6268-020000000000"/>
                  <type value="Organization"/>
                  <display value="Healthcare provider (organization), Apotheek de Gulle Gaper"/>
               </actor>
            </performer>
            <authorizingPrescription>
               <type value="MedicationRequest"/>
               <identifier>
                  <system value="urn:oid:2.16.840.1.113883.2.4.3.11.999.77.52711000146108.1"/>
                  <value value="MBH_200_toedieningsduur_VV"/>
               </identifier>
               <display value="relatie naar verstrekkingsverzoek met identificatie: MBH_200_toedieningsduur_VV || 2.16.840.1.113883.2.4.3.11.999.77.52711000146108.1"/>
            </authorizingPrescription>
            <quantity>
               <extension url="http://hl7.org/fhir/StructureDefinition/iso21090-PQ-translation">
                  <valueQuantity>
                     <value value="30"/>
                     <unit value="stuks"/>
                     <system value="urn:oid:2.16.840.1.113883.2.4.4.1.900.2"/>
                     <code value="245"/>
                  </valueQuantity>
               </extension>
               <value value="30"/>
               <unit value="stuks"/>
               <system value="http://unitsofmeasure.org"/>
               <code value="1"/>
            </quantity>
            <whenHandedOver value="2022-01-01T09:49:00+01:00"/>
         </MedicationDispense>
      </resource>
      <search>
         <mode value="match"/>
      </search>
   </entry>
   <entry>
      <fullUrl value="urn:uuid:7b1fa000-7560-11ed-6268-020000000000"/>
      <resource>
         <MedicationDispense>
            <id value="216840111388324311999773737840051-MBH200zonodigMVE"/>
            <meta>
               <profile value="http://nictiz.nl/fhir/StructureDefinition/mp-MedicationDispense"/>
            </meta>
            <extension url="http://nictiz.nl/fhir/StructureDefinition/ext-PharmaceuticalTreatment.Identifier">
               <valueIdentifier>
                  <system value="urn:oid:2.16.840.1.113883.2.4.3.11.999.77.1.1"/>
                  <value value="MBH_200_zonodig"/>
               </valueIdentifier>
            </extension>
            <identifier>
               <system value="urn:oid:2.16.840.1.113883.2.4.3.11.999.77.373784005.1"/>
               <value value="MBH_200_zonodig_MVE"/>
            </identifier>
            <status value="completed"/>
            <category>
               <coding>
                  <system value="http://snomed.info/sct"/>
                  <code value="373784005"/>
                  <display value="verstrekken van medicatie"/>
               </coding>
            </category>
            <medicationReference>
               <reference value="urn:uuid:7b1fa14a-7560-11ed-6268-020000000000"/>
               <type value="Medication"/>
               <display value="ASPIRINE TABLET 100MG"/>
            </medicationReference>
            <subject>
               <reference value="urn:uuid:7b1f9a88-7560-11ed-6268-020000000000"/>
               <type value="Patient"/>
               <display value="Patient, G. XXX_Hemsbergen"/>
            </subject>
            <performer>
               <actor>
                  <reference value="urn:uuid:7b1f9e20-7560-11ed-6268-020000000000"/>
                  <type value="Organization"/>
                  <display value="Healthcare provider (organization), Apotheek de Gulle Gaper"/>
               </actor>
            </performer>
            <authorizingPrescription>
               <type value="MedicationRequest"/>
               <identifier>
                  <system value="urn:oid:2.16.840.1.113883.2.4.3.11.999.77.52711000146108.1"/>
                  <value value="MBH_200_zonodig_VV"/>
               </identifier>
               <display value="relatie naar verstrekkingsverzoek met identificatie: MBH_200_zonodig_VV || 2.16.840.1.113883.2.4.3.11.999.77.52711000146108.1"/>
            </authorizingPrescription>
            <quantity>
               <extension url="http://hl7.org/fhir/StructureDefinition/iso21090-PQ-translation">
                  <valueQuantity>
                     <value value="14"/>
                     <unit value="stuk"/>
                     <system value="urn:oid:2.16.840.1.113883.2.4.4.1.900.2"/>
                     <code value="245"/>
                  </valueQuantity>
               </extension>
               <value value="14"/>
               <unit value="stuk"/>
               <system value="http://unitsofmeasure.org"/>
               <code value="1"/>
            </quantity>
            <whenHandedOver value="2022-01-01T09:57:00+01:00"/>
         </MedicationDispense>
      </resource>
      <search>
         <mode value="match"/>
      </search>
   </entry>
   <entry>
      <fullUrl value="urn:uuid:7b1fa01e-7560-11ed-6268-020000000000"/>
      <resource>
         <MedicationDispense>
            <id value="7b1f92fc-7560-11ed-6268-020000000000"/>
            <meta>
               <profile value="http://nictiz.nl/fhir/StructureDefinition/mp-MedicationDispense"/>
            </meta>
            <extension url="http://nictiz.nl/fhir/StructureDefinition/ext-PharmaceuticalTreatment.Identifier">
               <valueIdentifier>
                  <system value="urn:oid:2.16.840.1.113883.2.4.3.11.999.77.1.1"/>
                  <value value="MBH_200_tijdstippen_niet_flexibel"/>
               </valueIdentifier>
            </extension>
            <identifier>
               <system value="urn:oid:2.16.840.1.113883.2.4.3.11.999.77.373784005.1"/>
               <value value="MBH_200_tijdstippen_niet_flexibel_MVE"/>
            </identifier>
            <status value="completed"/>
            <category>
               <coding>
                  <system value="http://snomed.info/sct"/>
                  <code value="373784005"/>
                  <display value="verstrekken van medicatie"/>
               </coding>
            </category>
            <medicationReference>
               <reference value="urn:uuid:7b1fa186-7560-11ed-6268-020000000000"/>
               <type value="Medication"/>
               <display value="METFORMINE HCL PCH TABLET 500MG"/>
            </medicationReference>
            <subject>
               <reference value="urn:uuid:7b1f9a88-7560-11ed-6268-020000000000"/>
               <type value="Patient"/>
               <display value="Patient, G. XXX_Hemsbergen"/>
            </subject>
            <performer>
               <actor>
                  <reference value="urn:uuid:7b1f9e20-7560-11ed-6268-020000000000"/>
                  <type value="Organization"/>
                  <display value="Healthcare provider (organization), Apotheek de Gulle Gaper"/>
               </actor>
            </performer>
            <authorizingPrescription>
               <type value="MedicationRequest"/>
               <identifier>
                  <system value="urn:oid:2.16.840.1.113883.2.4.3.11.999.77.52711000146108.1"/>
                  <value value="MBH_200_tijdstippen_niet_flexibel_VV"/>
               </identifier>
               <display value="relatie naar verstrekkingsverzoek met identificatie: MBH_200_tijdstippen_niet_flexibel_VV || 2.16.840.1.113883.2.4.3.11.999.77.52711000146108.1"/>
            </authorizingPrescription>
            <quantity>
               <extension url="http://hl7.org/fhir/StructureDefinition/iso21090-PQ-translation">
                  <valueQuantity>
                     <value value="24"/>
                     <unit value="stuk"/>
                     <system value="urn:oid:2.16.840.1.113883.2.4.4.1.900.2"/>
                     <code value="245"/>
                  </valueQuantity>
               </extension>
               <value value="24"/>
               <unit value="stuk"/>
               <system value="http://unitsofmeasure.org"/>
               <code value="1"/>
            </quantity>
            <whenHandedOver value="2022-01-01T10:17:00+01:00"/>
         </MedicationDispense>
      </resource>
      <search>
         <mode value="match"/>
      </search>
   </entry>
   <entry>
      <fullUrl value="urn:uuid:7b1fa03c-7560-11ed-6268-020000000000"/>
      <resource>
         <MedicationStatement>
            <id value="21684011138832431199977160760051-MBH200toedieningssnelheidMGB"/>
            <meta>
               <profile value="http://nictiz.nl/fhir/StructureDefinition/mp-MedicationUse2"/>
            </meta>
            <extension url="http://nictiz.nl/fhir/StructureDefinition/ext-RenderedDosageInstruction">
               <valueString value="Vanaf 1 jan 2022, tot en met 9 jan 2022, toedieningssnelheid: maximaal 0.2 à 0.5 ml per uur, parenteraal"/>
            </extension>
            <extension url="http://nictiz.nl/fhir/StructureDefinition/ext-MedicationUse2.Prescriber">
               <valueReference>
                  <reference value="urn:uuid:7b1f9b46-7560-11ed-6268-020000000000"/>
                  <type value="PractitionerRole"/>
                  <display value="Healthcare professional (role), Peter van Pulver, Huisartsen, niet nader gespecificeerd, Huisartsenpraktijk Pulver &amp; Partners"/>
               </valueReference>
            </extension>
            <extension url="http://nictiz.nl/fhir/StructureDefinition/ext-AsAgreedIndicator">
               <valueBoolean value="true"/>
            </extension>
            <extension url="http://nictiz.nl/fhir/StructureDefinition/ext-PharmaceuticalTreatment.Identifier">
               <valueIdentifier>
                  <system value="urn:oid:2.16.840.1.113883.2.4.3.11.999.77.1.1"/>
                  <value value="MBH_200_toedieningssnelheid"/>
               </valueIdentifier>
            </extension>
            <extension url="http://nictiz.nl/fhir/StructureDefinition/ext-MedicationUse2.Author">
               <valueReference>
                  <reference value="urn:uuid:7b1f9b46-7560-11ed-6268-020000000000"/>
                  <type value="PractitionerRole"/>
                  <display value="Healthcare professional (role), Peter van Pulver, Huisartsen, niet nader gespecificeerd, Huisartsenpraktijk Pulver &amp; Partners"/>
               </valueReference>
            </extension>
            <identifier>
               <system value="urn:oid:2.16.840.1.113883.2.4.3.11.999.77.16076005.1"/>
               <value value="MBH_200_toedieningssnelheid_MGB"/>
            </identifier>
            <status value="active"/>
            <category>
               <coding>
                  <system value="http://snomed.info/sct"/>
                  <code value="422979000"/>
                  <display value="bevinding betreffende gedrag met betrekking tot medicatieregime"/>
               </coding>
            </category>
            <medicationReference>
               <reference value="urn:uuid:7b1fa0b4-7560-11ed-6268-020000000000"/>
               <type value="Medication"/>
               <display value="MORFINE INFVLST 5MG/ML CAS 100ML"/>
            </medicationReference>
            <subject>
               <reference value="urn:uuid:7b1f9a88-7560-11ed-6268-020000000000"/>
               <type value="Patient"/>
               <display value="Patient, G. XXX_Hemsbergen"/>
            </subject>
            <effectivePeriod>
               <start value="2022-01-01T00:00:00+01:00"/>
               <end value="2022-01-09T23:59:59+01:00"/>
            </effectivePeriod>
            <dateAsserted value="2022-01-09T23:59:59+01:00"/>
            <informationSource>
               <reference value="urn:uuid:7b1f9a88-7560-11ed-6268-020000000000"/>
               <type value="Patient"/>
               <display value="Patient, G. XXX_Hemsbergen"/>
            </informationSource>
            <derivedFrom>
               <extension url="http://nictiz.nl/fhir/StructureDefinition/ext-ResourceCategory">
                  <valueCodeableConcept>
                     <coding>
                        <system value="http://snomed.info/sct"/>
                        <code value="33633005"/>
                        <display value="voorschrijven"/>
                     </coding>
                  </valueCodeableConcept>
               </extension>
               <identifier>
                  <system value="urn:oid:2.16.840.1.113883.2.4.3.11.999.77.16076005.1"/>
                  <value value="MBH_200_toedieningssnelheid_MA"/>
               </identifier>
               <display value="relatie naar medicatieafspraak"/>
            </derivedFrom>
            <dosage>
               <sequence value="1"/>
               <route>
                  <coding>
                     <system value="urn:oid:2.16.840.1.113883.2.4.4.9"/>
                     <code value="10"/>
                     <display value="parenteraal"/>
                  </coding>
               </route>
               <doseAndRate>
                  <rateRange>
                     <low>
                        <value value="0.2"/>
                        <unit value="ml/h"/>
                        <system value="http://unitsofmeasure.org"/>
                        <code value="ml/h"/>
                     </low>
                     <high>
                        <value value="0.5"/>
                        <unit value="ml/h"/>
                        <system value="http://unitsofmeasure.org"/>
                        <code value="ml/h"/>
                     </high>
                  </rateRange>
               </doseAndRate>
            </dosage>
         </MedicationStatement>
      </resource>
      <search>
         <mode value="match"/>
      </search>
   </entry>
   <entry>
      <fullUrl value="urn:uuid:7b1fa05a-7560-11ed-6268-020000000000"/>
      <resource>
         <MedicationStatement>
            <id value="21684011138832431199977160760051-MBH200toedieningsduurMGB"/>
            <meta>
               <profile value="http://nictiz.nl/fhir/StructureDefinition/mp-MedicationUse2"/>
            </meta>
            <extension url="http://nictiz.nl/fhir/StructureDefinition/ext-RenderedDosageInstruction">
               <valueString value="Vanaf 1 jan 2022, tot en met 15 jan 2022, 1 maal per dag 1 stuk gedurende 16 uur, transdermaal"/>
            </extension>
            <extension url="http://nictiz.nl/fhir/StructureDefinition/ext-MedicationUse2.Prescriber">
               <valueReference>
                  <reference value="urn:uuid:7b1f9b46-7560-11ed-6268-020000000000"/>
                  <type value="PractitionerRole"/>
                  <display value="Healthcare professional (role), Peter van Pulver, Huisartsen, niet nader gespecificeerd, Huisartsenpraktijk Pulver &amp; Partners"/>
               </valueReference>
            </extension>
            <extension url="http://nictiz.nl/fhir/StructureDefinition/ext-PharmaceuticalTreatment.Identifier">
               <valueIdentifier>
                  <system value="urn:oid:2.16.840.1.113883.2.4.3.11.999.77.1.1"/>
                  <value value="MBH_200_toedieningsduur"/>
               </valueIdentifier>
            </extension>
            <extension url="http://nictiz.nl/fhir/StructureDefinition/ext-MedicationUse2.Author">
               <valueReference>
                  <reference value="urn:uuid:7b1f9b46-7560-11ed-6268-020000000000"/>
                  <type value="PractitionerRole"/>
                  <display value="Healthcare professional (role), Peter van Pulver, Huisartsen, niet nader gespecificeerd, Huisartsenpraktijk Pulver &amp; Partners"/>
               </valueReference>
            </extension>
            <identifier>
               <system value="urn:oid:2.16.840.1.113883.2.4.3.11.999.77.16076005.1"/>
               <value value="MBH_200_toedieningsduur_MGB"/>
            </identifier>
            <status value="active"/>
            <category>
               <coding>
                  <system value="http://snomed.info/sct"/>
                  <code value="422979000"/>
                  <display value="bevinding betreffende gedrag met betrekking tot medicatieregime"/>
               </coding>
            </category>
            <medicationReference>
               <reference value="urn:uuid:7b1fa0f0-7560-11ed-6268-020000000000"/>
               <type value="Medication"/>
               <display value="NITROGLYCERINE PLEISTER 5MG/24UUR (DEPONIT T)"/>
            </medicationReference>
            <subject>
               <reference value="urn:uuid:7b1f9a88-7560-11ed-6268-020000000000"/>
               <type value="Patient"/>
               <display value="Patient, G. XXX_Hemsbergen"/>
            </subject>
            <effectivePeriod>
               <start value="2022-01-01T00:00:00+01:00"/>
               <end value="2022-01-15T12:00:00+01:00"/>
            </effectivePeriod>
            <dateAsserted value="2022-01-15T12:00:00+01:00"/>
            <informationSource>
               <reference value="urn:uuid:7b1f9a88-7560-11ed-6268-020000000000"/>
               <type value="Patient"/>
               <display value="Patient, G. XXX_Hemsbergen"/>
            </informationSource>
            <derivedFrom>
               <extension url="http://nictiz.nl/fhir/StructureDefinition/ext-ResourceCategory">
                  <valueCodeableConcept>
                     <coding>
                        <system value="http://snomed.info/sct"/>
                        <code value="33633005"/>
                        <display value="voorschrijven"/>
                     </coding>
                  </valueCodeableConcept>
               </extension>
               <identifier>
                  <system value="urn:oid:2.16.840.1.113883.2.4.3.11.999.77.16076005.1"/>
                  <value value="MBH_200_toedieningsduur_MA"/>
               </identifier>
               <display value="relatie naar medicatieafspraak"/>
            </derivedFrom>
            <dosage>
               <sequence value="1"/>
               <timing>
                  <repeat>
                     <duration value="16"/>
                     <durationUnit value="h"/>
                     <frequency value="1"/>
                     <period value="1"/>
                     <periodUnit value="d"/>
                  </repeat>
               </timing>
               <route>
                  <coding>
                     <system value="urn:oid:2.16.840.1.113883.2.4.4.9"/>
                     <code value="58"/>
                     <display value="transdermaal"/>
                  </coding>
               </route>
               <doseAndRate>
                  <doseQuantity>
                     <extension url="http://hl7.org/fhir/StructureDefinition/iso21090-PQ-translation">
                        <valueQuantity>
                           <value value="1"/>
                           <unit value="stuk"/>
                           <system value="urn:oid:2.16.840.1.113883.2.4.4.1.900.2"/>
                           <code value="245"/>
                        </valueQuantity>
                     </extension>
                     <value value="1"/>
                     <unit value="stuk"/>
                     <system value="http://unitsofmeasure.org"/>
                     <code value="1"/>
                  </doseQuantity>
               </doseAndRate>
            </dosage>
         </MedicationStatement>
      </resource>
      <search>
         <mode value="match"/>
      </search>
   </entry>
   <entry>
      <fullUrl value="urn:uuid:7b1fa078-7560-11ed-6268-020000000000"/>
      <resource>
         <MedicationStatement>
            <id value="2168401113883243119997761-MBH200zonodigMGB"/>
            <meta>
               <profile value="http://nictiz.nl/fhir/StructureDefinition/mp-MedicationUse2"/>
            </meta>
            <extension url="http://nictiz.nl/fhir/StructureDefinition/ext-RenderedDosageInstruction">
               <valueString value="Vanaf 1 jan 2022, tot en met 15 jan 2022, Zo nodig 1 maal per dag 1 stuk, Oraal"/>
            </extension>
            <extension url="http://nictiz.nl/fhir/StructureDefinition/ext-MedicationUse2.Prescriber">
               <valueReference>
                  <reference value="urn:uuid:7b1f9b46-7560-11ed-6268-020000000000"/>
                  <type value="PractitionerRole"/>
                  <display value="Healthcare professional (role), Peter van Pulver, Huisartsen, niet nader gespecificeerd, Huisartsenpraktijk Pulver &amp; Partners"/>
               </valueReference>
            </extension>
            <extension url="http://nictiz.nl/fhir/StructureDefinition/ext-AsAgreedIndicator">
               <valueBoolean value="true"/>
            </extension>
            <extension url="http://nictiz.nl/fhir/StructureDefinition/ext-PharmaceuticalTreatment.Identifier">
               <valueIdentifier>
                  <system value="urn:oid:2.16.840.1.113883.2.4.3.11.999.77.1.1"/>
                  <value value="MBH_200_zonodig"/>
               </valueIdentifier>
            </extension>
            <extension url="http://nictiz.nl/fhir/StructureDefinition/ext-MedicationUse2.Author">
               <valueReference>
                  <reference value="urn:uuid:7b1f9b46-7560-11ed-6268-020000000000"/>
                  <type value="PractitionerRole"/>
                  <display value="Healthcare professional (role), Peter van Pulver, Huisartsen, niet nader gespecificeerd, Huisartsenpraktijk Pulver &amp; Partners"/>
               </valueReference>
            </extension>
            <identifier>
               <system value="urn:oid:2.16.840.1.113883.2.4.3.11.999.77.6.1"/>
               <value value="MBH_200_zonodig_MGB"/>
            </identifier>
            <status value="active"/>
            <category>
               <coding>
                  <system value="http://snomed.info/sct"/>
                  <code value="422979000"/>
                  <display value="bevinding betreffende gedrag met betrekking tot medicatieregime"/>
               </coding>
            </category>
            <medicationReference>
               <reference value="urn:uuid:7b1fa12c-7560-11ed-6268-020000000000"/>
               <type value="Medication"/>
               <display value="ACETYLSALICYLZUUR 100MG TAB"/>
            </medicationReference>
            <subject>
               <reference value="urn:uuid:7b1f9a88-7560-11ed-6268-020000000000"/>
               <type value="Patient"/>
               <display value="Patient, G. XXX_Hemsbergen"/>
            </subject>
            <effectivePeriod>
               <start value="2022-01-01T00:00:00+01:00"/>
               <end value="2022-01-15T23:59:59+01:00"/>
            </effectivePeriod>
            <dateAsserted value="2022-01-15T23:59:59+01:00"/>
            <informationSource>
               <reference value="urn:uuid:7b1f9a88-7560-11ed-6268-020000000000"/>
               <type value="Patient"/>
               <display value="Patient, G. XXX_Hemsbergen"/>
            </informationSource>
            <derivedFrom>
               <extension url="http://nictiz.nl/fhir/StructureDefinition/ext-ResourceCategory">
                  <valueCodeableConcept>
                     <coding>
                        <system value="http://snomed.info/sct"/>
                        <code value="33633005"/>
                        <display value="voorschrijven"/>
                     </coding>
                  </valueCodeableConcept>
               </extension>
               <identifier>
                  <system value="urn:oid:2.16.840.1.113883.2.4.3.11.999.77.16076005.1"/>
                  <value value="MBH_200_zonodig_MA"/>
               </identifier>
               <display value="relatie naar medicatieafspraak"/>
            </derivedFrom>
            <dosage>
               <sequence value="1"/>
               <timing>
                  <repeat>
                     <frequency value="1"/>
                     <period value="1"/>
                     <periodUnit value="d"/>
                  </repeat>
               </timing>
               <asNeededCodeableConcept>
                  <coding>
                     <system value="https://referentiemodel.nhg.org/tabellen/nhg-tabel-25-gebruiksvoorschrift#aanvullend-numeriek"/>
                     <code value="1137"/>
                     <display value="Zo nodig"/>
                  </coding>
               </asNeededCodeableConcept>
               <route>
                  <coding>
                     <system value="urn:oid:2.16.840.1.113883.2.4.4.9"/>
                     <code value="9"/>
                     <display value="Oraal"/>
                  </coding>
               </route>
               <doseAndRate>
                  <doseQuantity>
                     <extension url="http://hl7.org/fhir/StructureDefinition/iso21090-PQ-translation">
                        <valueQuantity>
                           <value value="1"/>
                           <unit value="stuk"/>
                           <system value="urn:oid:2.16.840.1.113883.2.4.4.1.900.2"/>
                           <code value="245"/>
                        </valueQuantity>
                     </extension>
                     <value value="1"/>
                     <unit value="stuk"/>
                     <system value="http://unitsofmeasure.org"/>
                     <code value="1"/>
                  </doseQuantity>
               </doseAndRate>
            </dosage>
         </MedicationStatement>
      </resource>
      <search>
         <mode value="match"/>
      </search>
   </entry>
   <entry>
      <fullUrl value="urn:uuid:7b1fa096-7560-11ed-6268-020000000000"/>
      <resource>
         <MedicationStatement>
            <id value="2168401113883243119997761-MBH200tijdstippennietflexibelMGB"/>
            <meta>
               <profile value="http://nictiz.nl/fhir/StructureDefinition/mp-MedicationUse2"/>
            </meta>
            <extension url="http://nictiz.nl/fhir/StructureDefinition/ext-RenderedDosageInstruction">
               <valueString value="Vanaf 1 jan 2022, tot en met 8 jan 2022, elke dag om 09:00, 12:00 en 15:00 1 stuk - let op, tijden exact aanhouden"/>
            </extension>
            <extension url="http://nictiz.nl/fhir/StructureDefinition/ext-MedicationUse2.Prescriber">
               <valueReference>
                  <reference value="urn:uuid:7b1f9b46-7560-11ed-6268-020000000000"/>
                  <type value="PractitionerRole"/>
                  <display value="Healthcare professional (role), Peter van Pulver, Huisartsen, niet nader gespecificeerd, Huisartsenpraktijk Pulver &amp; Partners"/>
               </valueReference>
            </extension>
            <extension url="http://nictiz.nl/fhir/StructureDefinition/ext-AsAgreedIndicator">
               <valueBoolean value="true"/>
            </extension>
            <extension url="http://nictiz.nl/fhir/StructureDefinition/ext-PharmaceuticalTreatment.Identifier">
               <valueIdentifier>
                  <system value="urn:oid:2.16.840.1.113883.2.4.3.11.999.77.1.1"/>
                  <value value="MBH_200_tijdstippen_niet_flexibel"/>
               </valueIdentifier>
            </extension>
            <extension url="http://nictiz.nl/fhir/StructureDefinition/ext-MedicationUse2.Author">
               <valueReference>
                  <reference value="urn:uuid:7b1f9b46-7560-11ed-6268-020000000000"/>
                  <type value="PractitionerRole"/>
                  <display value="Healthcare professional (role), Peter van Pulver, Huisartsen, niet nader gespecificeerd, Huisartsenpraktijk Pulver &amp; Partners"/>
               </valueReference>
            </extension>
            <identifier>
               <system value="urn:oid:2.16.840.1.113883.2.4.3.11.999.77.6.1"/>
               <value value="MBH_200_tijdstippen_niet_flexibel_MGB"/>
            </identifier>
            <status value="active"/>
            <category>
               <coding>
                  <system value="http://snomed.info/sct"/>
                  <code value="422979000"/>
                  <display value="bevinding betreffende gedrag met betrekking tot medicatieregime"/>
               </coding>
            </category>
            <medicationReference>
               <reference value="urn:uuid:7b1fa168-7560-11ed-6268-020000000000"/>
               <type value="Medication"/>
               <display value="METFORMINE 500MG TABLET"/>
            </medicationReference>
            <subject>
               <reference value="urn:uuid:7b1f9a88-7560-11ed-6268-020000000000"/>
               <type value="Patient"/>
               <display value="Patient, G. XXX_Hemsbergen"/>
            </subject>
            <effectivePeriod>
               <start value="2022-01-01T00:00:00+01:00"/>
               <end value="2022-01-08T15:00:00+01:00"/>
            </effectivePeriod>
            <dateAsserted value="2022-01-08T16:00:00+01:00"/>
            <informationSource>
               <reference value="urn:uuid:7b1f9a88-7560-11ed-6268-020000000000"/>
               <type value="Patient"/>
               <display value="Patient, G. XXX_Hemsbergen"/>
            </informationSource>
            <derivedFrom>
               <extension url="http://nictiz.nl/fhir/StructureDefinition/ext-ResourceCategory">
                  <valueCodeableConcept>
                     <coding>
                        <system value="http://snomed.info/sct"/>
                        <code value="33633005"/>
                        <display value="voorschrijven"/>
                     </coding>
                  </valueCodeableConcept>
               </extension>
               <identifier>
                  <system value="urn:oid:2.16.840.1.113883.2.4.3.11.999.77.16076005.1"/>
                  <value value="MBH_200_tijdstippen_niet_flexibel_MA"/>
               </identifier>
               <display value="relatie naar medicatieafspraak"/>
            </derivedFrom>
            <dosage>
               <sequence value="1"/>
               <timing>
                  <repeat>
                     <extension url="http://hl7.org/fhir/StructureDefinition/timing-exact">
                        <valueBoolean value="true"/>
                     </extension>
                     <timeOfDay value="09:00:00"/>
                     <timeOfDay value="12:00:00"/>
                     <timeOfDay value="15:00:00"/>
                  </repeat>
               </timing>
               <doseAndRate>
                  <doseQuantity>
                     <extension url="http://hl7.org/fhir/StructureDefinition/iso21090-PQ-translation">
                        <valueQuantity>
                           <value value="1"/>
                           <unit value="stuk"/>
                           <system value="urn:oid:2.16.840.1.113883.2.4.4.1.900.2"/>
                           <code value="245"/>
                        </valueQuantity>
                     </extension>
                     <value value="1"/>
                     <unit value="stuk"/>
                     <system value="http://unitsofmeasure.org"/>
                     <code value="1"/>
                  </doseQuantity>
               </doseAndRate>
            </dosage>
         </MedicationStatement>
      </resource>
      <search>
         <mode value="match"/>
      </search>
   </entry>
   <entry>
      <fullUrl value="urn:uuid:7b1f9a88-7560-11ed-6268-020000000000"/>
      <resource>
         <Patient>
            <id value="G.XXX-Hemsbergen"/>
            <meta>
               <profile value="http://nictiz.nl/fhir/StructureDefinition/nl-core-Patient"/>
            </meta>
            <identifier>
               <system value="http://fhir.nl/fhir/NamingSystem/bsn"/>
               <value>
                  <extension url="http://hl7.org/fhir/StructureDefinition/data-absent-reason">
                     <valueCode value="masked"/>
                  </extension>
               </value>
            </identifier>
            <name>
               <extension url="http://hl7.org/fhir/StructureDefinition/humanname-assembly-order">
                  <valueCode value="NL1"/>
               </extension>
               <use value="official"/>
               <text value="G. XXX_Hemsbergen"/>
               <family value="XXX_Hemsbergen">
                  <extension url="http://hl7.org/fhir/StructureDefinition/humanname-own-name">
                     <valueString value="XXX_Hemsbergen"/>
                  </extension>
               </family>
               <given value="G.">
                  <extension url="http://hl7.org/fhir/StructureDefinition/iso21090-EN-qualifier">
                     <valueCode value="IN"/>
                  </extension>
               </given>
            </name>
            <gender value="female">
               <extension url="http://nictiz.nl/fhir/StructureDefinition/ext-CodeSpecification">
                  <valueCodeableConcept>
                     <coding>
                        <system value="http://terminology.hl7.org/CodeSystem/v3-AdministrativeGender"/>
                        <code value="F"/>
                        <display value="Vrouw"/>
                     </coding>
                  </valueCodeableConcept>
               </extension>
            </gender>
            <birthDate value="1963-11-02"/>
         </Patient>
      </resource>
      <search>
         <mode value="include"/>
      </search>
   </entry>
   <entry>
      <fullUrl value="urn:uuid:7b1f9b46-7560-11ed-6268-020000000000"/>
      <resource>
         <PractitionerRole>
            <id value="PrcRol-2165281100731-000001111"/>
            <meta>
               <profile value="http://nictiz.nl/fhir/StructureDefinition/nl-core-HealthProfessional-PractitionerRole"/>
            </meta>
            <practitioner>
               <reference value="urn:uuid:7b1f9dbc-7560-11ed-6268-020000000000"/>
               <type value="Practitioner"/>
               <display value="Healthcare professional (person), Peter van Pulver"/>
            </practitioner>
            <organization>
               <reference value="urn:uuid:7b1f9de4-7560-11ed-6268-020000000000"/>
               <type value="Organization"/>
               <display value="Healthcare provider (organization), Huisartsenpraktijk Pulver &amp; Partners"/>
            </organization>
            <specialty>
               <coding>
                  <system value="urn:oid:2.16.840.1.113883.2.4.6.7"/>
                  <version value="2020-10-23T00:00:00"/>
                  <code value="0100"/>
                  <display value="Huisartsen, niet nader gespecificeerd"/>
               </coding>
            </specialty>
         </PractitionerRole>
      </resource>
      <search>
         <mode value="include"/>
      </search>
   </entry>
   <entry>
      <fullUrl value="urn:uuid:7b1f9dbc-7560-11ed-6268-020000000000"/>
      <resource>
         <Practitioner>
            <id value="2165281100731-000001111"/>
            <meta>
               <profile value="http://nictiz.nl/fhir/StructureDefinition/nl-core-HealthProfessional-Practitioner"/>
            </meta>
            <identifier>
               <system value="http://fhir.nl/fhir/NamingSystem/uzi-nr-pers"/>
               <value value="000001111"/>
            </identifier>
            <name>
               <use value="official"/>
               <text value="Peter van Pulver"/>
               <family value="van Pulver">
                  <extension url="http://hl7.org/fhir/StructureDefinition/humanname-own-prefix">
                     <valueString value="van"/>
                  </extension>
                  <extension url="http://hl7.org/fhir/StructureDefinition/humanname-own-name">
                     <valueString value="Pulver"/>
                  </extension>
               </family>
               <given value="Peter">
                  <extension url="http://hl7.org/fhir/StructureDefinition/iso21090-EN-qualifier">
                     <valueCode value="BR"/>
                  </extension>
               </given>
            </name>
         </Practitioner>
      </resource>
      <search>
         <mode value="include"/>
      </search>
   </entry>
   <entry>
      <fullUrl value="urn:uuid:7b1f9de4-7560-11ed-6268-020000000000"/>
      <resource>
         <Organization>
            <id value="Org-2165281100733-00001111"/>
            <meta>
               <profile value="http://nictiz.nl/fhir/StructureDefinition/nl-core-HealthcareProvider-Organization"/>
            </meta>
            <identifier>
               <system value="http://fhir.nl/fhir/NamingSystem/ura"/>
               <value value="00001111"/>
            </identifier>
            <name value="Huisartsenpraktijk Pulver &amp; Partners"/>
            <address>
               <extension url="http://nictiz.nl/fhir/StructureDefinition/ext-AddressInformation.AddressType">
                  <valueCodeableConcept>
                     <coding>
                        <system value="http://terminology.hl7.org/CodeSystem/v3-AddressUse"/>
                        <code value="WP"/>
                        <display value="Werkadres"/>
                     </coding>
                  </valueCodeableConcept>
               </extension>
               <use value="work"/>
               <line value="Dorpsstraat 1">
                  <extension url="http://hl7.org/fhir/StructureDefinition/iso21090-ADXP-streetName">
                     <valueString value="Dorpsstraat"/>
                  </extension>
                  <extension url="http://hl7.org/fhir/StructureDefinition/iso21090-ADXP-houseNumber">
                     <valueString value="1"/>
                  </extension>
               </line>
               <city value="Ons Dorp"/>
               <postalCode value="1234 AA"/>
            </address>
         </Organization>
      </resource>
      <search>
         <mode value="include"/>
      </search>
   </entry>
   <entry>
      <fullUrl value="urn:uuid:7b1f9e20-7560-11ed-6268-020000000000"/>
      <resource>
         <Organization>
            <id value="Org-2165281100733-01236578"/>
            <meta>
               <profile value="http://nictiz.nl/fhir/StructureDefinition/nl-core-HealthcareProvider-Organization"/>
            </meta>
            <identifier>
               <system value="http://fhir.nl/fhir/NamingSystem/ura"/>
               <value value="01236578"/>
            </identifier>
            <name value="Apotheek de Gulle Gaper"/>
         </Organization>
      </resource>
      <search>
         <mode value="include"/>
      </search>
   </entry>
   <entry>
      <fullUrl value="urn:uuid:7b1fa0b4-7560-11ed-6268-020000000000"/>
      <resource>
         <Medication>
            <id value="216840111388324410-94692"/>
            <meta>
               <profile value="http://nictiz.nl/fhir/StructureDefinition/nl-core-PharmaceuticalProduct"/>
            </meta>
            <code>
               <coding>
                  <system value="urn:oid:2.16.840.1.113883.2.4.4.10"/>
                  <code value="94692"/>
                  <display value="MORFINE INFVLST 5MG/ML CAS 100ML"/>
                  <userSelected value="true"/>
               </coding>
               <coding>
                  <system value="urn:oid:2.16.840.1.113883.2.4.4.1"/>
                  <code value="134538"/>
                  <display value="MORFINE INFVLST 5MG/ML CAS 100ML"/>
               </coding>
               <text value="MORFINE INFVLST 5MG/ML CAS 100ML"/>
            </code>
         </Medication>
      </resource>
      <search>
         <mode value="include"/>
      </search>
   </entry>
   <entry>
      <fullUrl value="urn:uuid:7b1fa0d2-7560-11ed-6268-020000000000"/>
      <resource>
         <Medication>
            <id value="21684011138832447-779288"/>
            <meta>
               <profile value="http://nictiz.nl/fhir/StructureDefinition/nl-core-PharmaceuticalProduct"/>
            </meta>
            <code>
               <coding>
                  <system value="urn:oid:2.16.840.1.113883.2.4.4.7"/>
                  <code value="779288"/>
                  <display value="MORFINEHYDROCHLORIDE 1ML= 5MG EPI CAS 100ML FNA MR"/>
                  <userSelected value="true"/>
               </coding>
               <coding>
                  <system value="urn:oid:2.16.840.1.113883.2.4.4.10"/>
                  <code value="94692"/>
                  <display value="MORFINE INFVLST 5MG/ML CAS 100ML"/>
               </coding>
               <coding>
                  <system value="urn:oid:2.16.840.1.113883.2.4.4.1"/>
                  <code value="134538"/>
                  <display value="MORFINE INFVLST 5MG/ML CAS 100ML"/>
               </coding>
               <text value="MORFINEHYDROCHLORIDE 1ML= 5MG EPI CAS 100ML FNA MR"/>
            </code>
         </Medication>
      </resource>
      <search>
         <mode value="include"/>
      </search>
   </entry>
   <entry>
      <fullUrl value="urn:uuid:7b1fa0f0-7560-11ed-6268-020000000000"/>
      <resource>
         <Medication>
            <id value="216840111388324410-44520"/>
            <meta>
               <profile value="http://nictiz.nl/fhir/StructureDefinition/nl-core-PharmaceuticalProduct"/>
            </meta>
            <code>
               <coding>
                  <system value="urn:oid:2.16.840.1.113883.2.4.4.10"/>
                  <code value="44520"/>
                  <display value="NITROGLYCERINE PLEISTER 5MG/24UUR (DEPONIT T)"/>
                  <userSelected value="true"/>
               </coding>
               <coding>
                  <system value="urn:oid:2.16.840.1.113883.2.4.4.1"/>
                  <code value="98477"/>
                  <display value="NITROGLYCERINE PLEISTER 5MG/24UUR (DEPONIT T)"/>
               </coding>
               <text value="NITROGLYCERINE PLEISTER 5MG/24UUR (DEPONIT T)"/>
            </code>
         </Medication>
      </resource>
      <search>
         <mode value="include"/>
      </search>
   </entry>
   <entry>
      <fullUrl value="urn:uuid:7b1fa10e-7560-11ed-6268-020000000000"/>
      <resource>
         <Medication>
            <id value="21684011138832447-1013602"/>
            <meta>
               <profile value="http://nictiz.nl/fhir/StructureDefinition/nl-core-PharmaceuticalProduct"/>
            </meta>
            <code>
               <coding>
                  <system value="urn:oid:2.16.840.1.113883.2.4.4.7"/>
                  <code value="1013602"/>
                  <display value="DEPONIT T 5 PLEISTER TRANSDERMAAL 18,7MG"/>
                  <userSelected value="true"/>
               </coding>
               <coding>
                  <system value="urn:oid:2.16.840.1.113883.2.4.4.10"/>
                  <code value="44520"/>
                  <display value="NITROGLYCERINE PLEISTER 5MG/24UUR (DEPONIT T)"/>
               </coding>
               <coding>
                  <system value="urn:oid:2.16.840.1.113883.2.4.4.1"/>
                  <code value="98477"/>
                  <display value="NITROGLYCERINE PLEISTER 5MG/24UUR (DEPONIT T)"/>
               </coding>
               <text value="DEPONIT T 5 PLEISTER TRANSDERMAAL 18,7MG"/>
            </code>
         </Medication>
      </resource>
      <search>
         <mode value="include"/>
      </search>
   </entry>
   <entry>
      <fullUrl value="urn:uuid:7b1fa12c-7560-11ed-6268-020000000000"/>
      <resource>
         <Medication>
            <id value="216840111388324410-3956"/>
            <meta>
               <profile value="http://nictiz.nl/fhir/StructureDefinition/nl-core-PharmaceuticalProduct"/>
            </meta>
            <code>
               <coding>
                  <system value="urn:oid:2.16.840.1.113883.2.4.4.10"/>
                  <code value="3956"/>
                  <display value="ACETYLSALICYLZUUR 100MG TAB"/>
                  <userSelected value="true"/>
               </coding>
               <coding>
                  <system value="urn:oid:2.16.840.1.113883.2.4.4.1"/>
                  <code value="12548"/>
                  <display value="ACETYLSALICYLZUUR TABLET 100MG"/>
               </coding>
               <text value="ACETYLSALICYLZUUR 100MG TAB"/>
            </code>
         </Medication>
      </resource>
      <search>
         <mode value="include"/>
      </search>
   </entry>
   <entry>
      <fullUrl value="urn:uuid:7b1fa14a-7560-11ed-6268-020000000000"/>
      <resource>
         <Medication>
            <id value="21684011138832447-202681"/>
            <meta>
               <profile value="http://nictiz.nl/fhir/StructureDefinition/nl-core-PharmaceuticalProduct"/>
            </meta>
            <code>
               <coding>
                  <system value="urn:oid:2.16.840.1.113883.2.4.4.7"/>
                  <code value="202681"/>
                  <display value="ASPIRINE TABLET 100MG"/>
                  <userSelected value="true"/>
               </coding>
               <coding>
                  <system value="urn:oid:2.16.840.1.113883.2.4.4.10"/>
                  <code value="3956"/>
                  <display value="ACETYLSALICYLZUUR 100MG TAB"/>
               </coding>
               <coding>
                  <system value="urn:oid:2.16.840.1.113883.2.4.4.1"/>
                  <code value="12548"/>
                  <display value="ACETYLSALICYLZUUR TABLET 100MG"/>
               </coding>
               <text value="ASPIRINE TABLET 100MG"/>
            </code>
         </Medication>
      </resource>
      <search>
         <mode value="include"/>
      </search>
   </entry>
   <entry>
      <fullUrl value="urn:uuid:7b1fa168-7560-11ed-6268-020000000000"/>
      <resource>
         <Medication>
            <id value="216840111388324410-1090"/>
            <meta>
               <profile value="http://nictiz.nl/fhir/StructureDefinition/nl-core-PharmaceuticalProduct"/>
            </meta>
            <code>
               <coding>
                  <system value="urn:oid:2.16.840.1.113883.2.4.4.10"/>
                  <code value="1090"/>
                  <display value="METFORMINE 500MG TABLET"/>
                  <userSelected value="true"/>
               </coding>
               <coding>
                  <system value="urn:oid:2.16.840.1.113883.2.4.4.1"/>
                  <code value="3816"/>
                  <display value="METFORMINE 500MG TABLET"/>
               </coding>
               <text value="METFORMINE 500MG TABLET"/>
            </code>
         </Medication>
      </resource>
      <search>
         <mode value="include"/>
      </search>
   </entry>
   <entry>
      <fullUrl value="urn:uuid:7b1fa186-7560-11ed-6268-020000000000"/>
      <resource>
         <Medication>
            <id value="21684011138832447-693332"/>
            <meta>
               <profile value="http://nictiz.nl/fhir/StructureDefinition/nl-core-PharmaceuticalProduct"/>
            </meta>
            <code>
               <coding>
                  <system value="urn:oid:2.16.840.1.113883.2.4.4.7"/>
                  <code value="693332"/>
                  <display value="METFORMINE HCL PCH TABLET 500MG"/>
                  <userSelected value="true"/>
               </coding>
               <coding>
                  <system value="urn:oid:2.16.840.1.113883.2.4.4.10"/>
                  <code value="1090"/>
                  <display value="METFORMINE 500MG TABLET"/>
               </coding>
               <coding>
                  <system value="urn:oid:2.16.840.1.113883.2.4.4.1"/>
                  <code value="3816"/>
                  <display value="METFORMINE 500MG TABLET"/>
               </coding>
               <text value="METFORMINE HCL PCH TABLET 500MG"/>
            </code>
         </Medication>
      </resource>
      <search>
         <mode value="include"/>
      </search>
   </entry>
</Bundle>
