<Bundle xmlns="http://hl7.org/fhir">
   <id value="4fc683bc-7560-11ed-1921-020000000000"/>
   <type value="searchset"/>
   <total value="37"/>
   <entry>
      <fullUrl value="urn:uuid:4fc68810-7560-11ed-1921-020000000000"/>
      <resource>
         <MedicationRequest>
            <id value="21684011138832431199977160760051-MBH200stoppenMAstart"/>
            <meta>
               <profile value="http://nictiz.nl/fhir/StructureDefinition/mp-MedicationAgreement"/>
            </meta>
            <extension url="http://nictiz.nl/fhir/StructureDefinition/ext-RenderedDosageInstruction">
               <valueString value="Vanaf 2 nov 2021, tot en met 9 aug 2022, 1 maal per dag 1 stuk, Oraal"/>
            </extension>
            <extension url="http://nictiz.nl/fhir/StructureDefinition/ext-TimeInterval.Period">
               <valuePeriod>
                  <start value="2021-11-02T00:00:00+01:00"/>
                  <end value="2022-08-09T23:59:59+02:00"/>
               </valuePeriod>
            </extension>
            <extension url="http://nictiz.nl/fhir/StructureDefinition/ext-PharmaceuticalTreatment.Identifier">
               <valueIdentifier>
                  <system value="urn:oid:2.16.840.1.113883.2.4.3.11.999.77.1.1"/>
                  <value value="MBH_200_stoppen"/>
               </valueIdentifier>
            </extension>
            <identifier>
               <system value="urn:oid:2.16.840.1.113883.2.4.3.11.999.77.16076005.1"/>
               <value value="MBH_200_stoppen_MA_start"/>
            </identifier>
            <status value="unknown"/>
            <intent value="order"/>
            <category>
               <coding>
                  <system value="http://snomed.info/sct"/>
                  <code value="33633005"/>
                  <display value="voorschrijven van geneesmiddel"/>
               </coding>
            </category>
            <medicationReference>
               <reference value="urn:uuid:4fc68c66-7560-11ed-1921-020000000000"/>
               <type value="Medication"/>
               <display value="Acetylsalicylzuur tabletmsr 100mg"/>
            </medicationReference>
            <subject>
               <reference value="urn:uuid:4fc683f6-7560-11ed-1921-020000000000"/>
               <type value="Patient"/>
               <display value="Patient, J. de XXX_Luzac"/>
            </subject>
            <authoredOn value="2021-11-02T08:00:00+01:00"/>
            <requester>
               <reference value="urn:uuid:4fc684be-7560-11ed-1921-020000000000"/>
               <type value="PractitionerRole"/>
               <display value="Healthcare professional (role), Bertine van Doorn, Huisartsen, niet nader gespecificeerd, Huisartsenpraktijk Pulver &amp; Partners"/>
            </requester>
            <dosageInstruction>
               <sequence value="1"/>
               <timing>
                  <repeat>
                     <frequency value="1"/>
                     <period value="1"/>
                     <periodUnit value="d"/>
                  </repeat>
               </timing>
               <route>
                  <coding>
                     <system value="urn:oid:2.16.840.1.113883.2.4.4.9"/>
                     <code value="9"/>
                     <display value="Oraal"/>
                  </coding>
               </route>
               <doseAndRate>
                  <doseQuantity>
                     <extension url="http://hl7.org/fhir/StructureDefinition/iso21090-PQ-translation">
                        <valueQuantity>
                           <value value="1"/>
                           <unit value="stuk"/>
                           <system value="urn:oid:2.16.840.1.113883.2.4.4.1.900.2"/>
                           <code value="245"/>
                        </valueQuantity>
                     </extension>
                     <value value="1"/>
                     <unit value="stuk"/>
                     <system value="http://unitsofmeasure.org"/>
                     <code value="1"/>
                  </doseQuantity>
               </doseAndRate>
            </dosageInstruction>
         </MedicationRequest>
      </resource>
      <search>
         <mode value="match"/>
      </search>
   </entry>
   <entry>
      <fullUrl value="urn:uuid:4fc6882e-7560-11ed-1921-020000000000"/>
      <resource>
         <MedicationRequest>
            <id value="21684011138832431199977160760051-MBH200stoppenMAstaken"/>
            <meta>
               <profile value="http://nictiz.nl/fhir/StructureDefinition/mp-MedicationAgreement"/>
            </meta>
            <extension url="http://nictiz.nl/fhir/StructureDefinition/ext-RenderedDosageInstruction">
               <valueString value="Vanaf 2 nov 2021, tot en met 1 jan 2022, 1 maal per dag 1 stuk, Oraal, definitief gestopt"/>
            </extension>
            <extension url="http://nictiz.nl/fhir/StructureDefinition/ext-TimeInterval.Period">
               <valuePeriod>
                  <start value="2021-11-02T00:00:00+01:00"/>
                  <end value="2022-01-01T23:59:59+01:00"/>
               </valuePeriod>
            </extension>
            <extension url="http://nictiz.nl/fhir/StructureDefinition/ext-PharmaceuticalTreatment.Identifier">
               <valueIdentifier>
                  <system value="urn:oid:2.16.840.1.113883.2.4.3.11.999.77.1.1"/>
                  <value value="MBH_200_stoppen"/>
               </valueIdentifier>
            </extension>
            <modifierExtension url="http://nictiz.nl/fhir/StructureDefinition/ext-StopType">
               <valueCodeableConcept>
                  <coding>
                     <system value="http://snomed.info/sct"/>
                     <code value="113371000146109"/>
                     <display value="definitief gestopt met medicatie"/>
                  </coding>
               </valueCodeableConcept>
            </modifierExtension>
            <identifier>
               <system value="urn:oid:2.16.840.1.113883.2.4.3.11.999.77.16076005.1"/>
               <value value="MBH_200_stoppen_MA_staken"/>
            </identifier>
            <status value="unknown"/>
            <intent value="order"/>
            <category>
               <coding>
                  <system value="http://snomed.info/sct"/>
                  <code value="33633005"/>
                  <display value="voorschrijven van geneesmiddel"/>
               </coding>
            </category>
            <medicationReference>
               <reference value="urn:uuid:4fc68c66-7560-11ed-1921-020000000000"/>
               <type value="Medication"/>
               <display value="Acetylsalicylzuur tabletmsr 100mg"/>
            </medicationReference>
            <subject>
               <reference value="urn:uuid:4fc683f6-7560-11ed-1921-020000000000"/>
               <type value="Patient"/>
               <display value="Patient, J. de XXX_Luzac"/>
            </subject>
            <authoredOn value="2021-12-22T18:00:00+01:00"/>
            <requester>
               <reference value="urn:uuid:4fc684be-7560-11ed-1921-020000000000"/>
               <type value="PractitionerRole"/>
               <display value="Healthcare professional (role), Bertine van Doorn, Huisartsen, niet nader gespecificeerd, Huisartsenpraktijk Pulver &amp; Partners"/>
            </requester>
            <reasonCode>
               <coding>
                  <system value="http://snomed.info/sct"/>
                  <code value="79899007"/>
                  <display value="geneesmiddelinteractie"/>
               </coding>
            </reasonCode>
            <dosageInstruction>
               <sequence value="1"/>
               <timing>
                  <repeat>
                     <frequency value="1"/>
                     <period value="1"/>
                     <periodUnit value="d"/>
                  </repeat>
               </timing>
               <route>
                  <coding>
                     <system value="urn:oid:2.16.840.1.113883.2.4.4.9"/>
                     <code value="9"/>
                     <display value="Oraal"/>
                  </coding>
               </route>
               <doseAndRate>
                  <doseQuantity>
                     <extension url="http://hl7.org/fhir/StructureDefinition/iso21090-PQ-translation">
                        <valueQuantity>
                           <value value="1"/>
                           <unit value="stuk"/>
                           <system value="urn:oid:2.16.840.1.113883.2.4.4.1.900.2"/>
                           <code value="245"/>
                        </valueQuantity>
                     </extension>
                     <value value="1"/>
                     <unit value="stuk"/>
                     <system value="http://unitsofmeasure.org"/>
                     <code value="1"/>
                  </doseQuantity>
               </doseAndRate>
            </dosageInstruction>
            <priorPrescription>
               <type value="MedicationRequest"/>
               <identifier>
                  <system value="urn:oid:2.16.840.1.113883.2.4.3.11.999.77.16076005.1"/>
                  <value value="MBH_200_stoppen_MA_start"/>
               </identifier>
               <display value="relatie naar medicatieafspraak: MBH_200_stoppen_MA_start || 2.16.840.1.113883.2.4.3.11.999.77.16076005.1"/>
            </priorPrescription>
         </MedicationRequest>
      </resource>
      <search>
         <mode value="match"/>
      </search>
   </entry>
   <entry>
      <fullUrl value="urn:uuid:4fc6884c-7560-11ed-1921-020000000000"/>
      <resource>
         <MedicationRequest>
            <id value="4fc68244-7560-11ed-1921-020000000000"/>
            <meta>
               <profile value="http://nictiz.nl/fhir/StructureDefinition/mp-MedicationAgreement"/>
            </meta>
            <extension url="http://nictiz.nl/fhir/StructureDefinition/ext-RenderedDosageInstruction">
               <valueString value="Vanaf 11 dec 2021, 1 maal per dag 1 stuk, Oraal"/>
            </extension>
            <extension url="http://nictiz.nl/fhir/StructureDefinition/ext-TimeInterval.Period">
               <valuePeriod>
                  <start value="2021-12-11T00:00:00+01:00"/>
               </valuePeriod>
            </extension>
            <extension url="http://nictiz.nl/fhir/StructureDefinition/ext-PharmaceuticalTreatment.Identifier">
               <valueIdentifier>
                  <system value="urn:oid:2.16.840.1.113883.2.4.3.11.999.77.1.1"/>
                  <value value="MBH_200_wijzigen_verhoging"/>
               </valueIdentifier>
            </extension>
            <identifier>
               <system value="urn:oid:2.16.840.1.113883.2.4.3.11.999.77.16076005.1"/>
               <value value="MBH_200_wijzigen_verhoging_MA_start"/>
            </identifier>
            <status value="unknown"/>
            <intent value="order"/>
            <category>
               <coding>
                  <system value="http://snomed.info/sct"/>
                  <code value="33633005"/>
                  <display value="voorschrijven van geneesmiddel"/>
               </coding>
            </category>
            <medicationReference>
               <reference value="urn:uuid:4fc68ca2-7560-11ed-1921-020000000000"/>
               <type value="Medication"/>
               <display value="FUROSEMIDE 40MG TABLET"/>
            </medicationReference>
            <subject>
               <reference value="urn:uuid:4fc683f6-7560-11ed-1921-020000000000"/>
               <type value="Patient"/>
               <display value="Patient, J. de XXX_Luzac"/>
            </subject>
            <authoredOn value="2021-12-11T08:02:00+01:00"/>
            <requester>
               <reference value="urn:uuid:4fc684be-7560-11ed-1921-020000000000"/>
               <type value="PractitionerRole"/>
               <display value="Healthcare professional (role), Bertine van Doorn, Huisartsen, niet nader gespecificeerd, Huisartsenpraktijk Pulver &amp; Partners"/>
            </requester>
            <dosageInstruction>
               <sequence value="1"/>
               <timing>
                  <repeat>
                     <frequency value="1"/>
                     <period value="1"/>
                     <periodUnit value="d"/>
                  </repeat>
               </timing>
               <route>
                  <coding>
                     <system value="urn:oid:2.16.840.1.113883.2.4.4.9"/>
                     <code value="9"/>
                     <display value="Oraal"/>
                  </coding>
               </route>
               <doseAndRate>
                  <doseQuantity>
                     <extension url="http://hl7.org/fhir/StructureDefinition/iso21090-PQ-translation">
                        <valueQuantity>
                           <value value="1"/>
                           <unit value="stuk"/>
                           <system value="urn:oid:2.16.840.1.113883.2.4.4.1.900.2"/>
                           <code value="245"/>
                        </valueQuantity>
                     </extension>
                     <value value="1"/>
                     <unit value="stuk"/>
                     <system value="http://unitsofmeasure.org"/>
                     <code value="1"/>
                  </doseQuantity>
               </doseAndRate>
            </dosageInstruction>
         </MedicationRequest>
      </resource>
      <search>
         <mode value="match"/>
      </search>
   </entry>
   <entry>
      <fullUrl value="urn:uuid:4fc6886a-7560-11ed-1921-020000000000"/>
      <resource>
         <MedicationRequest>
            <id value="4fc6825d-7560-11ed-1921-020000000000"/>
            <meta>
               <profile value="http://nictiz.nl/fhir/StructureDefinition/mp-MedicationAgreement"/>
            </meta>
            <extension url="http://nictiz.nl/fhir/StructureDefinition/ext-RenderedDosageInstruction">
               <valueString value="Vanaf 30 dec 2021, 1 maal per dag 2 stuks, Oraal"/>
            </extension>
            <extension url="http://nictiz.nl/fhir/StructureDefinition/ext-TimeInterval.Period">
               <valuePeriod>
                  <start value="2021-12-30T00:00:00+01:00"/>
               </valuePeriod>
            </extension>
            <extension url="http://nictiz.nl/fhir/StructureDefinition/ext-PharmaceuticalTreatment.Identifier">
               <valueIdentifier>
                  <system value="urn:oid:2.16.840.1.113883.2.4.3.11.999.77.1.1"/>
                  <value value="MBH_200_wijzigen_verhoging"/>
               </valueIdentifier>
            </extension>
            <identifier>
               <system value="urn:oid:2.16.840.1.113883.2.4.3.11.999.77.16076005.1"/>
               <value value="MBH_200_wijzigen_verhoging_MA_wijzigingmetVV"/>
            </identifier>
            <status value="unknown"/>
            <intent value="order"/>
            <category>
               <coding>
                  <system value="http://snomed.info/sct"/>
                  <code value="33633005"/>
                  <display value="voorschrijven van geneesmiddel"/>
               </coding>
            </category>
            <medicationReference>
               <reference value="urn:uuid:4fc68ca2-7560-11ed-1921-020000000000"/>
               <type value="Medication"/>
               <display value="FUROSEMIDE 40MG TABLET"/>
            </medicationReference>
            <subject>
               <reference value="urn:uuid:4fc683f6-7560-11ed-1921-020000000000"/>
               <type value="Patient"/>
               <display value="Patient, J. de XXX_Luzac"/>
            </subject>
            <authoredOn value="2021-12-30T08:02:00+01:00"/>
            <requester>
               <reference value="urn:uuid:4fc684be-7560-11ed-1921-020000000000"/>
               <type value="PractitionerRole"/>
               <display value="Healthcare professional (role), Bertine van Doorn, Huisartsen, niet nader gespecificeerd, Huisartsenpraktijk Pulver &amp; Partners"/>
            </requester>
            <reasonCode>
               <coding>
                  <system value="http://snomed.info/sct"/>
                  <code value="58848006"/>
                  <display value="gebrek aan geneesmiddeleffect"/>
               </coding>
            </reasonCode>
            <dosageInstruction>
               <sequence value="1"/>
               <timing>
                  <repeat>
                     <frequency value="1"/>
                     <period value="1"/>
                     <periodUnit value="d"/>
                  </repeat>
               </timing>
               <route>
                  <coding>
                     <system value="urn:oid:2.16.840.1.113883.2.4.4.9"/>
                     <code value="9"/>
                     <display value="Oraal"/>
                  </coding>
               </route>
               <doseAndRate>
                  <doseQuantity>
                     <extension url="http://hl7.org/fhir/StructureDefinition/iso21090-PQ-translation">
                        <valueQuantity>
                           <value value="2"/>
                           <unit value="stuk"/>
                           <system value="urn:oid:2.16.840.1.113883.2.4.4.1.900.2"/>
                           <code value="245"/>
                        </valueQuantity>
                     </extension>
                     <value value="2"/>
                     <unit value="stuk"/>
                     <system value="http://unitsofmeasure.org"/>
                     <code value="1"/>
                  </doseQuantity>
               </doseAndRate>
            </dosageInstruction>
            <priorPrescription>
               <type value="MedicationRequest"/>
               <identifier>
                  <system value="urn:oid:2.16.840.1.113883.2.4.3.11.999.77.16076005.1"/>
                  <value value="MBH_200_wijzigen_verhoging_MA_start"/>
               </identifier>
               <display value="relatie naar medicatieafspraak: MBH_200_wijzigen_verhoging_MA_start || 2.16.840.1.113883.2.4.3.11.999.77.16076005.1"/>
            </priorPrescription>
         </MedicationRequest>
      </resource>
      <search>
         <mode value="match"/>
      </search>
   </entry>
   <entry>
      <fullUrl value="urn:uuid:4fc68888-7560-11ed-1921-020000000000"/>
      <resource>
         <MedicationRequest>
            <id value="4fc68279-7560-11ed-1921-020000000000"/>
            <meta>
               <profile value="http://nictiz.nl/fhir/StructureDefinition/mp-MedicationAgreement"/>
            </meta>
            <extension url="http://nictiz.nl/fhir/StructureDefinition/ext-RenderedDosageInstruction">
               <valueString value="Vanaf 11 dec 2021, tot en met 29 dec 2021, 1 maal per dag 1 stuk, Oraal, definitief gestopt"/>
            </extension>
            <extension url="http://nictiz.nl/fhir/StructureDefinition/ext-TimeInterval.Period">
               <valuePeriod>
                  <start value="2021-12-11T00:00:00+01:00"/>
                  <end value="2021-12-29T23:59:59+01:00"/>
               </valuePeriod>
            </extension>
            <extension url="http://nictiz.nl/fhir/StructureDefinition/ext-PharmaceuticalTreatment.Identifier">
               <valueIdentifier>
                  <system value="urn:oid:2.16.840.1.113883.2.4.3.11.999.77.1.1"/>
                  <value value="MBH_200_wijzigen_verhoging"/>
               </valueIdentifier>
            </extension>
            <modifierExtension url="http://nictiz.nl/fhir/StructureDefinition/ext-StopType">
               <valueCodeableConcept>
                  <coding>
                     <system value="http://snomed.info/sct"/>
                     <code value="113371000146109"/>
                     <display value="definitief gestopt met medicatie"/>
                  </coding>
               </valueCodeableConcept>
            </modifierExtension>
            <identifier>
               <system value="urn:oid:2.16.840.1.113883.2.4.3.11.999.77.16076005.1"/>
               <value value="MBH_200_wijzigen_verhoging_MA_techstaken"/>
            </identifier>
            <status value="unknown"/>
            <intent value="order"/>
            <category>
               <coding>
                  <system value="http://snomed.info/sct"/>
                  <code value="33633005"/>
                  <display value="voorschrijven van geneesmiddel"/>
               </coding>
            </category>
            <medicationReference>
               <reference value="urn:uuid:4fc68ca2-7560-11ed-1921-020000000000"/>
               <type value="Medication"/>
               <display value="FUROSEMIDE 40MG TABLET"/>
            </medicationReference>
            <subject>
               <reference value="urn:uuid:4fc683f6-7560-11ed-1921-020000000000"/>
               <type value="Patient"/>
               <display value="Patient, J. de XXX_Luzac"/>
            </subject>
            <authoredOn value="2021-12-30T08:02:00+01:00"/>
            <requester>
               <reference value="urn:uuid:4fc684be-7560-11ed-1921-020000000000"/>
               <type value="PractitionerRole"/>
               <display value="Healthcare professional (role), Bertine van Doorn, Huisartsen, niet nader gespecificeerd, Huisartsenpraktijk Pulver &amp; Partners"/>
            </requester>
            <dosageInstruction>
               <sequence value="1"/>
               <timing>
                  <repeat>
                     <frequency value="1"/>
                     <period value="1"/>
                     <periodUnit value="d"/>
                  </repeat>
               </timing>
               <route>
                  <coding>
                     <system value="urn:oid:2.16.840.1.113883.2.4.4.9"/>
                     <code value="9"/>
                     <display value="Oraal"/>
                  </coding>
               </route>
               <doseAndRate>
                  <doseQuantity>
                     <extension url="http://hl7.org/fhir/StructureDefinition/iso21090-PQ-translation">
                        <valueQuantity>
                           <value value="1"/>
                           <unit value="stuk"/>
                           <system value="urn:oid:2.16.840.1.113883.2.4.4.1.900.2"/>
                           <code value="245"/>
                        </valueQuantity>
                     </extension>
                     <value value="1"/>
                     <unit value="stuk"/>
                     <system value="http://unitsofmeasure.org"/>
                     <code value="1"/>
                  </doseQuantity>
               </doseAndRate>
            </dosageInstruction>
            <priorPrescription>
               <type value="MedicationRequest"/>
               <identifier>
                  <system value="urn:oid:2.16.840.1.113883.2.4.3.11.999.77.16076005.1"/>
                  <value value="MBH_200_wijzigen_verhoging_MA_start"/>
               </identifier>
               <display value="relatie naar medicatieafspraak: MBH_200_wijzigen_verhoging_MA_start || 2.16.840.1.113883.2.4.3.11.999.77.16076005.1"/>
            </priorPrescription>
         </MedicationRequest>
      </resource>
      <search>
         <mode value="match"/>
      </search>
   </entry>
   <entry>
      <fullUrl value="urn:uuid:4fc688a6-7560-11ed-1921-020000000000"/>
      <resource>
         <MedicationRequest>
            <id value="4fc6831d-7560-11ed-1921-020000000000"/>
            <meta>
               <profile value="http://nictiz.nl/fhir/StructureDefinition/mp-MedicationAgreement"/>
            </meta>
            <extension url="http://nictiz.nl/fhir/StructureDefinition/ext-RenderedDosageInstruction">
               <valueString value="Vanaf 19 dec 2021, tot en met 15 jan 2022, 2 maal per week 1 stuk, Oraal"/>
            </extension>
            <extension url="http://nictiz.nl/fhir/StructureDefinition/ext-TimeInterval.Period">
               <valuePeriod>
                  <start value="2021-12-19T00:00:00+01:00"/>
                  <end value="2022-01-15T23:59:59+01:00"/>
               </valuePeriod>
            </extension>
            <extension url="http://nictiz.nl/fhir/StructureDefinition/ext-PharmaceuticalTreatment.Identifier">
               <valueIdentifier>
                  <system value="urn:oid:2.16.840.1.113883.2.4.3.11.999.77.1.1"/>
                  <value value="MBH_200_wijzigen_verlaging"/>
               </valueIdentifier>
            </extension>
            <identifier>
               <system value="urn:oid:2.16.840.1.113883.2.4.3.11.999.77.16076005.1"/>
               <value value="MBH_200_wijzigen_verlaging_MA_start"/>
            </identifier>
            <status value="unknown"/>
            <intent value="order"/>
            <category>
               <coding>
                  <system value="http://snomed.info/sct"/>
                  <code value="33633005"/>
                  <display value="voorschrijven van geneesmiddel"/>
               </coding>
            </category>
            <medicationReference>
               <reference value="urn:uuid:4fc68cde-7560-11ed-1921-020000000000"/>
               <type value="Medication"/>
               <display value="FERROFUMARAAT TABLET 200MG"/>
            </medicationReference>
            <subject>
               <reference value="urn:uuid:4fc683f6-7560-11ed-1921-020000000000"/>
               <type value="Patient"/>
               <display value="Patient, J. de XXX_Luzac"/>
            </subject>
            <authoredOn value="2021-12-19T08:05:00+01:00"/>
            <requester>
               <reference value="urn:uuid:4fc684be-7560-11ed-1921-020000000000"/>
               <type value="PractitionerRole"/>
               <display value="Healthcare professional (role), Bertine van Doorn, Huisartsen, niet nader gespecificeerd, Huisartsenpraktijk Pulver &amp; Partners"/>
            </requester>
            <dosageInstruction>
               <sequence value="1"/>
               <timing>
                  <repeat>
                     <frequency value="2"/>
                     <period value="1"/>
                     <periodUnit value="wk"/>
                  </repeat>
               </timing>
               <route>
                  <coding>
                     <system value="urn:oid:2.16.840.1.113883.2.4.4.9"/>
                     <code value="9"/>
                     <display value="Oraal"/>
                  </coding>
               </route>
               <doseAndRate>
                  <doseQuantity>
                     <extension url="http://hl7.org/fhir/StructureDefinition/iso21090-PQ-translation">
                        <valueQuantity>
                           <value value="1"/>
                           <unit value="stuk"/>
                           <system value="urn:oid:2.16.840.1.113883.2.4.4.1.900.2"/>
                           <code value="245"/>
                        </valueQuantity>
                     </extension>
                     <value value="1"/>
                     <unit value="stuk"/>
                     <system value="http://unitsofmeasure.org"/>
                     <code value="1"/>
                  </doseQuantity>
               </doseAndRate>
            </dosageInstruction>
         </MedicationRequest>
      </resource>
      <search>
         <mode value="match"/>
      </search>
   </entry>
   <entry>
      <fullUrl value="urn:uuid:4fc688c4-7560-11ed-1921-020000000000"/>
      <resource>
         <MedicationRequest>
            <id value="4fc68336-7560-11ed-1921-020000000000"/>
            <meta>
               <profile value="http://nictiz.nl/fhir/StructureDefinition/mp-MedicationAgreement"/>
            </meta>
            <extension url="http://nictiz.nl/fhir/StructureDefinition/ext-RenderedDosageInstruction">
               <valueString value="Vanaf 31 dec 2021, tot en met 15 jan 2022, 1 maal per week 1 stuk, Oraal"/>
            </extension>
            <extension url="http://nictiz.nl/fhir/StructureDefinition/ext-TimeInterval.Period">
               <valuePeriod>
                  <start value="2021-12-31T00:00:00+01:00"/>
                  <end value="2022-01-15T23:59:59+01:00"/>
               </valuePeriod>
            </extension>
            <extension url="http://nictiz.nl/fhir/StructureDefinition/ext-PharmaceuticalTreatment.Identifier">
               <valueIdentifier>
                  <system value="urn:oid:2.16.840.1.113883.2.4.3.11.999.77.1.1"/>
                  <value value="MBH_200_wijzigen_verlaging"/>
               </valueIdentifier>
            </extension>
            <identifier>
               <system value="urn:oid:2.16.840.1.113883.2.4.3.11.999.77.16076005.1"/>
               <value value="MBH_200_wijzigen_verlaging_MA_wijzigingzonderVV"/>
            </identifier>
            <status value="unknown"/>
            <intent value="order"/>
            <category>
               <coding>
                  <system value="http://snomed.info/sct"/>
                  <code value="33633005"/>
                  <display value="voorschrijven van geneesmiddel"/>
               </coding>
            </category>
            <medicationReference>
               <reference value="urn:uuid:4fc68cde-7560-11ed-1921-020000000000"/>
               <type value="Medication"/>
               <display value="FERROFUMARAAT TABLET 200MG"/>
            </medicationReference>
            <subject>
               <reference value="urn:uuid:4fc683f6-7560-11ed-1921-020000000000"/>
               <type value="Patient"/>
               <display value="Patient, J. de XXX_Luzac"/>
            </subject>
            <authoredOn value="2021-12-31T08:10:00+01:00"/>
            <requester>
               <reference value="urn:uuid:4fc684be-7560-11ed-1921-020000000000"/>
               <type value="PractitionerRole"/>
               <display value="Healthcare professional (role), Bertine van Doorn, Huisartsen, niet nader gespecificeerd, Huisartsenpraktijk Pulver &amp; Partners"/>
            </requester>
            <reasonCode>
               <coding>
                  <system value="http://snomed.info/sct"/>
                  <code value="112251000146103"/>
                  <display value="te sterk effect van medicatie"/>
               </coding>
            </reasonCode>
            <dosageInstruction>
               <sequence value="1"/>
               <timing>
                  <repeat>
                     <frequency value="1"/>
                     <period value="1"/>
                     <periodUnit value="wk"/>
                  </repeat>
               </timing>
               <route>
                  <coding>
                     <system value="urn:oid:2.16.840.1.113883.2.4.4.9"/>
                     <code value="9"/>
                     <display value="Oraal"/>
                  </coding>
               </route>
               <doseAndRate>
                  <doseQuantity>
                     <extension url="http://hl7.org/fhir/StructureDefinition/iso21090-PQ-translation">
                        <valueQuantity>
                           <value value="1"/>
                           <unit value="stuk"/>
                           <system value="urn:oid:2.16.840.1.113883.2.4.4.1.900.2"/>
                           <code value="245"/>
                        </valueQuantity>
                     </extension>
                     <value value="1"/>
                     <unit value="stuk"/>
                     <system value="http://unitsofmeasure.org"/>
                     <code value="1"/>
                  </doseQuantity>
               </doseAndRate>
            </dosageInstruction>
            <priorPrescription>
               <type value="MedicationRequest"/>
               <identifier>
                  <system value="urn:oid:2.16.840.1.113883.2.4.3.11.999.77.16076005.1"/>
                  <value value="MBH_200_wijzigen_verlaging_MA_start"/>
               </identifier>
               <display value="relatie naar medicatieafspraak: MBH_200_wijzigen_verlaging_MA_start || 2.16.840.1.113883.2.4.3.11.999.77.16076005.1"/>
            </priorPrescription>
         </MedicationRequest>
      </resource>
      <search>
         <mode value="match"/>
      </search>
   </entry>
   <entry>
      <fullUrl value="urn:uuid:4fc688e2-7560-11ed-1921-020000000000"/>
      <resource>
         <MedicationRequest>
            <id value="4fc68352-7560-11ed-1921-020000000000"/>
            <meta>
               <profile value="http://nictiz.nl/fhir/StructureDefinition/mp-MedicationAgreement"/>
            </meta>
            <extension url="http://nictiz.nl/fhir/StructureDefinition/ext-RenderedDosageInstruction">
               <valueString value="Vanaf 19 dec 2021, tot en met 30 dec 2021, 2 maal per week 1 stuk, Oraal, definitief gestopt"/>
            </extension>
            <extension url="http://nictiz.nl/fhir/StructureDefinition/ext-TimeInterval.Period">
               <valuePeriod>
                  <start value="2021-12-19T00:00:00+01:00"/>
                  <end value="2021-12-30T23:59:59+01:00"/>
               </valuePeriod>
            </extension>
            <extension url="http://nictiz.nl/fhir/StructureDefinition/ext-PharmaceuticalTreatment.Identifier">
               <valueIdentifier>
                  <system value="urn:oid:2.16.840.1.113883.2.4.3.11.999.77.1.1"/>
                  <value value="MBH_200_wijzigen_verlaging"/>
               </valueIdentifier>
            </extension>
            <modifierExtension url="http://nictiz.nl/fhir/StructureDefinition/ext-StopType">
               <valueCodeableConcept>
                  <coding>
                     <system value="http://snomed.info/sct"/>
                     <code value="113371000146109"/>
                     <display value="definitief gestopt met medicatie"/>
                  </coding>
               </valueCodeableConcept>
            </modifierExtension>
            <identifier>
               <system value="urn:oid:2.16.840.1.113883.2.4.3.11.999.77.16076005.1"/>
               <value value="MBH_200_wijzigen_verlaging_MA_techstaken"/>
            </identifier>
            <status value="unknown"/>
            <intent value="order"/>
            <category>
               <coding>
                  <system value="http://snomed.info/sct"/>
                  <code value="33633005"/>
                  <display value="voorschrijven van geneesmiddel"/>
               </coding>
            </category>
            <medicationReference>
               <reference value="urn:uuid:4fc68cde-7560-11ed-1921-020000000000"/>
               <type value="Medication"/>
               <display value="FERROFUMARAAT TABLET 200MG"/>
            </medicationReference>
            <subject>
               <reference value="urn:uuid:4fc683f6-7560-11ed-1921-020000000000"/>
               <type value="Patient"/>
               <display value="Patient, J. de XXX_Luzac"/>
            </subject>
            <authoredOn value="2021-12-31T08:10:00+01:00"/>
            <requester>
               <reference value="urn:uuid:4fc684be-7560-11ed-1921-020000000000"/>
               <type value="PractitionerRole"/>
               <display value="Healthcare professional (role), Bertine van Doorn, Huisartsen, niet nader gespecificeerd, Huisartsenpraktijk Pulver &amp; Partners"/>
            </requester>
            <dosageInstruction>
               <sequence value="1"/>
               <timing>
                  <repeat>
                     <frequency value="2"/>
                     <period value="1"/>
                     <periodUnit value="wk"/>
                  </repeat>
               </timing>
               <route>
                  <coding>
                     <system value="urn:oid:2.16.840.1.113883.2.4.4.9"/>
                     <code value="9"/>
                     <display value="Oraal"/>
                  </coding>
               </route>
               <doseAndRate>
                  <doseQuantity>
                     <extension url="http://hl7.org/fhir/StructureDefinition/iso21090-PQ-translation">
                        <valueQuantity>
                           <value value="1"/>
                           <unit value="stuk"/>
                           <system value="urn:oid:2.16.840.1.113883.2.4.4.1.900.2"/>
                           <code value="245"/>
                        </valueQuantity>
                     </extension>
                     <value value="1"/>
                     <unit value="stuk"/>
                     <system value="http://unitsofmeasure.org"/>
                     <code value="1"/>
                  </doseQuantity>
               </doseAndRate>
            </dosageInstruction>
            <priorPrescription>
               <type value="MedicationRequest"/>
               <identifier>
                  <system value="urn:oid:2.16.840.1.113883.2.4.3.11.999.77.16076005.1"/>
                  <value value="MBH_200_wijzigen_verlaging_MA_start"/>
               </identifier>
               <display value="relatie naar medicatieafspraak: MBH_200_wijzigen_verlaging_MA_start || 2.16.840.1.113883.2.4.3.11.999.77.16076005.1"/>
            </priorPrescription>
         </MedicationRequest>
      </resource>
      <search>
         <mode value="match"/>
      </search>
   </entry>
   <entry>
      <fullUrl value="urn:uuid:4fc68900-7560-11ed-1921-020000000000"/>
      <resource>
         <MedicationRequest>
            <id value="21684011138832431199977160760051-MBH200onderbrekenMAstart"/>
            <meta>
               <profile value="http://nictiz.nl/fhir/StructureDefinition/mp-MedicationAgreement"/>
            </meta>
            <extension url="http://nictiz.nl/fhir/StructureDefinition/ext-RenderedDosageInstruction">
               <valueString value="Vanaf 28 dec 2021, tot en met 6 jan 2022, 3 maal per dag 1 stuk, Oraal"/>
            </extension>
            <extension url="http://nictiz.nl/fhir/StructureDefinition/ext-TimeInterval.Period">
               <valuePeriod>
                  <start value="2021-12-28T00:00:00+01:00"/>
                  <end value="2022-01-06T23:59:59+01:00"/>
               </valuePeriod>
            </extension>
            <extension url="http://nictiz.nl/fhir/StructureDefinition/ext-PharmaceuticalTreatment.Identifier">
               <valueIdentifier>
                  <system value="urn:oid:2.16.840.1.113883.2.4.3.11.999.77.1.1"/>
                  <value value="MBH_200_onderbreken"/>
               </valueIdentifier>
            </extension>
            <identifier>
               <system value="urn:oid:2.16.840.1.113883.2.4.3.11.999.77.16076005.1"/>
               <value value="MBH_200_onderbreken_MA_start"/>
            </identifier>
            <status value="unknown"/>
            <intent value="order"/>
            <category>
               <coding>
                  <system value="http://snomed.info/sct"/>
                  <code value="33633005"/>
                  <display value="voorschrijven van geneesmiddel"/>
               </coding>
            </category>
            <medicationReference>
               <reference value="urn:uuid:4fc68d1a-7560-11ed-1921-020000000000"/>
               <type value="Medication"/>
               <display value="FENETICILLINE CAPSULE 500MG"/>
            </medicationReference>
            <subject>
               <reference value="urn:uuid:4fc683f6-7560-11ed-1921-020000000000"/>
               <type value="Patient"/>
               <display value="Patient, J. de XXX_Luzac"/>
            </subject>
            <authoredOn value="2021-12-27T08:06:00+01:00"/>
            <requester>
               <reference value="urn:uuid:4fc684be-7560-11ed-1921-020000000000"/>
               <type value="PractitionerRole"/>
               <display value="Healthcare professional (role), Bertine van Doorn, Huisartsen, niet nader gespecificeerd, Huisartsenpraktijk Pulver &amp; Partners"/>
            </requester>
            <dosageInstruction>
               <sequence value="1"/>
               <timing>
                  <repeat>
                     <frequency value="3"/>
                     <period value="1"/>
                     <periodUnit value="d"/>
                  </repeat>
               </timing>
               <route>
                  <coding>
                     <system value="urn:oid:2.16.840.1.113883.2.4.4.9"/>
                     <code value="9"/>
                     <display value="Oraal"/>
                  </coding>
               </route>
               <doseAndRate>
                  <doseQuantity>
                     <extension url="http://hl7.org/fhir/StructureDefinition/iso21090-PQ-translation">
                        <valueQuantity>
                           <value value="1"/>
                           <unit value="stuk"/>
                           <system value="urn:oid:2.16.840.1.113883.2.4.4.1.900.2"/>
                           <code value="245"/>
                        </valueQuantity>
                     </extension>
                     <value value="1"/>
                     <unit value="stuk"/>
                     <system value="http://unitsofmeasure.org"/>
                     <code value="1"/>
                  </doseQuantity>
               </doseAndRate>
            </dosageInstruction>
         </MedicationRequest>
      </resource>
      <search>
         <mode value="match"/>
      </search>
   </entry>
   <entry>
      <fullUrl value="urn:uuid:4fc6891e-7560-11ed-1921-020000000000"/>
      <resource>
         <MedicationRequest>
            <id value="4fc683f5-7560-11ed-1921-020000000000"/>
            <meta>
               <profile value="http://nictiz.nl/fhir/StructureDefinition/mp-MedicationAgreement"/>
            </meta>
            <extension url="http://nictiz.nl/fhir/StructureDefinition/ext-RenderedDosageInstruction">
               <valueString value="Vanaf 28 dec 2021, tot en met 31 dec 2021, 3 maal per dag 1 stuk, Oraal, tijdelijk gestopt"/>
            </extension>
            <extension url="http://nictiz.nl/fhir/StructureDefinition/ext-TimeInterval.Period">
               <valuePeriod>
                  <start value="2021-12-28T00:00:00+01:00"/>
                  <end value="2021-12-31T23:59:59+01:00"/>
               </valuePeriod>
            </extension>
            <extension url="http://nictiz.nl/fhir/StructureDefinition/ext-PharmaceuticalTreatment.Identifier">
               <valueIdentifier>
                  <system value="urn:oid:2.16.840.1.113883.2.4.3.11.999.77.1.1"/>
                  <value value="MBH_200_onderbreken"/>
               </valueIdentifier>
            </extension>
            <modifierExtension url="http://nictiz.nl/fhir/StructureDefinition/ext-StopType">
               <valueCodeableConcept>
                  <coding>
                     <system value="http://snomed.info/sct"/>
                     <code value="113381000146106"/>
                     <display value="tijdelijk gestopt met medicatie"/>
                  </coding>
               </valueCodeableConcept>
            </modifierExtension>
            <identifier>
               <system value="urn:oid:2.16.840.1.113883.2.4.3.11.999.77.16076005.1"/>
               <value value="MBH_200_onderbreken_MA_onderbreken"/>
            </identifier>
            <status value="unknown"/>
            <intent value="order"/>
            <category>
               <coding>
                  <system value="http://snomed.info/sct"/>
                  <code value="33633005"/>
                  <display value="voorschrijven van geneesmiddel"/>
               </coding>
            </category>
            <medicationReference>
               <reference value="urn:uuid:4fc68d1a-7560-11ed-1921-020000000000"/>
               <type value="Medication"/>
               <display value="FENETICILLINE CAPSULE 500MG"/>
            </medicationReference>
            <subject>
               <reference value="urn:uuid:4fc683f6-7560-11ed-1921-020000000000"/>
               <type value="Patient"/>
               <display value="Patient, J. de XXX_Luzac"/>
            </subject>
            <authoredOn value="2021-12-31T18:12:00+01:00"/>
            <requester>
               <reference value="urn:uuid:4fc684be-7560-11ed-1921-020000000000"/>
               <type value="PractitionerRole"/>
               <display value="Healthcare professional (role), Bertine van Doorn, Huisartsen, niet nader gespecificeerd, Huisartsenpraktijk Pulver &amp; Partners"/>
            </requester>
            <reasonCode>
               <coding>
                  <system value="http://snomed.info/sct"/>
                  <code value="405613005"/>
                  <display value="verrichting gepland"/>
               </coding>
            </reasonCode>
            <dosageInstruction>
               <sequence value="1"/>
               <timing>
                  <repeat>
                     <frequency value="3"/>
                     <period value="1"/>
                     <periodUnit value="d"/>
                  </repeat>
               </timing>
               <route>
                  <coding>
                     <system value="urn:oid:2.16.840.1.113883.2.4.4.9"/>
                     <code value="9"/>
                     <display value="Oraal"/>
                  </coding>
               </route>
               <doseAndRate>
                  <doseQuantity>
                     <extension url="http://hl7.org/fhir/StructureDefinition/iso21090-PQ-translation">
                        <valueQuantity>
                           <value value="1"/>
                           <unit value="stuk"/>
                           <system value="urn:oid:2.16.840.1.113883.2.4.4.1.900.2"/>
                           <code value="245"/>
                        </valueQuantity>
                     </extension>
                     <value value="1"/>
                     <unit value="stuk"/>
                     <system value="http://unitsofmeasure.org"/>
                     <code value="1"/>
                  </doseQuantity>
               </doseAndRate>
            </dosageInstruction>
            <priorPrescription>
               <type value="MedicationRequest"/>
               <identifier>
                  <system value="urn:oid:2.16.840.1.113883.2.4.3.11.999.77.16076005.1"/>
                  <value value="MBH_200_onderbreken_MA_start"/>
               </identifier>
               <display value="relatie naar medicatieafspraak: MBH_200_onderbreken_MA_start || 2.16.840.1.113883.2.4.3.11.999.77.16076005.1"/>
            </priorPrescription>
         </MedicationRequest>
      </resource>
      <search>
         <mode value="match"/>
      </search>
   </entry>
   <entry>
      <fullUrl value="urn:uuid:4fc6893c-7560-11ed-1921-020000000000"/>
      <resource>
         <MedicationRequest>
            <id value="21684011138832431199977160760051-MBH200TAwijzigenMA"/>
            <meta>
               <profile value="http://nictiz.nl/fhir/StructureDefinition/mp-MedicationAgreement"/>
            </meta>
            <extension url="http://nictiz.nl/fhir/StructureDefinition/ext-RenderedDosageInstruction">
               <valueString value="Vanaf 2 nov 2021, gedurende 28 dagen, 1 maal per dag 1 stuk, oraal"/>
            </extension>
            <extension url="http://nictiz.nl/fhir/StructureDefinition/ext-TimeInterval.Period">
               <valuePeriod>
                  <extension url="http://nictiz.nl/fhir/StructureDefinition/ext-TimeInterval.Duration">
                     <valueDuration>
                        <value value="28"/>
                        <unit value="dag"/>
                        <system value="http://unitsofmeasure.org"/>
                        <code value="d"/>
                     </valueDuration>
                  </extension>
                  <start value="2021-11-02T00:00:00+01:00"/>
               </valuePeriod>
            </extension>
            <extension url="http://nictiz.nl/fhir/StructureDefinition/ext-PharmaceuticalTreatment.Identifier">
               <valueIdentifier>
                  <system value="urn:oid:2.16.840.1.113883.2.4.3.11.999.77.1.1"/>
                  <value value="MBH_200_TAwijzigen"/>
               </valueIdentifier>
            </extension>
            <identifier>
               <system value="urn:oid:2.16.840.1.113883.2.4.3.11.999.77.16076005.1"/>
               <value value="MBH_200_TAwijzigen_MA"/>
            </identifier>
            <status value="unknown"/>
            <intent value="order"/>
            <category>
               <coding>
                  <system value="http://snomed.info/sct"/>
                  <code value="33633005"/>
                  <display value="voorschrijven van geneesmiddel"/>
               </coding>
            </category>
            <medicationReference>
               <reference value="urn:uuid:4fc68d56-7560-11ed-1921-020000000000"/>
               <type value="Medication"/>
               <display value="PANTOPRAZOL 40MG TABLET MSR"/>
            </medicationReference>
            <subject>
               <reference value="urn:uuid:4fc683f6-7560-11ed-1921-020000000000"/>
               <type value="Patient"/>
               <display value="Patient, J. de XXX_Luzac"/>
            </subject>
            <authoredOn value="2021-11-02T11:30:00+01:00"/>
            <requester>
               <reference value="urn:uuid:4fc684be-7560-11ed-1921-020000000000"/>
               <type value="PractitionerRole"/>
               <display value="Healthcare professional (role), Bertine van Doorn, Huisartsen, niet nader gespecificeerd, Huisartsenpraktijk Pulver &amp; Partners"/>
            </requester>
            <dosageInstruction>
               <sequence value="1"/>
               <timing>
                  <repeat>
                     <frequency value="1"/>
                     <period value="1"/>
                     <periodUnit value="d"/>
                  </repeat>
               </timing>
               <route>
                  <coding>
                     <system value="urn:oid:2.16.840.1.113883.2.4.4.9"/>
                     <code value="9"/>
                     <display value="oraal"/>
                  </coding>
               </route>
               <doseAndRate>
                  <doseQuantity>
                     <extension url="http://hl7.org/fhir/StructureDefinition/iso21090-PQ-translation">
                        <valueQuantity>
                           <value value="1"/>
                           <unit value="stuk"/>
                           <system value="urn:oid:2.16.840.1.113883.2.4.4.1.900.2"/>
                           <code value="245"/>
                        </valueQuantity>
                     </extension>
                     <value value="1"/>
                     <unit value="stuk"/>
                     <system value="http://unitsofmeasure.org"/>
                     <code value="1"/>
                  </doseQuantity>
               </doseAndRate>
            </dosageInstruction>
         </MedicationRequest>
      </resource>
      <search>
         <mode value="match"/>
      </search>
   </entry>
   <entry>
      <fullUrl value="urn:uuid:4fc6895a-7560-11ed-1921-020000000000"/>
      <resource>
         <MedicationRequest>
            <id value="21684011138832431199977527110001461081-MBH200stoppenVV"/>
            <meta>
               <profile value="http://nictiz.nl/fhir/StructureDefinition/mp-DispenseRequest"/>
            </meta>
            <extension url="http://nictiz.nl/fhir/StructureDefinition/ext-PharmaceuticalTreatment.Identifier">
               <valueIdentifier>
                  <system value="urn:oid:2.16.840.1.113883.2.4.3.11.999.77.1.1"/>
                  <value value="MBH_200_stoppen"/>
               </valueIdentifier>
            </extension>
            <identifier>
               <system value="urn:oid:2.16.840.1.113883.2.4.3.11.999.77.52711000146108.1"/>
               <value value="MBH_200_stoppen_VV"/>
            </identifier>
            <status value="unknown"/>
            <intent value="order"/>
            <category>
               <coding>
                  <system value="http://snomed.info/sct"/>
                  <code value="52711000146108"/>
                  <display value="verstrekkingsverzoek"/>
               </coding>
            </category>
            <medicationReference>
               <reference value="urn:uuid:4fc68c66-7560-11ed-1921-020000000000"/>
               <type value="Medication"/>
               <display value="Acetylsalicylzuur tabletmsr 100mg"/>
            </medicationReference>
            <subject>
               <reference value="urn:uuid:4fc683f6-7560-11ed-1921-020000000000"/>
               <type value="Patient"/>
               <display value="Patient, J. de XXX_Luzac"/>
            </subject>
            <authoredOn value="2021-11-02T08:00:00+01:00"/>
            <requester>
               <reference value="urn:uuid:4fc684be-7560-11ed-1921-020000000000"/>
               <type value="PractitionerRole"/>
               <display value="Healthcare professional (role), Bertine van Doorn, Huisartsen, niet nader gespecificeerd, Huisartsenpraktijk Pulver &amp; Partners"/>
            </requester>
            <performer>
               <reference value="urn:uuid:4fc68798-7560-11ed-1921-020000000000"/>
               <type value="Organization"/>
               <display value="Healthcare provider (organization), Apotheek De Gulle Gaper"/>
            </performer>
            <basedOn>
               <type value="MedicationRequest"/>
               <identifier>
                  <system value="urn:oid:2.16.840.1.113883.2.4.3.11.999.77.16076005.1"/>
                  <value value="MBH_200_stoppen_MA_start"/>
               </identifier>
               <display value="relatie naar medicatieafspraak  met identificatie: MBH_200_stoppen_MA_start || 2.16.840.1.113883.2.4.3.11.999.77.16076005.1"/>
            </basedOn>
            <dispenseRequest>
               <quantity>
                  <extension url="http://hl7.org/fhir/StructureDefinition/iso21090-PQ-translation">
                     <valueQuantity>
                        <value value="180"/>
                        <unit value="stuk"/>
                        <system value="urn:oid:2.16.840.1.113883.2.4.4.1.900.2"/>
                        <code value="245"/>
                     </valueQuantity>
                  </extension>
                  <value value="180"/>
                  <unit value="stuk"/>
                  <system value="http://unitsofmeasure.org"/>
                  <code value="1"/>
               </quantity>
            </dispenseRequest>
         </MedicationRequest>
      </resource>
      <search>
         <mode value="match"/>
      </search>
   </entry>
   <entry>
      <fullUrl value="urn:uuid:4fc68978-7560-11ed-1921-020000000000"/>
      <resource>
         <MedicationRequest>
            <id value="4fc68295-7560-11ed-1921-020000000000"/>
            <meta>
               <profile value="http://nictiz.nl/fhir/StructureDefinition/mp-DispenseRequest"/>
            </meta>
            <extension url="http://nictiz.nl/fhir/StructureDefinition/ext-PharmaceuticalTreatment.Identifier">
               <valueIdentifier>
                  <system value="urn:oid:2.16.840.1.113883.2.4.3.11.999.77.1.1"/>
                  <value value="MBH_200_wijzigen_verhoging"/>
               </valueIdentifier>
            </extension>
            <identifier>
               <system value="urn:oid:2.16.840.1.113883.2.4.3.11.999.77.52711000146108.1"/>
               <value value="MBH_200_wijzigen_verhoging_VV"/>
            </identifier>
            <status value="unknown"/>
            <intent value="order"/>
            <category>
               <coding>
                  <system value="http://snomed.info/sct"/>
                  <code value="52711000146108"/>
                  <display value="verstrekkingsverzoek"/>
               </coding>
            </category>
            <medicationReference>
               <reference value="urn:uuid:4fc68ca2-7560-11ed-1921-020000000000"/>
               <type value="Medication"/>
               <display value="FUROSEMIDE 40MG TABLET"/>
            </medicationReference>
            <subject>
               <reference value="urn:uuid:4fc683f6-7560-11ed-1921-020000000000"/>
               <type value="Patient"/>
               <display value="Patient, J. de XXX_Luzac"/>
            </subject>
            <authoredOn value="2021-12-11T08:02:00+01:00"/>
            <requester>
               <reference value="urn:uuid:4fc684be-7560-11ed-1921-020000000000"/>
               <type value="PractitionerRole"/>
               <display value="Healthcare professional (role), Bertine van Doorn, Huisartsen, niet nader gespecificeerd, Huisartsenpraktijk Pulver &amp; Partners"/>
            </requester>
            <performer>
               <reference value="urn:uuid:4fc68798-7560-11ed-1921-020000000000"/>
               <type value="Organization"/>
               <display value="Healthcare provider (organization), Apotheek De Gulle Gaper"/>
            </performer>
            <basedOn>
               <type value="MedicationRequest"/>
               <identifier>
                  <system value="urn:oid:2.16.840.1.113883.2.4.3.11.999.77.16076005.1"/>
                  <value value="MBH_200_wijzigen_verhoging_MA_start"/>
               </identifier>
               <display value="relatie naar medicatieafspraak  met identificatie: MBH_200_wijzigen_verhoging_MA_start || 2.16.840.1.113883.2.4.3.11.999.77.16076005.1"/>
            </basedOn>
            <dispenseRequest>
               <quantity>
                  <extension url="http://hl7.org/fhir/StructureDefinition/iso21090-PQ-translation">
                     <valueQuantity>
                        <value value="30"/>
                        <unit value="stuk"/>
                        <system value="urn:oid:2.16.840.1.113883.2.4.4.1.900.2"/>
                        <code value="245"/>
                     </valueQuantity>
                  </extension>
                  <value value="30"/>
                  <unit value="stuk"/>
                  <system value="http://unitsofmeasure.org"/>
                  <code value="1"/>
               </quantity>
            </dispenseRequest>
         </MedicationRequest>
      </resource>
      <search>
         <mode value="match"/>
      </search>
   </entry>
   <entry>
      <fullUrl value="urn:uuid:4fc68996-7560-11ed-1921-020000000000"/>
      <resource>
         <MedicationRequest>
            <id value="4fc682a3-7560-11ed-1921-020000000000"/>
            <meta>
               <profile value="http://nictiz.nl/fhir/StructureDefinition/mp-DispenseRequest"/>
            </meta>
            <extension url="http://nictiz.nl/fhir/StructureDefinition/ext-PharmaceuticalTreatment.Identifier">
               <valueIdentifier>
                  <system value="urn:oid:2.16.840.1.113883.2.4.3.11.999.77.1.1"/>
                  <value value="MBH_200_wijzigen_verhoging"/>
               </valueIdentifier>
            </extension>
            <identifier>
               <system value="urn:oid:2.16.840.1.113883.2.4.3.11.999.77.52711000146108.1"/>
               <value value="MBH_200_wijzigen_verhoging_VV_extra"/>
            </identifier>
            <status value="unknown"/>
            <intent value="order"/>
            <category>
               <coding>
                  <system value="http://snomed.info/sct"/>
                  <code value="52711000146108"/>
                  <display value="verstrekkingsverzoek"/>
               </coding>
            </category>
            <medicationReference>
               <reference value="urn:uuid:4fc68ca2-7560-11ed-1921-020000000000"/>
               <type value="Medication"/>
               <display value="FUROSEMIDE 40MG TABLET"/>
            </medicationReference>
            <subject>
               <reference value="urn:uuid:4fc683f6-7560-11ed-1921-020000000000"/>
               <type value="Patient"/>
               <display value="Patient, J. de XXX_Luzac"/>
            </subject>
            <authoredOn value="2021-12-30T08:02:00+01:00"/>
            <requester>
               <reference value="urn:uuid:4fc684be-7560-11ed-1921-020000000000"/>
               <type value="PractitionerRole"/>
               <display value="Healthcare professional (role), Bertine van Doorn, Huisartsen, niet nader gespecificeerd, Huisartsenpraktijk Pulver &amp; Partners"/>
            </requester>
            <performer>
               <reference value="urn:uuid:4fc68798-7560-11ed-1921-020000000000"/>
               <type value="Organization"/>
               <display value="Healthcare provider (organization), Apotheek De Gulle Gaper"/>
            </performer>
            <basedOn>
               <type value="MedicationRequest"/>
               <identifier>
                  <system value="urn:oid:2.16.840.1.113883.2.4.3.11.999.77.16076005.1"/>
                  <value value="MBH_200_wijzigen_verhoging_MA_wijzigingmetVV"/>
               </identifier>
               <display value="relatie naar medicatieafspraak  met identificatie: MBH_200_wijzigen_verhoging_MA_wijzigingmetVV || 2.16.840.1.113883.2.4.3.11.999.77.16076005.1"/>
            </basedOn>
            <dispenseRequest>
               <quantity>
                  <extension url="http://hl7.org/fhir/StructureDefinition/iso21090-PQ-translation">
                     <valueQuantity>
                        <value value="60"/>
                        <unit value="stuk"/>
                        <system value="urn:oid:2.16.840.1.113883.2.4.4.1.900.2"/>
                        <code value="245"/>
                     </valueQuantity>
                  </extension>
                  <value value="60"/>
                  <unit value="stuk"/>
                  <system value="http://unitsofmeasure.org"/>
                  <code value="1"/>
               </quantity>
            </dispenseRequest>
         </MedicationRequest>
      </resource>
      <search>
         <mode value="match"/>
      </search>
   </entry>
   <entry>
      <fullUrl value="urn:uuid:4fc689b4-7560-11ed-1921-020000000000"/>
      <resource>
         <MedicationRequest>
            <id value="4fc6836e-7560-11ed-1921-020000000000"/>
            <meta>
               <profile value="http://nictiz.nl/fhir/StructureDefinition/mp-DispenseRequest"/>
            </meta>
            <extension url="http://nictiz.nl/fhir/StructureDefinition/ext-PharmaceuticalTreatment.Identifier">
               <valueIdentifier>
                  <system value="urn:oid:2.16.840.1.113883.2.4.3.11.999.77.1.1"/>
                  <value value="MBH_200_wijzigen_verlaging"/>
               </valueIdentifier>
            </extension>
            <identifier>
               <system value="urn:oid:2.16.840.1.113883.2.4.3.11.999.77.52711000146108.1"/>
               <value value="MBH_200_wijzigen_verlaging_VV"/>
            </identifier>
            <status value="unknown"/>
            <intent value="order"/>
            <category>
               <coding>
                  <system value="http://snomed.info/sct"/>
                  <code value="52711000146108"/>
                  <display value="verstrekkingsverzoek"/>
               </coding>
            </category>
            <medicationReference>
               <reference value="urn:uuid:4fc68cde-7560-11ed-1921-020000000000"/>
               <type value="Medication"/>
               <display value="FERROFUMARAAT TABLET 200MG"/>
            </medicationReference>
            <subject>
               <reference value="urn:uuid:4fc683f6-7560-11ed-1921-020000000000"/>
               <type value="Patient"/>
               <display value="Patient, J. de XXX_Luzac"/>
            </subject>
            <authoredOn value="2021-12-19T08:05:00+01:00"/>
            <requester>
               <reference value="urn:uuid:4fc684be-7560-11ed-1921-020000000000"/>
               <type value="PractitionerRole"/>
               <display value="Healthcare professional (role), Bertine van Doorn, Huisartsen, niet nader gespecificeerd, Huisartsenpraktijk Pulver &amp; Partners"/>
            </requester>
            <performer>
               <reference value="urn:uuid:4fc68798-7560-11ed-1921-020000000000"/>
               <type value="Organization"/>
               <display value="Healthcare provider (organization), Apotheek De Gulle Gaper"/>
            </performer>
            <basedOn>
               <type value="MedicationRequest"/>
               <identifier>
                  <system value="urn:oid:2.16.840.1.113883.2.4.3.11.999.77.16076005.1"/>
                  <value value="MBH_200_wijzigen_verlaging_MA_start"/>
               </identifier>
               <display value="relatie naar medicatieafspraak  met identificatie: MBH_200_wijzigen_verlaging_MA_start || 2.16.840.1.113883.2.4.3.11.999.77.16076005.1"/>
            </basedOn>
            <dispenseRequest>
               <quantity>
                  <extension url="http://hl7.org/fhir/StructureDefinition/iso21090-PQ-translation">
                     <valueQuantity>
                        <value value="20"/>
                        <unit value="stuk"/>
                        <system value="urn:oid:2.16.840.1.113883.2.4.4.1.900.2"/>
                        <code value="245"/>
                     </valueQuantity>
                  </extension>
                  <value value="20"/>
                  <unit value="stuk"/>
                  <system value="http://unitsofmeasure.org"/>
                  <code value="1"/>
               </quantity>
            </dispenseRequest>
         </MedicationRequest>
      </resource>
      <search>
         <mode value="match"/>
      </search>
   </entry>
   <entry>
      <fullUrl value="urn:uuid:4fc689d2-7560-11ed-1921-020000000000"/>
      <resource>
         <MedicationRequest>
            <id value="21684011138832431199977527110001461081-MBH200onderbrekenVV"/>
            <meta>
               <profile value="http://nictiz.nl/fhir/StructureDefinition/mp-DispenseRequest"/>
            </meta>
            <extension url="http://nictiz.nl/fhir/StructureDefinition/ext-PharmaceuticalTreatment.Identifier">
               <valueIdentifier>
                  <system value="urn:oid:2.16.840.1.113883.2.4.3.11.999.77.1.1"/>
                  <value value="MBH_200_onderbreken"/>
               </valueIdentifier>
            </extension>
            <identifier>
               <system value="urn:oid:2.16.840.1.113883.2.4.3.11.999.77.52711000146108.1"/>
               <value value="MBH_200_onderbreken_VV"/>
            </identifier>
            <status value="unknown"/>
            <intent value="order"/>
            <category>
               <coding>
                  <system value="http://snomed.info/sct"/>
                  <code value="52711000146108"/>
                  <display value="verstrekkingsverzoek"/>
               </coding>
            </category>
            <medicationReference>
               <reference value="urn:uuid:4fc68d1a-7560-11ed-1921-020000000000"/>
               <type value="Medication"/>
               <display value="FENETICILLINE CAPSULE 500MG"/>
            </medicationReference>
            <subject>
               <reference value="urn:uuid:4fc683f6-7560-11ed-1921-020000000000"/>
               <type value="Patient"/>
               <display value="Patient, J. de XXX_Luzac"/>
            </subject>
            <authoredOn value="2021-12-27T08:06:00+01:00"/>
            <requester>
               <reference value="urn:uuid:4fc684be-7560-11ed-1921-020000000000"/>
               <type value="PractitionerRole"/>
               <display value="Healthcare professional (role), Bertine van Doorn, Huisartsen, niet nader gespecificeerd, Huisartsenpraktijk Pulver &amp; Partners"/>
            </requester>
            <performer>
               <reference value="urn:uuid:4fc68798-7560-11ed-1921-020000000000"/>
               <type value="Organization"/>
               <display value="Healthcare provider (organization), Apotheek De Gulle Gaper"/>
            </performer>
            <basedOn>
               <type value="MedicationRequest"/>
               <identifier>
                  <system value="urn:oid:2.16.840.1.113883.2.4.3.11.999.77.16076005.1"/>
                  <value value="MBH_200_onderbreken_MA_start"/>
               </identifier>
               <display value="relatie naar medicatieafspraak  met identificatie: MBH_200_onderbreken_MA_start || 2.16.840.1.113883.2.4.3.11.999.77.16076005.1"/>
            </basedOn>
            <dispenseRequest>
               <quantity>
                  <extension url="http://hl7.org/fhir/StructureDefinition/iso21090-PQ-translation">
                     <valueQuantity>
                        <value value="30"/>
                        <unit value="stuk"/>
                        <system value="urn:oid:2.16.840.1.113883.2.4.4.1.900.2"/>
                        <code value="245"/>
                     </valueQuantity>
                  </extension>
                  <value value="30"/>
                  <unit value="stuk"/>
                  <system value="http://unitsofmeasure.org"/>
                  <code value="1"/>
               </quantity>
            </dispenseRequest>
         </MedicationRequest>
      </resource>
      <search>
         <mode value="match"/>
      </search>
   </entry>
   <entry>
      <fullUrl value="urn:uuid:4fc689f0-7560-11ed-1921-020000000000"/>
      <resource>
         <MedicationRequest>
            <id value="21684011138832431199977527110001461081-MBH200TAwijzigenVV"/>
            <meta>
               <profile value="http://nictiz.nl/fhir/StructureDefinition/mp-DispenseRequest"/>
            </meta>
            <extension url="http://nictiz.nl/fhir/StructureDefinition/ext-PharmaceuticalTreatment.Identifier">
               <valueIdentifier>
                  <system value="urn:oid:2.16.840.1.113883.2.4.3.11.999.77.1.1"/>
                  <value value="MBH_200_TAwijzigen"/>
               </valueIdentifier>
            </extension>
            <identifier>
               <system value="urn:oid:2.16.840.1.113883.2.4.3.11.999.77.52711000146108.1"/>
               <value value="MBH_200_TAwijzigen_VV"/>
            </identifier>
            <status value="unknown"/>
            <intent value="order"/>
            <category>
               <coding>
                  <system value="http://snomed.info/sct"/>
                  <code value="52711000146108"/>
                  <display value="verstrekkingsverzoek"/>
               </coding>
            </category>
            <medicationReference>
               <reference value="urn:uuid:4fc68d56-7560-11ed-1921-020000000000"/>
               <type value="Medication"/>
               <display value="PANTOPRAZOL 40MG TABLET MSR"/>
            </medicationReference>
            <subject>
               <reference value="urn:uuid:4fc683f6-7560-11ed-1921-020000000000"/>
               <type value="Patient"/>
               <display value="Patient, J. de XXX_Luzac"/>
            </subject>
            <authoredOn value="2021-11-02T11:30:00+01:00"/>
            <requester>
               <reference value="urn:uuid:4fc684be-7560-11ed-1921-020000000000"/>
               <type value="PractitionerRole"/>
               <display value="Healthcare professional (role), Bertine van Doorn, Huisartsen, niet nader gespecificeerd, Huisartsenpraktijk Pulver &amp; Partners"/>
            </requester>
            <performer>
               <reference value="urn:uuid:4fc68798-7560-11ed-1921-020000000000"/>
               <type value="Organization"/>
               <display value="Healthcare provider (organization), Apotheek De Gulle Gaper"/>
            </performer>
            <basedOn>
               <type value="MedicationRequest"/>
               <identifier>
                  <system value="urn:oid:2.16.840.1.113883.2.4.3.11.999.77.16076005.1"/>
                  <value value="MBH_200_TAwijzigen_MA"/>
               </identifier>
               <display value="relatie naar medicatieafspraak  met identificatie: MBH_200_TAwijzigen_MA || 2.16.840.1.113883.2.4.3.11.999.77.16076005.1"/>
            </basedOn>
            <dispenseRequest>
               <quantity>
                  <extension url="http://hl7.org/fhir/StructureDefinition/iso21090-PQ-translation">
                     <valueQuantity>
                        <value value="28"/>
                        <unit value="stuk"/>
                        <system value="urn:oid:2.16.840.1.113883.2.4.4.1.900.2"/>
                        <code value="245"/>
                     </valueQuantity>
                  </extension>
                  <value value="28"/>
                  <unit value="stuk"/>
                  <system value="http://unitsofmeasure.org"/>
                  <code value="1"/>
               </quantity>
            </dispenseRequest>
         </MedicationRequest>
      </resource>
      <search>
         <mode value="match"/>
      </search>
   </entry>
   <entry>
      <fullUrl value="urn:uuid:4fc68a0e-7560-11ed-1921-020000000000"/>
      <resource>
         <MedicationDispense>
            <id value="216840111388324311999774220370091-MBH200stoppenTAstart"/>
            <meta>
               <profile value="http://nictiz.nl/fhir/StructureDefinition/mp-AdministrationAgreement"/>
            </meta>
            <extension url="http://nictiz.nl/fhir/StructureDefinition/ext-AdministrationAgreement.AdministrationAgreementDateTime">
               <valueDateTime value="2021-11-02T09:00:00+01:00"/>
            </extension>
            <extension url="http://nictiz.nl/fhir/StructureDefinition/ext-RenderedDosageInstruction">
               <valueString value="Vanaf 2 nov 2021, tot en met 9 aug 2022, 1 maal per dag 1 stuk, Oraal"/>
            </extension>
            <extension url="http://nictiz.nl/fhir/StructureDefinition/ext-TimeInterval.Period">
               <valuePeriod>
                  <start value="2021-11-02T00:00:00+01:00"/>
                  <end value="2022-08-09T23:59:59+02:00"/>
               </valuePeriod>
            </extension>
            <extension url="http://nictiz.nl/fhir/StructureDefinition/ext-PharmaceuticalTreatment.Identifier">
               <valueIdentifier>
                  <system value="urn:oid:2.16.840.1.113883.2.4.3.11.999.77.1.1"/>
                  <value value="MBH_200_stoppen"/>
               </valueIdentifier>
            </extension>
            <identifier>
               <system value="urn:oid:2.16.840.1.113883.2.4.3.11.999.77.422037009.1"/>
               <value value="MBH_200_stoppen_TA_start"/>
            </identifier>
            <status value="unknown"/>
            <category>
               <coding>
                  <system value="http://snomed.info/sct"/>
                  <code value="422037009"/>
                  <display value="toedieningsafspraak"/>
               </coding>
            </category>
            <medicationReference>
               <reference value="urn:uuid:4fc68c84-7560-11ed-1921-020000000000"/>
               <type value="Medication"/>
               <display value="ASPIRINE PROTECT EC TABLET MSR 100MG"/>
            </medicationReference>
            <subject>
               <reference value="urn:uuid:4fc683f6-7560-11ed-1921-020000000000"/>
               <type value="Patient"/>
               <display value="Patient, J. de XXX_Luzac"/>
            </subject>
            <performer>
               <actor>
                  <reference value="urn:uuid:4fc68798-7560-11ed-1921-020000000000"/>
                  <type value="Organization"/>
                  <display value="Healthcare provider (organization), Apotheek De Gulle Gaper"/>
               </actor>
            </performer>
            <authorizingPrescription>
               <type value="MedicationRequest"/>
               <identifier>
                  <system value="urn:oid:2.16.840.1.113883.2.4.3.11.999.77.16076005.1"/>
                  <value value="MBH_200_stoppen_MA_start"/>
               </identifier>
               <display value="relatie naar medicatieafspraak met identificatie: MBH_200_stoppen_MA_start || 2.16.840.1.113883.2.4.3.11.999.77.16076005.1"/>
            </authorizingPrescription>
            <dosageInstruction>
               <sequence value="1"/>
               <timing>
                  <repeat>
                     <frequency value="1"/>
                     <period value="1"/>
                     <periodUnit value="d"/>
                  </repeat>
               </timing>
               <route>
                  <coding>
                     <system value="urn:oid:2.16.840.1.113883.2.4.4.9"/>
                     <code value="9"/>
                     <display value="Oraal"/>
                  </coding>
               </route>
               <doseAndRate>
                  <doseQuantity>
                     <extension url="http://hl7.org/fhir/StructureDefinition/iso21090-PQ-translation">
                        <valueQuantity>
                           <value value="1"/>
                           <unit value="stuk"/>
                           <system value="urn:oid:2.16.840.1.113883.2.4.4.1.900.2"/>
                           <code value="245"/>
                        </valueQuantity>
                     </extension>
                     <value value="1"/>
                     <unit value="stuk"/>
                     <system value="http://unitsofmeasure.org"/>
                     <code value="1"/>
                  </doseQuantity>
               </doseAndRate>
            </dosageInstruction>
         </MedicationDispense>
      </resource>
      <search>
         <mode value="match"/>
      </search>
   </entry>
   <entry>
      <fullUrl value="urn:uuid:4fc68a2c-7560-11ed-1921-020000000000"/>
      <resource>
         <MedicationDispense>
            <id value="216840111388324311999774220370091-MBH200stoppenTAstaken"/>
            <meta>
               <profile value="http://nictiz.nl/fhir/StructureDefinition/mp-AdministrationAgreement"/>
            </meta>
            <extension url="http://nictiz.nl/fhir/StructureDefinition/ext-AdministrationAgreement.AdministrationAgreementDateTime">
               <valueDateTime value="2021-12-22T19:00:00+01:00"/>
            </extension>
            <extension url="http://nictiz.nl/fhir/StructureDefinition/ext-RenderedDosageInstruction">
               <valueString value="Vanaf 2 nov 2021, tot en met 1 jan 2022, 1 maal per dag 1 stuk, Oraal, definitief gestopt"/>
            </extension>
            <extension url="http://nictiz.nl/fhir/StructureDefinition/ext-TimeInterval.Period">
               <valuePeriod>
                  <start value="2021-11-02T00:00:00+01:00"/>
                  <end value="2022-01-01T23:59:59+01:00"/>
               </valuePeriod>
            </extension>
            <extension url="http://nictiz.nl/fhir/StructureDefinition/ext-PharmaceuticalTreatment.Identifier">
               <valueIdentifier>
                  <system value="urn:oid:2.16.840.1.113883.2.4.3.11.999.77.1.1"/>
                  <value value="MBH_200_stoppen"/>
               </valueIdentifier>
            </extension>
            <modifierExtension url="http://nictiz.nl/fhir/StructureDefinition/ext-StopType">
               <valueCodeableConcept>
                  <coding>
                     <system value="http://snomed.info/sct"/>
                     <code value="113371000146109"/>
                     <display value="definitief gestopt met medicatie"/>
                  </coding>
               </valueCodeableConcept>
            </modifierExtension>
            <identifier>
               <system value="urn:oid:2.16.840.1.113883.2.4.3.11.999.77.422037009.1"/>
               <value value="MBH_200_stoppen_TA_staken"/>
            </identifier>
            <status value="unknown"/>
            <category>
               <coding>
                  <system value="http://snomed.info/sct"/>
                  <code value="422037009"/>
                  <display value="toedieningsafspraak"/>
               </coding>
            </category>
            <medicationReference>
               <reference value="urn:uuid:4fc68c84-7560-11ed-1921-020000000000"/>
               <type value="Medication"/>
               <display value="ASPIRINE PROTECT EC TABLET MSR 100MG"/>
            </medicationReference>
            <subject>
               <reference value="urn:uuid:4fc683f6-7560-11ed-1921-020000000000"/>
               <type value="Patient"/>
               <display value="Patient, J. de XXX_Luzac"/>
            </subject>
            <performer>
               <actor>
                  <reference value="urn:uuid:4fc687d4-7560-11ed-1921-020000000000"/>
                  <type value="Organization"/>
                  <display value="Healthcare provider (organization), Apotheek Jansen en Co"/>
               </actor>
            </performer>
            <authorizingPrescription>
               <type value="MedicationRequest"/>
               <identifier>
                  <system value="urn:oid:2.16.840.1.113883.2.4.3.11.999.77.16076005.1"/>
                  <value value="MBH_200_stoppen_MA_staken"/>
               </identifier>
               <display value="relatie naar medicatieafspraak met identificatie: MBH_200_stoppen_MA_staken || 2.16.840.1.113883.2.4.3.11.999.77.16076005.1"/>
            </authorizingPrescription>
            <dosageInstruction>
               <sequence value="1"/>
               <timing>
                  <repeat>
                     <frequency value="1"/>
                     <period value="1"/>
                     <periodUnit value="d"/>
                  </repeat>
               </timing>
               <route>
                  <coding>
                     <system value="urn:oid:2.16.840.1.113883.2.4.4.9"/>
                     <code value="9"/>
                     <display value="Oraal"/>
                  </coding>
               </route>
               <doseAndRate>
                  <doseQuantity>
                     <extension url="http://hl7.org/fhir/StructureDefinition/iso21090-PQ-translation">
                        <valueQuantity>
                           <value value="1"/>
                           <unit value="stuk"/>
                           <system value="urn:oid:2.16.840.1.113883.2.4.4.1.900.2"/>
                           <code value="245"/>
                        </valueQuantity>
                     </extension>
                     <value value="1"/>
                     <unit value="stuk"/>
                     <system value="http://unitsofmeasure.org"/>
                     <code value="1"/>
                  </doseQuantity>
               </doseAndRate>
            </dosageInstruction>
         </MedicationDispense>
      </resource>
      <search>
         <mode value="match"/>
      </search>
   </entry>
   <entry>
      <fullUrl value="urn:uuid:4fc68a4a-7560-11ed-1921-020000000000"/>
      <resource>
         <MedicationDispense>
            <id value="4fc682b1-7560-11ed-1921-020000000000"/>
            <meta>
               <profile value="http://nictiz.nl/fhir/StructureDefinition/mp-AdministrationAgreement"/>
            </meta>
            <extension url="http://nictiz.nl/fhir/StructureDefinition/ext-AdministrationAgreement.AdministrationAgreementDateTime">
               <valueDateTime value="2021-12-11T09:02:00+01:00"/>
            </extension>
            <extension url="http://nictiz.nl/fhir/StructureDefinition/ext-RenderedDosageInstruction">
               <valueString value="Vanaf 11 dec 2021, 1 maal per dag 1 stuk, Oraal"/>
            </extension>
            <extension url="http://nictiz.nl/fhir/StructureDefinition/ext-TimeInterval.Period">
               <valuePeriod>
                  <start value="2021-12-11T00:00:00+01:00"/>
               </valuePeriod>
            </extension>
            <extension url="http://nictiz.nl/fhir/StructureDefinition/ext-PharmaceuticalTreatment.Identifier">
               <valueIdentifier>
                  <system value="urn:oid:2.16.840.1.113883.2.4.3.11.999.77.1.1"/>
                  <value value="MBH_200_wijzigen_verhoging"/>
               </valueIdentifier>
            </extension>
            <identifier>
               <system value="urn:oid:2.16.840.1.113883.2.4.3.11.999.77.422037009.1"/>
               <value value="MBH_200_wijzigen_verhoging_TA_start"/>
            </identifier>
            <status value="unknown"/>
            <category>
               <coding>
                  <system value="http://snomed.info/sct"/>
                  <code value="422037009"/>
                  <display value="toedieningsafspraak"/>
               </coding>
            </category>
            <medicationReference>
               <reference value="urn:uuid:4fc68cc0-7560-11ed-1921-020000000000"/>
               <type value="Medication"/>
               <display value="FUROSEMIDE SANDOZ TABLET 40MG"/>
            </medicationReference>
            <subject>
               <reference value="urn:uuid:4fc683f6-7560-11ed-1921-020000000000"/>
               <type value="Patient"/>
               <display value="Patient, J. de XXX_Luzac"/>
            </subject>
            <performer>
               <actor>
                  <reference value="urn:uuid:4fc68798-7560-11ed-1921-020000000000"/>
                  <type value="Organization"/>
                  <display value="Healthcare provider (organization), Apotheek De Gulle Gaper"/>
               </actor>
            </performer>
            <authorizingPrescription>
               <type value="MedicationRequest"/>
               <identifier>
                  <system value="urn:oid:2.16.840.1.113883.2.4.3.11.999.77.16076005.1"/>
                  <value value="MBH_200_wijzigen_verhoging_MA_start"/>
               </identifier>
               <display value="relatie naar medicatieafspraak met identificatie: MBH_200_wijzigen_verhoging_MA_start || 2.16.840.1.113883.2.4.3.11.999.77.16076005.1"/>
            </authorizingPrescription>
            <dosageInstruction>
               <sequence value="1"/>
               <timing>
                  <repeat>
                     <frequency value="1"/>
                     <period value="1"/>
                     <periodUnit value="d"/>
                  </repeat>
               </timing>
               <route>
                  <coding>
                     <system value="urn:oid:2.16.840.1.113883.2.4.4.9"/>
                     <code value="9"/>
                     <display value="Oraal"/>
                  </coding>
               </route>
               <doseAndRate>
                  <doseQuantity>
                     <extension url="http://hl7.org/fhir/StructureDefinition/iso21090-PQ-translation">
                        <valueQuantity>
                           <value value="1"/>
                           <unit value="stuk"/>
                           <system value="urn:oid:2.16.840.1.113883.2.4.4.1.900.2"/>
                           <code value="245"/>
                        </valueQuantity>
                     </extension>
                     <value value="1"/>
                     <unit value="stuk"/>
                     <system value="http://unitsofmeasure.org"/>
                     <code value="1"/>
                  </doseQuantity>
               </doseAndRate>
            </dosageInstruction>
         </MedicationDispense>
      </resource>
      <search>
         <mode value="match"/>
      </search>
   </entry>
   <entry>
      <fullUrl value="urn:uuid:4fc68a68-7560-11ed-1921-020000000000"/>
      <resource>
         <MedicationDispense>
            <id value="4fc682cc-7560-11ed-1921-020000000000"/>
            <meta>
               <profile value="http://nictiz.nl/fhir/StructureDefinition/mp-AdministrationAgreement"/>
            </meta>
            <extension url="http://nictiz.nl/fhir/StructureDefinition/ext-AdministrationAgreement.AdministrationAgreementDateTime">
               <valueDateTime value="2021-12-30T09:02:00+01:00"/>
            </extension>
            <extension url="http://nictiz.nl/fhir/StructureDefinition/ext-RenderedDosageInstruction">
               <valueString value="Vanaf 30 dec 2021, 1 maal per dag 2 stuks, Oraal"/>
            </extension>
            <extension url="http://nictiz.nl/fhir/StructureDefinition/ext-TimeInterval.Period">
               <valuePeriod>
                  <start value="2021-12-30T00:00:00+01:00"/>
               </valuePeriod>
            </extension>
            <extension url="http://nictiz.nl/fhir/StructureDefinition/ext-PharmaceuticalTreatment.Identifier">
               <valueIdentifier>
                  <system value="urn:oid:2.16.840.1.113883.2.4.3.11.999.77.1.1"/>
                  <value value="MBH_200_wijzigen_verhoging"/>
               </valueIdentifier>
            </extension>
            <identifier>
               <system value="urn:oid:2.16.840.1.113883.2.4.3.11.999.77.422037009.1"/>
               <value value="MBH_200_wijzigen_verhoging_TA_wijzigingmetMVE"/>
            </identifier>
            <status value="unknown"/>
            <category>
               <coding>
                  <system value="http://snomed.info/sct"/>
                  <code value="422037009"/>
                  <display value="toedieningsafspraak"/>
               </coding>
            </category>
            <medicationReference>
               <reference value="urn:uuid:4fc68cc0-7560-11ed-1921-020000000000"/>
               <type value="Medication"/>
               <display value="FUROSEMIDE SANDOZ TABLET 40MG"/>
            </medicationReference>
            <subject>
               <reference value="urn:uuid:4fc683f6-7560-11ed-1921-020000000000"/>
               <type value="Patient"/>
               <display value="Patient, J. de XXX_Luzac"/>
            </subject>
            <performer>
               <actor>
                  <reference value="urn:uuid:4fc68798-7560-11ed-1921-020000000000"/>
                  <type value="Organization"/>
                  <display value="Healthcare provider (organization), Apotheek De Gulle Gaper"/>
               </actor>
            </performer>
            <authorizingPrescription>
               <type value="MedicationRequest"/>
               <identifier>
                  <system value="urn:oid:2.16.840.1.113883.2.4.3.11.999.77.16076005.1"/>
                  <value value="MBH_200_wijzigen_verhoging_MA_wijzigingmetVV"/>
               </identifier>
               <display value="relatie naar medicatieafspraak met identificatie: MBH_200_wijzigen_verhoging_MA_wijzigingmetVV || 2.16.840.1.113883.2.4.3.11.999.77.16076005.1"/>
            </authorizingPrescription>
            <dosageInstruction>
               <sequence value="1"/>
               <timing>
                  <repeat>
                     <frequency value="1"/>
                     <period value="1"/>
                     <periodUnit value="d"/>
                  </repeat>
               </timing>
               <route>
                  <coding>
                     <system value="urn:oid:2.16.840.1.113883.2.4.4.9"/>
                     <code value="9"/>
                     <display value="Oraal"/>
                  </coding>
               </route>
               <doseAndRate>
                  <doseQuantity>
                     <extension url="http://hl7.org/fhir/StructureDefinition/iso21090-PQ-translation">
                        <valueQuantity>
                           <value value="2"/>
                           <unit value="stuk"/>
                           <system value="urn:oid:2.16.840.1.113883.2.4.4.1.900.2"/>
                           <code value="245"/>
                        </valueQuantity>
                     </extension>
                     <value value="2"/>
                     <unit value="stuk"/>
                     <system value="http://unitsofmeasure.org"/>
                     <code value="1"/>
                  </doseQuantity>
               </doseAndRate>
            </dosageInstruction>
         </MedicationDispense>
      </resource>
      <search>
         <mode value="match"/>
      </search>
   </entry>
   <entry>
      <fullUrl value="urn:uuid:4fc68a86-7560-11ed-1921-020000000000"/>
      <resource>
         <MedicationDispense>
            <id value="4fc682e7-7560-11ed-1921-020000000000"/>
            <meta>
               <profile value="http://nictiz.nl/fhir/StructureDefinition/mp-AdministrationAgreement"/>
            </meta>
            <extension url="http://nictiz.nl/fhir/StructureDefinition/ext-AdministrationAgreement.AdministrationAgreementDateTime">
               <valueDateTime value="2021-12-30T09:02:00+01:00"/>
            </extension>
            <extension url="http://nictiz.nl/fhir/StructureDefinition/ext-RenderedDosageInstruction">
               <valueString value="Vanaf 11 dec 2021, tot en met 29 dec 2021, 1 maal per dag 1 stuk, Oraal, definitief gestopt"/>
            </extension>
            <extension url="http://nictiz.nl/fhir/StructureDefinition/ext-TimeInterval.Period">
               <valuePeriod>
                  <start value="2021-12-11T00:00:00+01:00"/>
                  <end value="2021-12-29T23:59:59+01:00"/>
               </valuePeriod>
            </extension>
            <extension url="http://nictiz.nl/fhir/StructureDefinition/ext-PharmaceuticalTreatment.Identifier">
               <valueIdentifier>
                  <system value="urn:oid:2.16.840.1.113883.2.4.3.11.999.77.1.1"/>
                  <value value="MBH_200_wijzigen_verhoging"/>
               </valueIdentifier>
            </extension>
            <modifierExtension url="http://nictiz.nl/fhir/StructureDefinition/ext-StopType">
               <valueCodeableConcept>
                  <coding>
                     <system value="http://snomed.info/sct"/>
                     <code value="113371000146109"/>
                     <display value="definitief gestopt met medicatie"/>
                  </coding>
               </valueCodeableConcept>
            </modifierExtension>
            <identifier>
               <system value="urn:oid:2.16.840.1.113883.2.4.3.11.999.77.422037009.1"/>
               <value value="MBH_200_wijzigen_verhoging_TA_techstaken"/>
            </identifier>
            <status value="unknown"/>
            <category>
               <coding>
                  <system value="http://snomed.info/sct"/>
                  <code value="422037009"/>
                  <display value="toedieningsafspraak"/>
               </coding>
            </category>
            <medicationReference>
               <reference value="urn:uuid:4fc68cc0-7560-11ed-1921-020000000000"/>
               <type value="Medication"/>
               <display value="FUROSEMIDE SANDOZ TABLET 40MG"/>
            </medicationReference>
            <subject>
               <reference value="urn:uuid:4fc683f6-7560-11ed-1921-020000000000"/>
               <type value="Patient"/>
               <display value="Patient, J. de XXX_Luzac"/>
            </subject>
            <performer>
               <actor>
                  <reference value="urn:uuid:4fc687d4-7560-11ed-1921-020000000000"/>
                  <type value="Organization"/>
                  <display value="Healthcare provider (organization), Apotheek Jansen en Co"/>
               </actor>
            </performer>
            <authorizingPrescription>
               <type value="MedicationRequest"/>
               <identifier>
                  <system value="urn:oid:2.16.840.1.113883.2.4.3.11.999.77.16076005.1"/>
                  <value value="MBH_200_wijzigen_verhoging_MA_techstaken"/>
               </identifier>
               <display value="relatie naar medicatieafspraak met identificatie: MBH_200_wijzigen_verhoging_MA_techstaken || 2.16.840.1.113883.2.4.3.11.999.77.16076005.1"/>
            </authorizingPrescription>
            <dosageInstruction>
               <sequence value="1"/>
               <timing>
                  <repeat>
                     <frequency value="1"/>
                     <period value="1"/>
                     <periodUnit value="d"/>
                  </repeat>
               </timing>
               <route>
                  <coding>
                     <system value="urn:oid:2.16.840.1.113883.2.4.4.9"/>
                     <code value="9"/>
                     <display value="Oraal"/>
                  </coding>
               </route>
               <doseAndRate>
                  <doseQuantity>
                     <extension url="http://hl7.org/fhir/StructureDefinition/iso21090-PQ-translation">
                        <valueQuantity>
                           <value value="1"/>
                           <unit value="stuk"/>
                           <system value="urn:oid:2.16.840.1.113883.2.4.4.1.900.2"/>
                           <code value="245"/>
                        </valueQuantity>
                     </extension>
                     <value value="1"/>
                     <unit value="stuk"/>
                     <system value="http://unitsofmeasure.org"/>
                     <code value="1"/>
                  </doseQuantity>
               </doseAndRate>
            </dosageInstruction>
         </MedicationDispense>
      </resource>
      <search>
         <mode value="match"/>
      </search>
   </entry>
   <entry>
      <fullUrl value="urn:uuid:4fc68aa4-7560-11ed-1921-020000000000"/>
      <resource>
         <MedicationDispense>
            <id value="4fc6837c-7560-11ed-1921-020000000000"/>
            <meta>
               <profile value="http://nictiz.nl/fhir/StructureDefinition/mp-AdministrationAgreement"/>
            </meta>
            <extension url="http://nictiz.nl/fhir/StructureDefinition/ext-AdministrationAgreement.AdministrationAgreementDateTime">
               <valueDateTime value="2021-12-19T09:05:00+01:00"/>
            </extension>
            <extension url="http://nictiz.nl/fhir/StructureDefinition/ext-RenderedDosageInstruction">
               <valueString value="Vanaf 19 dec 2021, tot en met 15 jan 2022, 1 maal per week 1 stuk, Oraal"/>
            </extension>
            <extension url="http://nictiz.nl/fhir/StructureDefinition/ext-TimeInterval.Period">
               <valuePeriod>
                  <start value="2021-12-19T00:00:00+01:00"/>
                  <end value="2022-01-15T23:59:59+01:00"/>
               </valuePeriod>
            </extension>
            <extension url="http://nictiz.nl/fhir/StructureDefinition/ext-PharmaceuticalTreatment.Identifier">
               <valueIdentifier>
                  <system value="urn:oid:2.16.840.1.113883.2.4.3.11.999.77.1.1"/>
                  <value value="MBH_200_wijzigen_verlaging"/>
               </valueIdentifier>
            </extension>
            <identifier>
               <system value="urn:oid:2.16.840.1.113883.2.4.3.11.999.77.422037009.1"/>
               <value value="MBH_200_wijzigen_verlaging_TA_start"/>
            </identifier>
            <status value="unknown"/>
            <category>
               <coding>
                  <system value="http://snomed.info/sct"/>
                  <code value="422037009"/>
                  <display value="toedieningsafspraak"/>
               </coding>
            </category>
            <medicationReference>
               <reference value="urn:uuid:4fc68cfc-7560-11ed-1921-020000000000"/>
               <type value="Medication"/>
               <display value="FERROFUMARAAT TEVA TABLET 200MG"/>
            </medicationReference>
            <subject>
               <reference value="urn:uuid:4fc683f6-7560-11ed-1921-020000000000"/>
               <type value="Patient"/>
               <display value="Patient, J. de XXX_Luzac"/>
            </subject>
            <performer>
               <actor>
                  <reference value="urn:uuid:4fc68798-7560-11ed-1921-020000000000"/>
                  <type value="Organization"/>
                  <display value="Healthcare provider (organization), Apotheek De Gulle Gaper"/>
               </actor>
            </performer>
            <authorizingPrescription>
               <type value="MedicationRequest"/>
               <identifier>
                  <system value="urn:oid:2.16.840.1.113883.2.4.3.11.999.77.16076005.1"/>
                  <value value="MBH_200_wijzigen_verlaging_MA_start"/>
               </identifier>
               <display value="relatie naar medicatieafspraak met identificatie: MBH_200_wijzigen_verlaging_MA_start || 2.16.840.1.113883.2.4.3.11.999.77.16076005.1"/>
            </authorizingPrescription>
            <dosageInstruction>
               <sequence value="1"/>
               <timing>
                  <repeat>
                     <frequency value="1"/>
                     <period value="1"/>
                     <periodUnit value="wk"/>
                  </repeat>
               </timing>
               <route>
                  <coding>
                     <system value="urn:oid:2.16.840.1.113883.2.4.4.9"/>
                     <code value="9"/>
                     <display value="Oraal"/>
                  </coding>
               </route>
               <doseAndRate>
                  <doseQuantity>
                     <extension url="http://hl7.org/fhir/StructureDefinition/iso21090-PQ-translation">
                        <valueQuantity>
                           <value value="1"/>
                           <unit value="stuk"/>
                           <system value="urn:oid:2.16.840.1.113883.2.4.4.1.900.2"/>
                           <code value="245"/>
                        </valueQuantity>
                     </extension>
                     <value value="1"/>
                     <unit value="stuk"/>
                     <system value="http://unitsofmeasure.org"/>
                     <code value="1"/>
                  </doseQuantity>
               </doseAndRate>
            </dosageInstruction>
         </MedicationDispense>
      </resource>
      <search>
         <mode value="match"/>
      </search>
   </entry>
   <entry>
      <fullUrl value="urn:uuid:4fc68ac2-7560-11ed-1921-020000000000"/>
      <resource>
         <MedicationDispense>
            <id value="4fc68397-7560-11ed-1921-020000000000"/>
            <meta>
               <profile value="http://nictiz.nl/fhir/StructureDefinition/mp-AdministrationAgreement"/>
            </meta>
            <extension url="http://nictiz.nl/fhir/StructureDefinition/ext-AdministrationAgreement.AdministrationAgreementDateTime">
               <valueDateTime value="2021-12-31T09:10:00+01:00"/>
            </extension>
            <extension url="http://nictiz.nl/fhir/StructureDefinition/ext-RenderedDosageInstruction">
               <valueString value="Vanaf 31 dec 2021, tot en met 15 jan 2022, 1 maal per week 1 stuk, Oraal"/>
            </extension>
            <extension url="http://nictiz.nl/fhir/StructureDefinition/ext-TimeInterval.Period">
               <valuePeriod>
                  <start value="2021-12-31T00:00:00+01:00"/>
                  <end value="2022-01-15T23:59:59+01:00"/>
               </valuePeriod>
            </extension>
            <extension url="http://nictiz.nl/fhir/StructureDefinition/ext-PharmaceuticalTreatment.Identifier">
               <valueIdentifier>
                  <system value="urn:oid:2.16.840.1.113883.2.4.3.11.999.77.1.1"/>
                  <value value="MBH_200_wijzigen_verlaging"/>
               </valueIdentifier>
            </extension>
            <identifier>
               <system value="urn:oid:2.16.840.1.113883.2.4.3.11.999.77.422037009.1"/>
               <value value="MBH_200_wijzigen_verlaging_TA_wijzigingzonderMVE"/>
            </identifier>
            <status value="unknown"/>
            <category>
               <coding>
                  <system value="http://snomed.info/sct"/>
                  <code value="422037009"/>
                  <display value="toedieningsafspraak"/>
               </coding>
            </category>
            <medicationReference>
               <reference value="urn:uuid:4fc68cfc-7560-11ed-1921-020000000000"/>
               <type value="Medication"/>
               <display value="FERROFUMARAAT TEVA TABLET 200MG"/>
            </medicationReference>
            <subject>
               <reference value="urn:uuid:4fc683f6-7560-11ed-1921-020000000000"/>
               <type value="Patient"/>
               <display value="Patient, J. de XXX_Luzac"/>
            </subject>
            <performer>
               <actor>
                  <reference value="urn:uuid:4fc687d4-7560-11ed-1921-020000000000"/>
                  <type value="Organization"/>
                  <display value="Healthcare provider (organization), Apotheek Jansen en Co"/>
               </actor>
            </performer>
            <authorizingPrescription>
               <type value="MedicationRequest"/>
               <identifier>
                  <system value="urn:oid:2.16.840.1.113883.2.4.3.11.999.77.16076005.1"/>
                  <value value="MBH_200_wijzigen_verlaging_MA_wijzigingzonderVV"/>
               </identifier>
               <display value="relatie naar medicatieafspraak met identificatie: MBH_200_wijzigen_verlaging_MA_wijzigingzonderVV || 2.16.840.1.113883.2.4.3.11.999.77.16076005.1"/>
            </authorizingPrescription>
            <dosageInstruction>
               <sequence value="1"/>
               <timing>
                  <repeat>
                     <frequency value="1"/>
                     <period value="1"/>
                     <periodUnit value="wk"/>
                  </repeat>
               </timing>
               <route>
                  <coding>
                     <system value="urn:oid:2.16.840.1.113883.2.4.4.9"/>
                     <code value="9"/>
                     <display value="Oraal"/>
                  </coding>
               </route>
               <doseAndRate>
                  <doseQuantity>
                     <extension url="http://hl7.org/fhir/StructureDefinition/iso21090-PQ-translation">
                        <valueQuantity>
                           <value value="1"/>
                           <unit value="stuk"/>
                           <system value="urn:oid:2.16.840.1.113883.2.4.4.1.900.2"/>
                           <code value="245"/>
                        </valueQuantity>
                     </extension>
                     <value value="1"/>
                     <unit value="stuk"/>
                     <system value="http://unitsofmeasure.org"/>
                     <code value="1"/>
                  </doseQuantity>
               </doseAndRate>
            </dosageInstruction>
         </MedicationDispense>
      </resource>
      <search>
         <mode value="match"/>
      </search>
   </entry>
   <entry>
      <fullUrl value="urn:uuid:4fc68ae0-7560-11ed-1921-020000000000"/>
      <resource>
         <MedicationDispense>
            <id value="4fc683b2-7560-11ed-1921-020000000000"/>
            <meta>
               <profile value="http://nictiz.nl/fhir/StructureDefinition/mp-AdministrationAgreement"/>
            </meta>
            <extension url="http://nictiz.nl/fhir/StructureDefinition/ext-AdministrationAgreement.AdministrationAgreementDateTime">
               <valueDateTime value="2021-12-31T09:10:00+01:00"/>
            </extension>
            <extension url="http://nictiz.nl/fhir/StructureDefinition/ext-RenderedDosageInstruction">
               <valueString value="Vanaf 19 dec 2021, tot en met 30 dec 2021, 2 maal per week 1 stuk, Oraal, definitief gestopt"/>
            </extension>
            <extension url="http://nictiz.nl/fhir/StructureDefinition/ext-TimeInterval.Period">
               <valuePeriod>
                  <start value="2021-12-19T00:00:00+01:00"/>
                  <end value="2021-12-30T23:59:59+01:00"/>
               </valuePeriod>
            </extension>
            <extension url="http://nictiz.nl/fhir/StructureDefinition/ext-PharmaceuticalTreatment.Identifier">
               <valueIdentifier>
                  <system value="urn:oid:2.16.840.1.113883.2.4.3.11.999.77.1.1"/>
                  <value value="MBH_200_wijzigen_verlaging"/>
               </valueIdentifier>
            </extension>
            <modifierExtension url="http://nictiz.nl/fhir/StructureDefinition/ext-StopType">
               <valueCodeableConcept>
                  <coding>
                     <system value="http://snomed.info/sct"/>
                     <code value="113371000146109"/>
                     <display value="definitief gestopt met medicatie"/>
                  </coding>
               </valueCodeableConcept>
            </modifierExtension>
            <identifier>
               <system value="urn:oid:2.16.840.1.113883.2.4.3.11.999.77.422037009.1"/>
               <value value="MBH_200_wijzigen_verlaging_TA_techstaken"/>
            </identifier>
            <status value="unknown"/>
            <category>
               <coding>
                  <system value="http://snomed.info/sct"/>
                  <code value="422037009"/>
                  <display value="toedieningsafspraak"/>
               </coding>
            </category>
            <medicationReference>
               <reference value="urn:uuid:4fc68cfc-7560-11ed-1921-020000000000"/>
               <type value="Medication"/>
               <display value="FERROFUMARAAT TEVA TABLET 200MG"/>
            </medicationReference>
            <subject>
               <reference value="urn:uuid:4fc683f6-7560-11ed-1921-020000000000"/>
               <type value="Patient"/>
               <display value="Patient, J. de XXX_Luzac"/>
            </subject>
            <performer>
               <actor>
                  <reference value="urn:uuid:4fc687d4-7560-11ed-1921-020000000000"/>
                  <type value="Organization"/>
                  <display value="Healthcare provider (organization), Apotheek Jansen en Co"/>
               </actor>
            </performer>
            <authorizingPrescription>
               <type value="MedicationRequest"/>
               <identifier>
                  <system value="urn:oid:2.16.840.1.113883.2.4.3.11.999.77.16076005.1"/>
                  <value value="MBH_200_wijzigen_verlaging_MA_techstaken"/>
               </identifier>
               <display value="relatie naar medicatieafspraak met identificatie: MBH_200_wijzigen_verlaging_MA_techstaken || 2.16.840.1.113883.2.4.3.11.999.77.16076005.1"/>
            </authorizingPrescription>
            <dosageInstruction>
               <sequence value="1"/>
               <timing>
                  <repeat>
                     <frequency value="2"/>
                     <period value="1"/>
                     <periodUnit value="wk"/>
                  </repeat>
               </timing>
               <route>
                  <coding>
                     <system value="urn:oid:2.16.840.1.113883.2.4.4.9"/>
                     <code value="9"/>
                     <display value="Oraal"/>
                  </coding>
               </route>
               <doseAndRate>
                  <doseQuantity>
                     <extension url="http://hl7.org/fhir/StructureDefinition/iso21090-PQ-translation">
                        <valueQuantity>
                           <value value="1"/>
                           <unit value="stuk"/>
                           <system value="urn:oid:2.16.840.1.113883.2.4.4.1.900.2"/>
                           <code value="245"/>
                        </valueQuantity>
                     </extension>
                     <value value="1"/>
                     <unit value="stuk"/>
                     <system value="http://unitsofmeasure.org"/>
                     <code value="1"/>
                  </doseQuantity>
               </doseAndRate>
            </dosageInstruction>
         </MedicationDispense>
      </resource>
      <search>
         <mode value="match"/>
      </search>
   </entry>
   <entry>
      <fullUrl value="urn:uuid:4fc68afe-7560-11ed-1921-020000000000"/>
      <resource>
         <MedicationDispense>
            <id value="216840111388324311999774220370091-MBH200onderbrekenTAstart"/>
            <meta>
               <profile value="http://nictiz.nl/fhir/StructureDefinition/mp-AdministrationAgreement"/>
            </meta>
            <extension url="http://nictiz.nl/fhir/StructureDefinition/ext-AdministrationAgreement.AdministrationAgreementDateTime">
               <valueDateTime value="2021-12-27T09:06:00+01:00"/>
            </extension>
            <extension url="http://nictiz.nl/fhir/StructureDefinition/ext-RenderedDosageInstruction">
               <valueString value="Vanaf 28 dec 2021, tot en met 6 jan 2022, 3 maal per dag 1 stuk, Oraal"/>
            </extension>
            <extension url="http://nictiz.nl/fhir/StructureDefinition/ext-TimeInterval.Period">
               <valuePeriod>
                  <start value="2021-12-28T00:00:00+01:00"/>
                  <end value="2022-01-06T23:59:59+01:00"/>
               </valuePeriod>
            </extension>
            <extension url="http://nictiz.nl/fhir/StructureDefinition/ext-PharmaceuticalTreatment.Identifier">
               <valueIdentifier>
                  <system value="urn:oid:2.16.840.1.113883.2.4.3.11.999.77.1.1"/>
                  <value value="MBH_200_onderbreken"/>
               </valueIdentifier>
            </extension>
            <identifier>
               <system value="urn:oid:2.16.840.1.113883.2.4.3.11.999.77.422037009.1"/>
               <value value="MBH_200_onderbreken_TA_start"/>
            </identifier>
            <status value="unknown"/>
            <category>
               <coding>
                  <system value="http://snomed.info/sct"/>
                  <code value="422037009"/>
                  <display value="toedieningsafspraak"/>
               </coding>
            </category>
            <medicationReference>
               <reference value="urn:uuid:4fc68d38-7560-11ed-1921-020000000000"/>
               <type value="Medication"/>
               <display value="BROXIL CAPSULE 500MG"/>
            </medicationReference>
            <subject>
               <reference value="urn:uuid:4fc683f6-7560-11ed-1921-020000000000"/>
               <type value="Patient"/>
               <display value="Patient, J. de XXX_Luzac"/>
            </subject>
            <performer>
               <actor>
                  <reference value="urn:uuid:4fc68798-7560-11ed-1921-020000000000"/>
                  <type value="Organization"/>
                  <display value="Healthcare provider (organization), Apotheek De Gulle Gaper"/>
               </actor>
            </performer>
            <authorizingPrescription>
               <type value="MedicationRequest"/>
               <identifier>
                  <system value="urn:oid:2.16.840.1.113883.2.4.3.11.999.77.16076005.1"/>
                  <value value="MBH_200_onderbreken_MA_start"/>
               </identifier>
               <display value="relatie naar medicatieafspraak met identificatie: MBH_200_onderbreken_MA_start || 2.16.840.1.113883.2.4.3.11.999.77.16076005.1"/>
            </authorizingPrescription>
            <dosageInstruction>
               <sequence value="1"/>
               <timing>
                  <repeat>
                     <frequency value="3"/>
                     <period value="1"/>
                     <periodUnit value="d"/>
                  </repeat>
               </timing>
               <route>
                  <coding>
                     <system value="urn:oid:2.16.840.1.113883.2.4.4.9"/>
                     <code value="9"/>
                     <display value="Oraal"/>
                  </coding>
               </route>
               <doseAndRate>
                  <doseQuantity>
                     <extension url="http://hl7.org/fhir/StructureDefinition/iso21090-PQ-translation">
                        <valueQuantity>
                           <value value="1"/>
                           <unit value="stuk"/>
                           <system value="urn:oid:2.16.840.1.113883.2.4.4.1.900.2"/>
                           <code value="245"/>
                        </valueQuantity>
                     </extension>
                     <value value="1"/>
                     <unit value="stuk"/>
                     <system value="http://unitsofmeasure.org"/>
                     <code value="1"/>
                  </doseQuantity>
               </doseAndRate>
            </dosageInstruction>
         </MedicationDispense>
      </resource>
      <search>
         <mode value="match"/>
      </search>
   </entry>
   <entry>
      <fullUrl value="urn:uuid:4fc68b1c-7560-11ed-1921-020000000000"/>
      <resource>
         <MedicationDispense>
            <id value="4fc6843b-7560-11ed-1921-020000000000"/>
            <meta>
               <profile value="http://nictiz.nl/fhir/StructureDefinition/mp-AdministrationAgreement"/>
            </meta>
            <extension url="http://nictiz.nl/fhir/StructureDefinition/ext-AdministrationAgreement.AdministrationAgreementDateTime">
               <valueDateTime value="2021-12-31T19:12:00+01:00"/>
            </extension>
            <extension url="http://nictiz.nl/fhir/StructureDefinition/ext-RenderedDosageInstruction">
               <valueString value="Vanaf 28 dec 2021, tot en met 31 dec 2021, 3 maal per dag 1 stuk, Oraal, tijdelijk gestopt"/>
            </extension>
            <extension url="http://nictiz.nl/fhir/StructureDefinition/ext-TimeInterval.Period">
               <valuePeriod>
                  <start value="2021-12-28T00:00:00+01:00"/>
                  <end value="2021-12-31T23:59:59+01:00"/>
               </valuePeriod>
            </extension>
            <extension url="http://nictiz.nl/fhir/StructureDefinition/ext-PharmaceuticalTreatment.Identifier">
               <valueIdentifier>
                  <system value="urn:oid:2.16.840.1.113883.2.4.3.11.999.77.1.1"/>
                  <value value="MBH_200_onderbreken"/>
               </valueIdentifier>
            </extension>
            <modifierExtension url="http://nictiz.nl/fhir/StructureDefinition/ext-StopType">
               <valueCodeableConcept>
                  <coding>
                     <system value="http://snomed.info/sct"/>
                     <code value="113381000146106"/>
                     <display value="tijdelijk gestopt met medicatie"/>
                  </coding>
               </valueCodeableConcept>
            </modifierExtension>
            <identifier>
               <system value="urn:oid:2.16.840.1.113883.2.4.3.11.999.77.422037009.1"/>
               <value value="MBH_200_onderbreken_TA_onderbreken"/>
            </identifier>
            <status value="unknown"/>
            <category>
               <coding>
                  <system value="http://snomed.info/sct"/>
                  <code value="422037009"/>
                  <display value="toedieningsafspraak"/>
               </coding>
            </category>
            <medicationReference>
               <reference value="urn:uuid:4fc68d38-7560-11ed-1921-020000000000"/>
               <type value="Medication"/>
               <display value="BROXIL CAPSULE 500MG"/>
            </medicationReference>
            <subject>
               <reference value="urn:uuid:4fc683f6-7560-11ed-1921-020000000000"/>
               <type value="Patient"/>
               <display value="Patient, J. de XXX_Luzac"/>
            </subject>
            <performer>
               <actor>
                  <reference value="urn:uuid:4fc687d4-7560-11ed-1921-020000000000"/>
                  <type value="Organization"/>
                  <display value="Healthcare provider (organization), Apotheek Jansen en Co"/>
               </actor>
            </performer>
            <authorizingPrescription>
               <type value="MedicationRequest"/>
               <identifier>
                  <system value="urn:oid:2.16.840.1.113883.2.4.3.11.999.77.16076005.1"/>
                  <value value="MBH_200_onderbreken_MA_onderbreken"/>
               </identifier>
               <display value="relatie naar medicatieafspraak met identificatie: MBH_200_onderbreken_MA_onderbreken || 2.16.840.1.113883.2.4.3.11.999.77.16076005.1"/>
            </authorizingPrescription>
            <dosageInstruction>
               <sequence value="1"/>
               <timing>
                  <repeat>
                     <frequency value="3"/>
                     <period value="1"/>
                     <periodUnit value="d"/>
                  </repeat>
               </timing>
               <route>
                  <coding>
                     <system value="urn:oid:2.16.840.1.113883.2.4.4.9"/>
                     <code value="9"/>
                     <display value="Oraal"/>
                  </coding>
               </route>
               <doseAndRate>
                  <doseQuantity>
                     <extension url="http://hl7.org/fhir/StructureDefinition/iso21090-PQ-translation">
                        <valueQuantity>
                           <value value="1"/>
                           <unit value="stuk"/>
                           <system value="urn:oid:2.16.840.1.113883.2.4.4.1.900.2"/>
                           <code value="245"/>
                        </valueQuantity>
                     </extension>
                     <value value="1"/>
                     <unit value="stuk"/>
                     <system value="http://unitsofmeasure.org"/>
                     <code value="1"/>
                  </doseQuantity>
               </doseAndRate>
            </dosageInstruction>
         </MedicationDispense>
      </resource>
      <search>
         <mode value="match"/>
      </search>
   </entry>
   <entry>
      <fullUrl value="urn:uuid:4fc68b3a-7560-11ed-1921-020000000000"/>
      <resource>
         <MedicationDispense>
            <id value="216840111388324311999774220370091-MBH200TAwijzigenTAstart"/>
            <meta>
               <profile value="http://nictiz.nl/fhir/StructureDefinition/mp-AdministrationAgreement"/>
            </meta>
            <extension url="http://nictiz.nl/fhir/StructureDefinition/ext-AdministrationAgreement.AdministrationAgreementDateTime">
               <valueDateTime value="2021-11-02T12:30:00+01:00"/>
            </extension>
            <extension url="http://nictiz.nl/fhir/StructureDefinition/ext-RenderedDosageInstruction">
               <valueString value="Vanaf 2 nov 2021, gedurende 28 dagen, 1 maal per dag 1 stuk, oraal"/>
            </extension>
            <extension url="http://nictiz.nl/fhir/StructureDefinition/ext-TimeInterval.Period">
               <valuePeriod>
                  <extension url="http://nictiz.nl/fhir/StructureDefinition/ext-TimeInterval.Duration">
                     <valueDuration>
                        <value value="28"/>
                        <unit value="dag"/>
                        <system value="http://unitsofmeasure.org"/>
                        <code value="d"/>
                     </valueDuration>
                  </extension>
                  <start value="2021-11-02T00:00:00+01:00"/>
               </valuePeriod>
            </extension>
            <extension url="http://nictiz.nl/fhir/StructureDefinition/ext-PharmaceuticalTreatment.Identifier">
               <valueIdentifier>
                  <system value="urn:oid:2.16.840.1.113883.2.4.3.11.999.77.1.1"/>
                  <value value="MBH_200_TAwijzigen"/>
               </valueIdentifier>
            </extension>
            <identifier>
               <system value="urn:oid:2.16.840.1.113883.2.4.3.11.999.77.422037009.1"/>
               <value value="MBH_200_TAwijzigen_TA_start"/>
            </identifier>
            <status value="unknown"/>
            <category>
               <coding>
                  <system value="http://snomed.info/sct"/>
                  <code value="422037009"/>
                  <display value="toedieningsafspraak"/>
               </coding>
            </category>
            <medicationReference>
               <reference value="urn:uuid:4fc68d74-7560-11ed-1921-020000000000"/>
               <type value="Medication"/>
               <display value="PANTOZOL TABLET MSR 40MG"/>
            </medicationReference>
            <subject>
               <reference value="urn:uuid:4fc683f6-7560-11ed-1921-020000000000"/>
               <type value="Patient"/>
               <display value="Patient, J. de XXX_Luzac"/>
            </subject>
            <performer>
               <actor>
                  <reference value="urn:uuid:4fc68798-7560-11ed-1921-020000000000"/>
                  <type value="Organization"/>
                  <display value="Healthcare provider (organization), Apotheek De Gulle Gaper"/>
               </actor>
            </performer>
            <authorizingPrescription>
               <type value="MedicationRequest"/>
               <identifier>
                  <system value="urn:oid:2.16.840.1.113883.2.4.3.11.999.77.16076005.1"/>
                  <value value="MBH_200_TAwijzigen_MA"/>
               </identifier>
               <display value="relatie naar medicatieafspraak met identificatie: MBH_200_TAwijzigen_MA || 2.16.840.1.113883.2.4.3.11.999.77.16076005.1"/>
            </authorizingPrescription>
            <dosageInstruction>
               <sequence value="1"/>
               <timing>
                  <repeat>
                     <frequency value="1"/>
                     <period value="1"/>
                     <periodUnit value="d"/>
                  </repeat>
               </timing>
               <route>
                  <coding>
                     <system value="urn:oid:2.16.840.1.113883.2.4.4.9"/>
                     <code value="9"/>
                     <display value="oraal"/>
                  </coding>
               </route>
               <doseAndRate>
                  <doseQuantity>
                     <extension url="http://hl7.org/fhir/StructureDefinition/iso21090-PQ-translation">
                        <valueQuantity>
                           <value value="1"/>
                           <unit value="stuk"/>
                           <system value="urn:oid:2.16.840.1.113883.2.4.4.1.900.2"/>
                           <code value="245"/>
                        </valueQuantity>
                     </extension>
                     <value value="1"/>
                     <unit value="stuk"/>
                     <system value="http://unitsofmeasure.org"/>
                     <code value="1"/>
                  </doseQuantity>
               </doseAndRate>
            </dosageInstruction>
         </MedicationDispense>
      </resource>
      <search>
         <mode value="match"/>
      </search>
   </entry>
   <entry>
      <fullUrl value="urn:uuid:4fc68b58-7560-11ed-1921-020000000000"/>
      <resource>
         <MedicationDispense>
            <id value="216840111388324311999774220370091-MBH200TAwijzigenTAtechstaken"/>
            <meta>
               <profile value="http://nictiz.nl/fhir/StructureDefinition/mp-AdministrationAgreement"/>
            </meta>
            <extension url="http://nictiz.nl/fhir/StructureDefinition/ext-AdministrationAgreement.AdministrationAgreementDateTime">
               <valueDateTime value="2021-11-12T12:30:00+01:00"/>
            </extension>
            <extension url="http://nictiz.nl/fhir/StructureDefinition/ext-RenderedDosageInstruction">
               <valueString value="Vanaf 2 nov 2021, tot en met 11 nov 2021, 1 maal per dag 1 stuk, Oraal, definitief gestopt"/>
            </extension>
            <extension url="http://nictiz.nl/fhir/StructureDefinition/ext-TimeInterval.Period">
               <valuePeriod>
                  <start value="2021-11-02T00:00:00+01:00"/>
                  <end value="2021-11-11T23:59:59+01:00"/>
               </valuePeriod>
            </extension>
            <extension url="http://nictiz.nl/fhir/StructureDefinition/ext-PharmaceuticalTreatment.Identifier">
               <valueIdentifier>
                  <system value="urn:oid:2.16.840.1.113883.2.4.3.11.999.77.1.1"/>
                  <value value="MBH_200_TAwijzigen"/>
               </valueIdentifier>
            </extension>
            <modifierExtension url="http://nictiz.nl/fhir/StructureDefinition/ext-StopType">
               <valueCodeableConcept>
                  <coding>
                     <system value="http://snomed.info/sct"/>
                     <code value="113371000146109"/>
                     <display value="definitief gestopt met medicatie"/>
                  </coding>
               </valueCodeableConcept>
            </modifierExtension>
            <identifier>
               <system value="urn:oid:2.16.840.1.113883.2.4.3.11.999.77.422037009.1"/>
               <value value="MBH_200_TAwijzigen_TA_techstaken"/>
            </identifier>
            <status value="unknown"/>
            <category>
               <coding>
                  <system value="http://snomed.info/sct"/>
                  <code value="422037009"/>
                  <display value="toedieningsafspraak"/>
               </coding>
            </category>
            <medicationReference>
               <reference value="urn:uuid:4fc68d74-7560-11ed-1921-020000000000"/>
               <type value="Medication"/>
               <display value="PANTOZOL TABLET MSR 40MG"/>
            </medicationReference>
            <subject>
               <reference value="urn:uuid:4fc683f6-7560-11ed-1921-020000000000"/>
               <type value="Patient"/>
               <display value="Patient, J. de XXX_Luzac"/>
            </subject>
            <performer>
               <actor>
                  <reference value="urn:uuid:4fc68798-7560-11ed-1921-020000000000"/>
                  <type value="Organization"/>
                  <display value="Healthcare provider (organization), Apotheek De Gulle Gaper"/>
               </actor>
            </performer>
            <authorizingPrescription>
               <type value="MedicationRequest"/>
               <identifier>
                  <system value="urn:oid:2.16.840.1.113883.2.4.3.11.999.77.16076005.1"/>
                  <value value="MBH_200_TAwijzigen_MA"/>
               </identifier>
               <display value="relatie naar medicatieafspraak met identificatie: MBH_200_TAwijzigen_MA || 2.16.840.1.113883.2.4.3.11.999.77.16076005.1"/>
            </authorizingPrescription>
            <dosageInstruction>
               <sequence value="1"/>
               <timing>
                  <repeat>
                     <frequency value="1"/>
                     <period value="1"/>
                     <periodUnit value="d"/>
                  </repeat>
               </timing>
               <route>
                  <coding>
                     <system value="urn:oid:2.16.840.1.113883.2.4.4.9"/>
                     <code value="9"/>
                     <display value="Oraal"/>
                  </coding>
               </route>
               <doseAndRate>
                  <doseQuantity>
                     <extension url="http://hl7.org/fhir/StructureDefinition/iso21090-PQ-translation">
                        <valueQuantity>
                           <value value="1"/>
                           <unit value="stuk"/>
                           <system value="urn:oid:2.16.840.1.113883.2.4.4.1.900.2"/>
                           <code value="245"/>
                        </valueQuantity>
                     </extension>
                     <value value="1"/>
                     <unit value="stuk"/>
                     <system value="http://unitsofmeasure.org"/>
                     <code value="1"/>
                  </doseQuantity>
               </doseAndRate>
            </dosageInstruction>
         </MedicationDispense>
      </resource>
      <search>
         <mode value="match"/>
      </search>
   </entry>
   <entry>
      <fullUrl value="urn:uuid:4fc68b76-7560-11ed-1921-020000000000"/>
      <resource>
         <MedicationDispense>
            <id value="216840111388324311999774220370091-MBH200TAwijzigenTAanderePRK"/>
            <meta>
               <profile value="http://nictiz.nl/fhir/StructureDefinition/mp-AdministrationAgreement"/>
            </meta>
            <extension url="http://nictiz.nl/fhir/StructureDefinition/ext-AdministrationAgreement.ReasonModificationOrDiscontinuation">
               <valueCodeableConcept>
                  <coding>
                     <system value="http://snomed.info/sct"/>
                     <code value="182856006"/>
                     <display value="geneesmiddel niet voorradig"/>
                  </coding>
               </valueCodeableConcept>
            </extension>
            <extension url="http://nictiz.nl/fhir/StructureDefinition/ext-AdministrationAgreement.AdministrationAgreementDateTime">
               <valueDateTime value="2021-11-12T12:35:00+01:00"/>
            </extension>
            <extension url="http://nictiz.nl/fhir/StructureDefinition/ext-RenderedDosageInstruction">
               <valueString value="Vanaf 12 nov 2021, gedurende 18 dagen, 2 maal per dag 1 stuk, oraal"/>
            </extension>
            <extension url="http://nictiz.nl/fhir/StructureDefinition/ext-TimeInterval.Period">
               <valuePeriod>
                  <extension url="http://nictiz.nl/fhir/StructureDefinition/ext-TimeInterval.Duration">
                     <valueDuration>
                        <value value="18"/>
                        <unit value="dag"/>
                        <system value="http://unitsofmeasure.org"/>
                        <code value="d"/>
                     </valueDuration>
                  </extension>
                  <start value="2021-11-12T00:00:00+01:00"/>
               </valuePeriod>
            </extension>
            <extension url="http://nictiz.nl/fhir/StructureDefinition/ext-PharmaceuticalTreatment.Identifier">
               <valueIdentifier>
                  <system value="urn:oid:2.16.840.1.113883.2.4.3.11.999.77.1.1"/>
                  <value value="MBH_200_TAwijzigen"/>
               </valueIdentifier>
            </extension>
            <identifier>
               <system value="urn:oid:2.16.840.1.113883.2.4.3.11.999.77.422037009.1"/>
               <value value="MBH_200_TAwijzigen_TA_anderePRK"/>
            </identifier>
            <status value="unknown"/>
            <category>
               <coding>
                  <system value="http://snomed.info/sct"/>
                  <code value="422037009"/>
                  <display value="toedieningsafspraak"/>
               </coding>
            </category>
            <medicationReference>
               <reference value="urn:uuid:4fc68d92-7560-11ed-1921-020000000000"/>
               <type value="Medication"/>
               <display value="PANTOPRAZOL TABLET MSR 20MG"/>
            </medicationReference>
            <subject>
               <reference value="urn:uuid:4fc683f6-7560-11ed-1921-020000000000"/>
               <type value="Patient"/>
               <display value="Patient, J. de XXX_Luzac"/>
            </subject>
            <performer>
               <actor>
                  <reference value="urn:uuid:4fc68798-7560-11ed-1921-020000000000"/>
                  <type value="Organization"/>
                  <display value="Healthcare provider (organization), Apotheek De Gulle Gaper"/>
               </actor>
            </performer>
            <authorizingPrescription>
               <type value="MedicationRequest"/>
               <identifier>
                  <system value="urn:oid:2.16.840.1.113883.2.4.3.11.999.77.16076005.1"/>
                  <value value="MBH_200_TAwijzigen_MA"/>
               </identifier>
               <display value="relatie naar medicatieafspraak met identificatie: MBH_200_TAwijzigen_MA || 2.16.840.1.113883.2.4.3.11.999.77.16076005.1"/>
            </authorizingPrescription>
            <dosageInstruction>
               <sequence value="1"/>
               <timing>
                  <repeat>
                     <frequency value="2"/>
                     <period value="1"/>
                     <periodUnit value="d"/>
                  </repeat>
               </timing>
               <route>
                  <coding>
                     <system value="urn:oid:2.16.840.1.113883.2.4.4.9"/>
                     <code value="9"/>
                     <display value="oraal"/>
                  </coding>
               </route>
               <doseAndRate>
                  <doseQuantity>
                     <extension url="http://hl7.org/fhir/StructureDefinition/iso21090-PQ-translation">
                        <valueQuantity>
                           <value value="1"/>
                           <unit value="stuk"/>
                           <system value="urn:oid:2.16.840.1.113883.2.4.4.1.900.2"/>
                           <code value="245"/>
                        </valueQuantity>
                     </extension>
                     <value value="1"/>
                     <unit value="stuk"/>
                     <system value="http://unitsofmeasure.org"/>
                     <code value="1"/>
                  </doseQuantity>
               </doseAndRate>
            </dosageInstruction>
         </MedicationDispense>
      </resource>
      <search>
         <mode value="match"/>
      </search>
   </entry>
   <entry>
      <fullUrl value="urn:uuid:4fc68b94-7560-11ed-1921-020000000000"/>
      <resource>
         <MedicationDispense>
            <id value="216840111388324311999773737840051-MBH200stoppenMVE"/>
            <meta>
               <profile value="http://nictiz.nl/fhir/StructureDefinition/mp-MedicationDispense"/>
            </meta>
            <extension url="http://nictiz.nl/fhir/StructureDefinition/ext-PharmaceuticalTreatment.Identifier">
               <valueIdentifier>
                  <system value="urn:oid:2.16.840.1.113883.2.4.3.11.999.77.1.1"/>
                  <value value="MBH_200_stoppen"/>
               </valueIdentifier>
            </extension>
            <identifier>
               <system value="urn:oid:2.16.840.1.113883.2.4.3.11.999.77.373784005.1"/>
               <value value="MBH_200_stoppen_MVE"/>
            </identifier>
            <status value="completed"/>
            <category>
               <coding>
                  <system value="http://snomed.info/sct"/>
                  <code value="373784005"/>
                  <display value="verstrekken van medicatie"/>
               </coding>
            </category>
            <medicationReference>
               <reference value="urn:uuid:4fc68c84-7560-11ed-1921-020000000000"/>
               <type value="Medication"/>
               <display value="ASPIRINE PROTECT EC TABLET MSR 100MG"/>
            </medicationReference>
            <subject>
               <reference value="urn:uuid:4fc683f6-7560-11ed-1921-020000000000"/>
               <type value="Patient"/>
               <display value="Patient, J. de XXX_Luzac"/>
            </subject>
            <performer>
               <actor>
                  <reference value="urn:uuid:4fc68798-7560-11ed-1921-020000000000"/>
                  <type value="Organization"/>
                  <display value="Healthcare provider (organization), Apotheek De Gulle Gaper"/>
               </actor>
            </performer>
            <authorizingPrescription>
               <type value="MedicationRequest"/>
               <identifier>
                  <system value="urn:oid:2.16.840.1.113883.2.4.3.11.999.77.52711000146108.1"/>
                  <value value="MBH_200_stoppen_VV"/>
               </identifier>
               <display value="relatie naar verstrekkingsverzoek met identificatie: MBH_200_stoppen_VV || 2.16.840.1.113883.2.4.3.11.999.77.52711000146108.1"/>
            </authorizingPrescription>
            <quantity>
               <extension url="http://hl7.org/fhir/StructureDefinition/iso21090-PQ-translation">
                  <valueQuantity>
                     <value value="180"/>
                     <unit value="stuk"/>
                     <system value="urn:oid:2.16.840.1.113883.2.4.4.1.900.2"/>
                     <code value="245"/>
                  </valueQuantity>
               </extension>
               <value value="180"/>
               <unit value="stuk"/>
               <system value="http://unitsofmeasure.org"/>
               <code value="1"/>
            </quantity>
            <whenHandedOver value="2021-09-01T09:00:00+02:00"/>
         </MedicationDispense>
      </resource>
      <search>
         <mode value="match"/>
      </search>
   </entry>
   <entry>
      <fullUrl value="urn:uuid:4fc68bb2-7560-11ed-1921-020000000000"/>
      <resource>
         <MedicationDispense>
            <id value="216840111388324311999773737840051-MBH200wijzigenverhogingMVE"/>
            <meta>
               <profile value="http://nictiz.nl/fhir/StructureDefinition/mp-MedicationDispense"/>
            </meta>
            <extension url="http://nictiz.nl/fhir/StructureDefinition/ext-PharmaceuticalTreatment.Identifier">
               <valueIdentifier>
                  <system value="urn:oid:2.16.840.1.113883.2.4.3.11.999.77.1.1"/>
                  <value value="MBH_200_wijzigen_verhoging"/>
               </valueIdentifier>
            </extension>
            <identifier>
               <system value="urn:oid:2.16.840.1.113883.2.4.3.11.999.77.373784005.1"/>
               <value value="MBH_200_wijzigen_verhoging_MVE"/>
            </identifier>
            <status value="completed"/>
            <category>
               <coding>
                  <system value="http://snomed.info/sct"/>
                  <code value="373784005"/>
                  <display value="verstrekken van medicatie"/>
               </coding>
            </category>
            <medicationReference>
               <reference value="urn:uuid:4fc68cc0-7560-11ed-1921-020000000000"/>
               <type value="Medication"/>
               <display value="FUROSEMIDE SANDOZ TABLET 40MG"/>
            </medicationReference>
            <subject>
               <reference value="urn:uuid:4fc683f6-7560-11ed-1921-020000000000"/>
               <type value="Patient"/>
               <display value="Patient, J. de XXX_Luzac"/>
            </subject>
            <performer>
               <actor>
                  <reference value="urn:uuid:4fc68798-7560-11ed-1921-020000000000"/>
                  <type value="Organization"/>
                  <display value="Healthcare provider (organization), Apotheek De Gulle Gaper"/>
               </actor>
            </performer>
            <authorizingPrescription>
               <type value="MedicationRequest"/>
               <identifier>
                  <system value="urn:oid:2.16.840.1.113883.2.4.3.11.999.77.52711000146108.1"/>
                  <value value="MBH_200_wijzigen_verhoging_VV"/>
               </identifier>
               <display value="relatie naar verstrekkingsverzoek met identificatie: MBH_200_wijzigen_verhoging_VV || 2.16.840.1.113883.2.4.3.11.999.77.52711000146108.1"/>
            </authorizingPrescription>
            <quantity>
               <extension url="http://hl7.org/fhir/StructureDefinition/iso21090-PQ-translation">
                  <valueQuantity>
                     <value value="30"/>
                     <unit value="stuk"/>
                     <system value="urn:oid:2.16.840.1.113883.2.4.4.1.900.2"/>
                     <code value="245"/>
                  </valueQuantity>
               </extension>
               <value value="30"/>
               <unit value="stuk"/>
               <system value="http://unitsofmeasure.org"/>
               <code value="1"/>
            </quantity>
            <whenHandedOver value="2021-12-11T09:02:00+01:00"/>
         </MedicationDispense>
      </resource>
      <search>
         <mode value="match"/>
      </search>
   </entry>
   <entry>
      <fullUrl value="urn:uuid:4fc68bd0-7560-11ed-1921-020000000000"/>
      <resource>
         <MedicationDispense>
            <id value="4fc6830f-7560-11ed-1921-020000000000"/>
            <meta>
               <profile value="http://nictiz.nl/fhir/StructureDefinition/mp-MedicationDispense"/>
            </meta>
            <extension url="http://nictiz.nl/fhir/StructureDefinition/ext-PharmaceuticalTreatment.Identifier">
               <valueIdentifier>
                  <system value="urn:oid:2.16.840.1.113883.2.4.3.11.999.77.1.1"/>
                  <value value="MBH_200_wijzigen_verhoging"/>
               </valueIdentifier>
            </extension>
            <identifier>
               <system value="urn:oid:2.16.840.1.113883.2.4.3.11.999.77.373784005.1"/>
               <value value="MBH_200_wijzigen_verhoging_MVE_extra"/>
            </identifier>
            <status value="completed"/>
            <category>
               <coding>
                  <system value="http://snomed.info/sct"/>
                  <code value="373784005"/>
                  <display value="verstrekken van medicatie"/>
               </coding>
            </category>
            <medicationReference>
               <reference value="urn:uuid:4fc68cc0-7560-11ed-1921-020000000000"/>
               <type value="Medication"/>
               <display value="FUROSEMIDE SANDOZ TABLET 40MG"/>
            </medicationReference>
            <subject>
               <reference value="urn:uuid:4fc683f6-7560-11ed-1921-020000000000"/>
               <type value="Patient"/>
               <display value="Patient, J. de XXX_Luzac"/>
            </subject>
            <performer>
               <actor>
                  <reference value="urn:uuid:4fc68798-7560-11ed-1921-020000000000"/>
                  <type value="Organization"/>
                  <display value="Healthcare provider (organization), Apotheek De Gulle Gaper"/>
               </actor>
            </performer>
            <authorizingPrescription>
               <type value="MedicationRequest"/>
               <identifier>
                  <system value="urn:oid:2.16.840.1.113883.2.4.3.11.999.77.52711000146108.1"/>
                  <value value="MBH_200_wijzigen_verhoging_VV_extra"/>
               </identifier>
               <display value="relatie naar verstrekkingsverzoek met identificatie: MBH_200_wijzigen_verhoging_VV_extra || 2.16.840.1.113883.2.4.3.11.999.77.52711000146108.1"/>
            </authorizingPrescription>
            <quantity>
               <extension url="http://hl7.org/fhir/StructureDefinition/iso21090-PQ-translation">
                  <valueQuantity>
                     <value value="60"/>
                     <unit value="stuk"/>
                     <system value="urn:oid:2.16.840.1.113883.2.4.4.1.900.2"/>
                     <code value="245"/>
                  </valueQuantity>
               </extension>
               <value value="60"/>
               <unit value="stuk"/>
               <system value="http://unitsofmeasure.org"/>
               <code value="1"/>
            </quantity>
            <whenHandedOver value="2021-12-30T09:02:00+01:00"/>
         </MedicationDispense>
      </resource>
      <search>
         <mode value="match"/>
      </search>
   </entry>
   <entry>
      <fullUrl value="urn:uuid:4fc68bee-7560-11ed-1921-020000000000"/>
      <resource>
         <MedicationDispense>
            <id value="216840111388324311999773737840051-MBH200wijzigenverlagingMVE"/>
            <meta>
               <profile value="http://nictiz.nl/fhir/StructureDefinition/mp-MedicationDispense"/>
            </meta>
            <extension url="http://nictiz.nl/fhir/StructureDefinition/ext-PharmaceuticalTreatment.Identifier">
               <valueIdentifier>
                  <system value="urn:oid:2.16.840.1.113883.2.4.3.11.999.77.1.1"/>
                  <value value="MBH_200_wijzigen_verlaging"/>
               </valueIdentifier>
            </extension>
            <identifier>
               <system value="urn:oid:2.16.840.1.113883.2.4.3.11.999.77.373784005.1"/>
               <value value="MBH_200_wijzigen_verlaging_MVE"/>
            </identifier>
            <status value="completed"/>
            <category>
               <coding>
                  <system value="http://snomed.info/sct"/>
                  <code value="373784005"/>
                  <display value="verstrekken van medicatie"/>
               </coding>
            </category>
            <medicationReference>
               <reference value="urn:uuid:4fc68cde-7560-11ed-1921-020000000000"/>
               <type value="Medication"/>
               <display value="FERROFUMARAAT TABLET 200MG"/>
            </medicationReference>
            <subject>
               <reference value="urn:uuid:4fc683f6-7560-11ed-1921-020000000000"/>
               <type value="Patient"/>
               <display value="Patient, J. de XXX_Luzac"/>
            </subject>
            <performer>
               <actor>
                  <reference value="urn:uuid:4fc68798-7560-11ed-1921-020000000000"/>
                  <type value="Organization"/>
                  <display value="Healthcare provider (organization), Apotheek De Gulle Gaper"/>
               </actor>
            </performer>
            <authorizingPrescription>
               <type value="MedicationRequest"/>
               <identifier>
                  <system value="urn:oid:2.16.840.1.113883.2.4.3.11.999.77.52711000146108.1"/>
                  <value value="MBH_200_wijzigen_verlaging_VV"/>
               </identifier>
               <display value="relatie naar verstrekkingsverzoek met identificatie: MBH_200_wijzigen_verlaging_VV || 2.16.840.1.113883.2.4.3.11.999.77.52711000146108.1"/>
            </authorizingPrescription>
            <quantity>
               <extension url="http://hl7.org/fhir/StructureDefinition/iso21090-PQ-translation">
                  <valueQuantity>
                     <value value="20"/>
                     <unit value="stuk"/>
                     <system value="urn:oid:2.16.840.1.113883.2.4.4.1.900.2"/>
                     <code value="245"/>
                  </valueQuantity>
               </extension>
               <value value="20"/>
               <unit value="stuk"/>
               <system value="http://unitsofmeasure.org"/>
               <code value="1"/>
            </quantity>
            <whenHandedOver value="2021-12-19T09:05:00+01:00"/>
         </MedicationDispense>
      </resource>
      <search>
         <mode value="match"/>
      </search>
   </entry>
   <entry>
      <fullUrl value="urn:uuid:4fc68c0c-7560-11ed-1921-020000000000"/>
      <resource>
         <MedicationDispense>
            <id value="216840111388324311999773737840051-MBH200onderbrekenMVE"/>
            <meta>
               <profile value="http://nictiz.nl/fhir/StructureDefinition/mp-MedicationDispense"/>
            </meta>
            <extension url="http://nictiz.nl/fhir/StructureDefinition/ext-PharmaceuticalTreatment.Identifier">
               <valueIdentifier>
                  <system value="urn:oid:2.16.840.1.113883.2.4.3.11.999.77.1.1"/>
                  <value value="MBH_200_onderbreken"/>
               </valueIdentifier>
            </extension>
            <identifier>
               <system value="urn:oid:2.16.840.1.113883.2.4.3.11.999.77.373784005.1"/>
               <value value="MBH_200_onderbreken_MVE"/>
            </identifier>
            <status value="completed"/>
            <category>
               <coding>
                  <system value="http://snomed.info/sct"/>
                  <code value="373784005"/>
                  <display value="verstrekken van medicatie"/>
               </coding>
            </category>
            <medicationReference>
               <reference value="urn:uuid:4fc68d38-7560-11ed-1921-020000000000"/>
               <type value="Medication"/>
               <display value="BROXIL CAPSULE 500MG"/>
            </medicationReference>
            <subject>
               <reference value="urn:uuid:4fc683f6-7560-11ed-1921-020000000000"/>
               <type value="Patient"/>
               <display value="Patient, J. de XXX_Luzac"/>
            </subject>
            <performer>
               <actor>
                  <reference value="urn:uuid:4fc68798-7560-11ed-1921-020000000000"/>
                  <type value="Organization"/>
                  <display value="Healthcare provider (organization), Apotheek De Gulle Gaper"/>
               </actor>
            </performer>
            <authorizingPrescription>
               <type value="MedicationRequest"/>
               <identifier>
                  <system value="urn:oid:2.16.840.1.113883.2.4.3.11.999.77.52711000146108.1"/>
                  <value value="MBH_200_onderbreken_VV"/>
               </identifier>
               <display value="relatie naar verstrekkingsverzoek met identificatie: MBH_200_onderbreken_VV || 2.16.840.1.113883.2.4.3.11.999.77.52711000146108.1"/>
            </authorizingPrescription>
            <quantity>
               <extension url="http://hl7.org/fhir/StructureDefinition/iso21090-PQ-translation">
                  <valueQuantity>
                     <value value="30"/>
                     <unit value="stuk"/>
                     <system value="urn:oid:2.16.840.1.113883.2.4.4.1.900.2"/>
                     <code value="245"/>
                  </valueQuantity>
               </extension>
               <value value="30"/>
               <unit value="stuk"/>
               <system value="http://unitsofmeasure.org"/>
               <code value="1"/>
            </quantity>
            <whenHandedOver value="2021-12-27T09:06:00+01:00"/>
         </MedicationDispense>
      </resource>
      <search>
         <mode value="match"/>
      </search>
   </entry>
   <entry>
      <fullUrl value="urn:uuid:4fc68c2a-7560-11ed-1921-020000000000"/>
      <resource>
         <MedicationDispense>
            <id value="216840111388324311999773737840051-MBH200TAwijzigenMVE"/>
            <meta>
               <profile value="http://nictiz.nl/fhir/StructureDefinition/mp-MedicationDispense"/>
            </meta>
            <extension url="http://nictiz.nl/fhir/StructureDefinition/ext-PharmaceuticalTreatment.Identifier">
               <valueIdentifier>
                  <system value="urn:oid:2.16.840.1.113883.2.4.3.11.999.77.1.1"/>
                  <value value="MBH_200_TAwijzigen"/>
               </valueIdentifier>
            </extension>
            <identifier>
               <system value="urn:oid:2.16.840.1.113883.2.4.3.11.999.77.373784005.1"/>
               <value value="MBH_200_TAwijzigen_MVE"/>
            </identifier>
            <status value="completed"/>
            <category>
               <coding>
                  <system value="http://snomed.info/sct"/>
                  <code value="373784005"/>
                  <display value="verstrekken van medicatie"/>
               </coding>
            </category>
            <medicationReference>
               <reference value="urn:uuid:4fc68d74-7560-11ed-1921-020000000000"/>
               <type value="Medication"/>
               <display value="PANTOZOL TABLET MSR 40MG"/>
            </medicationReference>
            <subject>
               <reference value="urn:uuid:4fc683f6-7560-11ed-1921-020000000000"/>
               <type value="Patient"/>
               <display value="Patient, J. de XXX_Luzac"/>
            </subject>
            <performer>
               <actor>
                  <reference value="urn:uuid:4fc68798-7560-11ed-1921-020000000000"/>
                  <type value="Organization"/>
                  <display value="Healthcare provider (organization), Apotheek De Gulle Gaper"/>
               </actor>
            </performer>
            <authorizingPrescription>
               <type value="MedicationRequest"/>
               <identifier>
                  <system value="urn:oid:2.16.840.1.113883.2.4.3.11.999.77.52711000146108.1"/>
                  <value value="MBH_200_TAwijzigen_VV"/>
               </identifier>
               <display value="relatie naar verstrekkingsverzoek met identificatie: MBH_200_TAwijzigen_VV || 2.16.840.1.113883.2.4.3.11.999.77.52711000146108.1"/>
            </authorizingPrescription>
            <quantity>
               <extension url="http://hl7.org/fhir/StructureDefinition/iso21090-PQ-translation">
                  <valueQuantity>
                     <value value="10"/>
                     <unit value="stuk"/>
                     <system value="urn:oid:2.16.840.1.113883.2.4.4.1.900.2"/>
                     <code value="245"/>
                  </valueQuantity>
               </extension>
               <value value="10"/>
               <unit value="stuk"/>
               <system value="http://unitsofmeasure.org"/>
               <code value="1"/>
            </quantity>
            <whenHandedOver value="2021-11-02T12:30:00+01:00"/>
         </MedicationDispense>
      </resource>
      <search>
         <mode value="match"/>
      </search>
   </entry>
   <entry>
      <fullUrl value="urn:uuid:4fc68c48-7560-11ed-1921-020000000000"/>
      <resource>
         <MedicationDispense>
            <id value="216840111388324311999773737840051-MBH200TAwijzigenMVEanderePRK"/>
            <meta>
               <profile value="http://nictiz.nl/fhir/StructureDefinition/mp-MedicationDispense"/>
            </meta>
            <extension url="http://nictiz.nl/fhir/StructureDefinition/ext-PharmaceuticalTreatment.Identifier">
               <valueIdentifier>
                  <system value="urn:oid:2.16.840.1.113883.2.4.3.11.999.77.1.1"/>
                  <value value="MBH_200_TAwijzigen"/>
               </valueIdentifier>
            </extension>
            <identifier>
               <system value="urn:oid:2.16.840.1.113883.2.4.3.11.999.77.373784005.1"/>
               <value value="MBH_200_TAwijzigen_MVE_anderePRK"/>
            </identifier>
            <status value="completed"/>
            <category>
               <coding>
                  <system value="http://snomed.info/sct"/>
                  <code value="373784005"/>
                  <display value="verstrekken van medicatie"/>
               </coding>
            </category>
            <medicationReference>
               <reference value="urn:uuid:4fc68db0-7560-11ed-1921-020000000000"/>
               <type value="Medication"/>
               <display value="PANTOZOL TABLET MSR 20MG"/>
            </medicationReference>
            <subject>
               <reference value="urn:uuid:4fc683f6-7560-11ed-1921-020000000000"/>
               <type value="Patient"/>
               <display value="Patient, J. de XXX_Luzac"/>
            </subject>
            <performer>
               <actor>
                  <reference value="urn:uuid:4fc68798-7560-11ed-1921-020000000000"/>
                  <type value="Organization"/>
                  <display value="Healthcare provider (organization), Apotheek De Gulle Gaper"/>
               </actor>
            </performer>
            <authorizingPrescription>
               <type value="MedicationRequest"/>
               <identifier>
                  <system value="urn:oid:2.16.840.1.113883.2.4.3.11.999.77.52711000146108.1"/>
                  <value value="MBH_200_TAwijzigen_VV"/>
               </identifier>
               <display value="relatie naar verstrekkingsverzoek met identificatie: MBH_200_TAwijzigen_VV || 2.16.840.1.113883.2.4.3.11.999.77.52711000146108.1"/>
            </authorizingPrescription>
            <quantity>
               <extension url="http://hl7.org/fhir/StructureDefinition/iso21090-PQ-translation">
                  <valueQuantity>
                     <value value="28"/>
                     <unit value="stuk"/>
                     <system value="urn:oid:2.16.840.1.113883.2.4.4.1.900.2"/>
                     <code value="245"/>
                  </valueQuantity>
               </extension>
               <value value="28"/>
               <unit value="stuk"/>
               <system value="http://unitsofmeasure.org"/>
               <code value="1"/>
            </quantity>
            <whenHandedOver value="2021-11-12T12:36:00+01:00"/>
         </MedicationDispense>
      </resource>
      <search>
         <mode value="match"/>
      </search>
   </entry>
   <entry>
      <fullUrl value="urn:uuid:4fc683f6-7560-11ed-1921-020000000000"/>
      <resource>
         <Patient>
            <id value="J.deXXX-Luzac"/>
            <meta>
               <profile value="http://nictiz.nl/fhir/StructureDefinition/nl-core-Patient"/>
            </meta>
            <identifier>
               <system value="http://fhir.nl/fhir/NamingSystem/bsn"/>
               <value>
                  <extension url="http://hl7.org/fhir/StructureDefinition/data-absent-reason">
                     <valueCode value="masked"/>
                  </extension>
               </value>
            </identifier>
            <name>
               <extension url="http://hl7.org/fhir/StructureDefinition/humanname-assembly-order">
                  <valueCode value="NL1"/>
               </extension>
               <use value="official"/>
               <text value="J. de XXX_Luzac"/>
               <family value="de XXX_Luzac">
                  <extension url="http://hl7.org/fhir/StructureDefinition/humanname-own-prefix">
                     <valueString value="de"/>
                  </extension>
                  <extension url="http://hl7.org/fhir/StructureDefinition/humanname-own-name">
                     <valueString value="XXX_Luzac"/>
                  </extension>
               </family>
               <given value="J.">
                  <extension url="http://hl7.org/fhir/StructureDefinition/iso21090-EN-qualifier">
                     <valueCode value="IN"/>
                  </extension>
               </given>
            </name>
            <gender value="female">
               <extension url="http://nictiz.nl/fhir/StructureDefinition/ext-CodeSpecification">
                  <valueCodeableConcept>
                     <coding>
                        <system value="http://terminology.hl7.org/CodeSystem/v3-AdministrativeGender"/>
                        <code value="F"/>
                        <display value="Vrouw"/>
                     </coding>
                  </valueCodeableConcept>
               </extension>
            </gender>
            <birthDate value="1985-10-24"/>
         </Patient>
      </resource>
      <search>
         <mode value="include"/>
      </search>
   </entry>
   <entry>
      <fullUrl value="urn:uuid:4fc684be-7560-11ed-1921-020000000000"/>
      <resource>
         <PractitionerRole>
            <id value="PrcRol-2165281100731-000001112"/>
            <meta>
               <profile value="http://nictiz.nl/fhir/StructureDefinition/nl-core-HealthProfessional-PractitionerRole"/>
            </meta>
            <practitioner>
               <reference value="urn:uuid:4fc68734-7560-11ed-1921-020000000000"/>
               <type value="Practitioner"/>
               <display value="Healthcare professional (person), Bertine van Doorn"/>
            </practitioner>
            <organization>
               <reference value="urn:uuid:4fc6875c-7560-11ed-1921-020000000000"/>
               <type value="Organization"/>
               <display value="Healthcare provider (organization), Huisartsenpraktijk Pulver &amp; Partners"/>
            </organization>
            <specialty>
               <coding>
                  <system value="urn:oid:2.16.840.1.113883.2.4.6.7"/>
                  <version value="2020-10-23T00:00:00"/>
                  <code value="0100"/>
                  <display value="Huisartsen, niet nader gespecificeerd"/>
               </coding>
            </specialty>
         </PractitionerRole>
      </resource>
      <search>
         <mode value="include"/>
      </search>
   </entry>
   <entry>
      <fullUrl value="urn:uuid:4fc68734-7560-11ed-1921-020000000000"/>
      <resource>
         <Practitioner>
            <id value="2165281100731-000001112"/>
            <meta>
               <profile value="http://nictiz.nl/fhir/StructureDefinition/nl-core-HealthProfessional-Practitioner"/>
            </meta>
            <identifier>
               <system value="http://fhir.nl/fhir/NamingSystem/uzi-nr-pers"/>
               <value value="000001112"/>
            </identifier>
            <name>
               <use value="official"/>
               <text value="Bertine van Doorn"/>
               <family value="van Doorn">
                  <extension url="http://hl7.org/fhir/StructureDefinition/humanname-own-prefix">
                     <valueString value="van"/>
                  </extension>
                  <extension url="http://hl7.org/fhir/StructureDefinition/humanname-own-name">
                     <valueString value="Doorn"/>
                  </extension>
               </family>
               <given value="Bertine">
                  <extension url="http://hl7.org/fhir/StructureDefinition/iso21090-EN-qualifier">
                     <valueCode value="BR"/>
                  </extension>
               </given>
            </name>
         </Practitioner>
      </resource>
      <search>
         <mode value="include"/>
      </search>
   </entry>
   <entry>
      <fullUrl value="urn:uuid:4fc6875c-7560-11ed-1921-020000000000"/>
      <resource>
         <Organization>
            <id value="Org-2165281100733-00001111"/>
            <meta>
               <profile value="http://nictiz.nl/fhir/StructureDefinition/nl-core-HealthcareProvider-Organization"/>
            </meta>
            <identifier>
               <system value="http://fhir.nl/fhir/NamingSystem/ura"/>
               <value value="00001111"/>
            </identifier>
            <name value="Huisartsenpraktijk Pulver &amp; Partners"/>
            <address>
               <extension url="http://nictiz.nl/fhir/StructureDefinition/ext-AddressInformation.AddressType">
                  <valueCodeableConcept>
                     <coding>
                        <system value="http://terminology.hl7.org/CodeSystem/v3-AddressUse"/>
                        <code value="WP"/>
                        <display value="Werkadres"/>
                     </coding>
                  </valueCodeableConcept>
               </extension>
               <use value="work"/>
               <line value="Dorpsstraat 1">
                  <extension url="http://hl7.org/fhir/StructureDefinition/iso21090-ADXP-streetName">
                     <valueString value="Dorpsstraat"/>
                  </extension>
                  <extension url="http://hl7.org/fhir/StructureDefinition/iso21090-ADXP-houseNumber">
                     <valueString value="1"/>
                  </extension>
               </line>
               <city value="Ons Dorp"/>
               <postalCode value="1234 AA"/>
            </address>
         </Organization>
      </resource>
      <search>
         <mode value="include"/>
      </search>
   </entry>
   <entry>
      <fullUrl value="urn:uuid:4fc68798-7560-11ed-1921-020000000000"/>
      <resource>
         <Organization>
            <id value="Org-2165281100733-01236578"/>
            <meta>
               <profile value="http://nictiz.nl/fhir/StructureDefinition/nl-core-HealthcareProvider-Organization"/>
            </meta>
            <identifier>
               <system value="http://fhir.nl/fhir/NamingSystem/ura"/>
               <value value="01236578"/>
            </identifier>
            <name value="Apotheek De Gulle Gaper"/>
         </Organization>
      </resource>
      <search>
         <mode value="include"/>
      </search>
   </entry>
   <entry>
      <fullUrl value="urn:uuid:4fc687d4-7560-11ed-1921-020000000000"/>
      <resource>
         <Organization>
            <id value="Org-2165281100733-99901111"/>
            <meta>
               <profile value="http://nictiz.nl/fhir/StructureDefinition/nl-core-HealthcareProvider-Organization"/>
            </meta>
            <identifier>
               <system value="http://fhir.nl/fhir/NamingSystem/ura"/>
               <value value="99901111"/>
            </identifier>
            <name value="Apotheek Jansen en Co"/>
         </Organization>
      </resource>
      <search>
         <mode value="include"/>
      </search>
   </entry>
   <entry>
      <fullUrl value="urn:uuid:4fc68c66-7560-11ed-1921-020000000000"/>
      <resource>
         <Medication>
            <id value="216840111388324410-49484"/>
            <meta>
               <profile value="http://nictiz.nl/fhir/StructureDefinition/nl-core-PharmaceuticalProduct"/>
            </meta>
            <code>
               <coding>
                  <system value="urn:oid:2.16.840.1.113883.2.4.4.10"/>
                  <code value="49484"/>
                  <display value="Acetylsalicylzuur tabletmsr 100mg"/>
                  <userSelected value="true"/>
               </coding>
               <coding>
                  <system value="urn:oid:2.16.840.1.113883.2.4.4.1"/>
                  <code value="103039"/>
                  <display value="Acetylsalicylzuur tabletmsr 100mg"/>
               </coding>
               <text value="Acetylsalicylzuur tabletmsr 100mg"/>
            </code>
         </Medication>
      </resource>
      <search>
         <mode value="include"/>
      </search>
   </entry>
   <entry>
      <fullUrl value="urn:uuid:4fc68c84-7560-11ed-1921-020000000000"/>
      <resource>
         <Medication>
            <id value="21684011138832447-1110837"/>
            <meta>
               <profile value="http://nictiz.nl/fhir/StructureDefinition/nl-core-PharmaceuticalProduct"/>
            </meta>
            <code>
               <coding>
                  <system value="urn:oid:2.16.840.1.113883.2.4.4.7"/>
                  <code value="1110837"/>
                  <display value="ASPIRINE PROTECT EC TABLET MSR 100MG"/>
                  <userSelected value="true"/>
               </coding>
               <coding>
                  <system value="urn:oid:2.16.840.1.113883.2.4.4.10"/>
                  <code value="49484"/>
                  <display value="Acetylsalicylzuur tabletmsr 100mg"/>
               </coding>
               <coding>
                  <system value="urn:oid:2.16.840.1.113883.2.4.4.1"/>
                  <code value="103039"/>
                  <display value="Acetylsalicylzuur tabletmsr 100mg"/>
               </coding>
               <text value="ASPIRINE PROTECT EC TABLET MSR 100MG"/>
            </code>
         </Medication>
      </resource>
      <search>
         <mode value="include"/>
      </search>
   </entry>
   <entry>
      <fullUrl value="urn:uuid:4fc68ca2-7560-11ed-1921-020000000000"/>
      <resource>
         <Medication>
            <id value="216840111388324410-5967"/>
            <meta>
               <profile value="http://nictiz.nl/fhir/StructureDefinition/nl-core-PharmaceuticalProduct"/>
            </meta>
            <code>
               <coding>
                  <system value="urn:oid:2.16.840.1.113883.2.4.4.10"/>
                  <code value="5967"/>
                  <display value="FUROSEMIDE 40MG TABLET"/>
                  <userSelected value="true"/>
               </coding>
               <coding>
                  <system value="urn:oid:2.16.840.1.113883.2.4.4.1"/>
                  <code value="16810"/>
                  <display value="FUROSEMIDE 40MG TABLET"/>
               </coding>
               <text value="FUROSEMIDE 40MG TABLET"/>
            </code>
         </Medication>
      </resource>
      <search>
         <mode value="include"/>
      </search>
   </entry>
   <entry>
      <fullUrl value="urn:uuid:4fc68cc0-7560-11ed-1921-020000000000"/>
      <resource>
         <Medication>
            <id value="21684011138832447-598860"/>
            <meta>
               <profile value="http://nictiz.nl/fhir/StructureDefinition/nl-core-PharmaceuticalProduct"/>
            </meta>
            <code>
               <coding>
                  <system value="urn:oid:2.16.840.1.113883.2.4.4.7"/>
                  <code value="598860"/>
                  <display value="FUROSEMIDE SANDOZ TABLET 40MG"/>
                  <userSelected value="true"/>
               </coding>
               <coding>
                  <system value="urn:oid:2.16.840.1.113883.2.4.4.10"/>
                  <code value="5967"/>
                  <display value="FUROSEMIDE 40MG TABLET"/>
               </coding>
               <coding>
                  <system value="urn:oid:2.16.840.1.113883.2.4.4.1"/>
                  <code value="16810"/>
                  <display value="FUROSEMIDE 40MG TABLET"/>
               </coding>
               <text value="FUROSEMIDE SANDOZ TABLET 40MG"/>
            </code>
         </Medication>
      </resource>
      <search>
         <mode value="include"/>
      </search>
   </entry>
   <entry>
      <fullUrl value="urn:uuid:4fc68cde-7560-11ed-1921-020000000000"/>
      <resource>
         <Medication>
            <id value="216840111388324410-42293"/>
            <meta>
               <profile value="http://nictiz.nl/fhir/StructureDefinition/nl-core-PharmaceuticalProduct"/>
            </meta>
            <code>
               <coding>
                  <system value="urn:oid:2.16.840.1.113883.2.4.4.10"/>
                  <code value="42293"/>
                  <display value="FERROFUMARAAT TABLET 200MG"/>
                  <userSelected value="true"/>
               </coding>
               <coding>
                  <system value="urn:oid:2.16.840.1.113883.2.4.4.1"/>
                  <code value="15342"/>
                  <display value="FERROFUMARAAT TABLET 200MG"/>
               </coding>
               <text value="FERROFUMARAAT TABLET 200MG"/>
            </code>
         </Medication>
      </resource>
      <search>
         <mode value="include"/>
      </search>
   </entry>
   <entry>
      <fullUrl value="urn:uuid:4fc68cfc-7560-11ed-1921-020000000000"/>
      <resource>
         <Medication>
            <id value="21684011138832447-869244"/>
            <meta>
               <profile value="http://nictiz.nl/fhir/StructureDefinition/nl-core-PharmaceuticalProduct"/>
            </meta>
            <code>
               <coding>
                  <system value="urn:oid:2.16.840.1.113883.2.4.4.7"/>
                  <code value="869244"/>
                  <display value="FERROFUMARAAT TEVA TABLET 200MG"/>
                  <userSelected value="true"/>
               </coding>
               <coding>
                  <system value="urn:oid:2.16.840.1.113883.2.4.4.10"/>
                  <code value="42293"/>
                  <display value="FERROFUMARAAT TABLET 200MG"/>
               </coding>
               <coding>
                  <system value="urn:oid:2.16.840.1.113883.2.4.4.1"/>
                  <code value="15342"/>
                  <display value="FERROFUMARAAT TABLET 200MG"/>
               </coding>
               <text value="FERROFUMARAAT TEVA TABLET 200MG"/>
            </code>
         </Medication>
      </resource>
      <search>
         <mode value="include"/>
      </search>
   </entry>
   <entry>
      <fullUrl value="urn:uuid:4fc68d1a-7560-11ed-1921-020000000000"/>
      <resource>
         <Medication>
            <id value="216840111388324410-17205"/>
            <meta>
               <profile value="http://nictiz.nl/fhir/StructureDefinition/nl-core-PharmaceuticalProduct"/>
            </meta>
            <code>
               <coding>
                  <system value="urn:oid:2.16.840.1.113883.2.4.4.10"/>
                  <code value="17205"/>
                  <display value="FENETICILLINE CAPSULE 500MG"/>
                  <userSelected value="true"/>
               </coding>
               <coding>
                  <system value="urn:oid:2.16.840.1.113883.2.4.4.1"/>
                  <code value="41092"/>
                  <display value="FENETICILLINE CAPSULE 500MG"/>
               </coding>
               <text value="FENETICILLINE CAPSULE 500MG"/>
            </code>
         </Medication>
      </resource>
      <search>
         <mode value="include"/>
      </search>
   </entry>
   <entry>
      <fullUrl value="urn:uuid:4fc68d38-7560-11ed-1921-020000000000"/>
      <resource>
         <Medication>
            <id value="21684011138832447-425087"/>
            <meta>
               <profile value="http://nictiz.nl/fhir/StructureDefinition/nl-core-PharmaceuticalProduct"/>
            </meta>
            <code>
               <coding>
                  <system value="urn:oid:2.16.840.1.113883.2.4.4.7"/>
                  <code value="425087"/>
                  <display value="BROXIL CAPSULE 500MG"/>
                  <userSelected value="true"/>
               </coding>
               <coding>
                  <system value="urn:oid:2.16.840.1.113883.2.4.4.10"/>
                  <code value="17205"/>
                  <display value="FENETICILLINE CAPSULE 500MG"/>
               </coding>
               <coding>
                  <system value="urn:oid:2.16.840.1.113883.2.4.4.1"/>
                  <code value="41092"/>
                  <display value="FENETICILLINE CAPSULE 500MG"/>
               </coding>
               <text value="BROXIL CAPSULE 500MG"/>
            </code>
         </Medication>
      </resource>
      <search>
         <mode value="include"/>
      </search>
   </entry>
   <entry>
      <fullUrl value="urn:uuid:4fc68d56-7560-11ed-1921-020000000000"/>
      <resource>
         <Medication>
            <id value="216840111388324410-43044"/>
            <meta>
               <profile value="http://nictiz.nl/fhir/StructureDefinition/nl-core-PharmaceuticalProduct"/>
            </meta>
            <code>
               <coding>
                  <system value="urn:oid:2.16.840.1.113883.2.4.4.10"/>
                  <code value="43044"/>
                  <display value="PANTOPRAZOL 40MG TABLET MSR"/>
                  <userSelected value="true"/>
               </coding>
               <coding>
                  <system value="urn:oid:2.16.840.1.113883.2.4.4.1"/>
                  <code value="96938"/>
                  <display value="PANTOPRAZOL 40MG TABLET MSR"/>
               </coding>
               <text value="PANTOPRAZOL 40MG TABLET MSR"/>
            </code>
         </Medication>
      </resource>
      <search>
         <mode value="include"/>
      </search>
   </entry>
   <entry>
      <fullUrl value="urn:uuid:4fc68d74-7560-11ed-1921-020000000000"/>
      <resource>
         <Medication>
            <id value="21684011138832447-878421"/>
            <meta>
               <profile value="http://nictiz.nl/fhir/StructureDefinition/nl-core-PharmaceuticalProduct"/>
            </meta>
            <code>
               <coding>
                  <system value="urn:oid:2.16.840.1.113883.2.4.4.7"/>
                  <code value="878421"/>
                  <display value="PANTOZOL TABLET MSR 40MG"/>
                  <userSelected value="true"/>
               </coding>
               <coding>
                  <system value="urn:oid:2.16.840.1.113883.2.4.4.10"/>
                  <code value="43044"/>
                  <display value="PANTOPRAZOL 40MG TABLET MSR"/>
               </coding>
               <coding>
                  <system value="urn:oid:2.16.840.1.113883.2.4.4.1"/>
                  <code value="96938"/>
                  <display value="PANTOPRAZOL 40MG TABLET MSR"/>
               </coding>
               <text value="PANTOZOL TABLET MSR 40MG"/>
            </code>
         </Medication>
      </resource>
      <search>
         <mode value="include"/>
      </search>
   </entry>
   <entry>
      <fullUrl value="urn:uuid:4fc68d92-7560-11ed-1921-020000000000"/>
      <resource>
         <Medication>
            <id value="216840111388324410-52272"/>
            <meta>
               <profile value="http://nictiz.nl/fhir/StructureDefinition/nl-core-PharmaceuticalProduct"/>
            </meta>
            <code>
               <coding>
                  <system value="urn:oid:2.16.840.1.113883.2.4.4.10"/>
                  <code value="52272"/>
                  <display value="PANTOPRAZOL TABLET MSR 20MG"/>
                  <userSelected value="true"/>
               </coding>
               <coding>
                  <system value="urn:oid:2.16.840.1.113883.2.4.4.1"/>
                  <code value="106275"/>
                  <display value="PANTOPRAZOL TABLET MSR 20MG"/>
               </coding>
               <text value="PANTOPRAZOL TABLET MSR 20MG"/>
            </code>
         </Medication>
      </resource>
      <search>
         <mode value="include"/>
      </search>
   </entry>
   <entry>
      <fullUrl value="urn:uuid:4fc68db0-7560-11ed-1921-020000000000"/>
      <resource>
         <Medication>
            <id value="21684011138832447-1163094"/>
            <meta>
               <profile value="http://nictiz.nl/fhir/StructureDefinition/nl-core-PharmaceuticalProduct"/>
            </meta>
            <code>
               <coding>
                  <system value="urn:oid:2.16.840.1.113883.2.4.4.7"/>
                  <code value="1163094"/>
                  <display value="PANTOZOL TABLET MSR 20MG"/>
                  <userSelected value="true"/>
               </coding>
               <coding>
                  <system value="urn:oid:2.16.840.1.113883.2.4.4.10"/>
                  <code value="52272"/>
                  <display value="PANTOPRAZOL TABLET MSR 20MG"/>
               </coding>
               <coding>
                  <system value="urn:oid:2.16.840.1.113883.2.4.4.1"/>
                  <code value="106275"/>
                  <display value="PANTOPRAZOL TABLET MSR 20MG"/>
               </coding>
               <text value="PANTOZOL TABLET MSR 20MG"/>
            </code>
         </Medication>
      </resource>
      <search>
         <mode value="include"/>
      </search>
   </entry>
</Bundle>
