<Bundle xmlns="http://hl7.org/fhir">
   <id value="mg-mp-mg-kwal-MGB-script3-v30"/>
   <type value="transaction"/>
   <entry>
      <fullUrl value="urn:uuid:407f4cbd-6b1b-11ec-0000-020000000000"/>
      <resource>
         <MedicationStatement>
            <meta>
               <profile value="http://nictiz.nl/fhir/StructureDefinition/mp-MedicationUse2"/>
            </meta>
            <extension url="http://nictiz.nl/fhir/StructureDefinition/ext-RenderedDosageInstruction">
               <valueString value="Vanaf T - 1 dag, tot en met T - 1 dag, Bij pijn 2 mg/dosis , maximaal 3 mg/dosis per dag, 1-2 doses onder de tong, na 5-10 min herhalen, max. 3 opeenvolgende doses. Bij onvoldoende effect na in totaal 3 doses direct contact opnemen met een arts., oromucosaal"/>
            </extension>
            <extension url="http://nictiz.nl/fhir/StructureDefinition/ext-MedicationUse2.Prescriber">
               <valueReference>
                  <reference value="urn:uuid:4560482e-6aec-11ec-0000-020000000000"/>
                  <type value="PractitionerRole"/>
                  <display value="Healthcare professional (role), Bertine van Doorn, Huisartsen, niet nader gespecificeerd, Huisartsenpraktijk Pulver &amp; Partners"/>
               </valueReference>
            </extension>
            <extension url="http://nictiz.nl/fhir/StructureDefinition/ext-AsAgreedIndicator">
               <valueBoolean value="true"/>
            </extension>
            <extension url="http://nictiz.nl/fhir/StructureDefinition/ext-PharmaceuticalTreatment.Identifier">
               <valueIdentifier>
                  <system value="urn:oid:2.16.840.1.113883.2.4.3.11.999.77.1.1"/>
                  <value value="MBH_300_script3"/>
               </valueIdentifier>
            </extension>
            <extension url="http://nictiz.nl/fhir/StructureDefinition/ext-MedicationUse2.Author">
               <valueReference>
                  <reference value="urn:uuid:4560482e-6aec-11ec-0000-020000000000"/>
                  <type value="PractitionerRole"/>
                  <display value="Healthcare professional (role), Bertine van Doorn, Huisartsen, niet nader gespecificeerd, Huisartsenpraktijk Pulver &amp; Partners"/>
               </valueReference>
            </extension>
            <identifier>
               <system value="urn:oid:2.16.840.1.113883.2.4.3.11.999.77.6.1"/>
               <value value="MBH_300_script3_MGB"/>
            </identifier>
            <status value="active"/>
            <category>
               <coding>
                  <system value="http://snomed.info/sct"/>
                  <code value="422979000"/>
                  <display value="bevinding betreffende gedrag met betrekking tot medicatieregime"/>
               </coding>
            </category>
            <medicationReference>
               <reference value="urn:uuid:d11cb91d-6b50-11ec-0000-020000000000"/>
               <type value="Medication"/>
               <display value="NITROGLYCERINE SDZ OROMUC SPRAY"/>
            </medicationReference>
            <subject>
               <reference value="urn:uuid:2328b5be-6ac1-11ec-0000-020000000000"/>
               <type value="Patient"/>
               <display value="Patient, H. van de XXX_Kamphuis"/>
            </subject>
            <effectivePeriod>
               <start value="${DATE, T, D, -1}T00:00:00+02:00"/>
               <end value="${DATE, T, D, -1}T23:59:59+02:00"/>
            </effectivePeriod>
            <dateAsserted value="${DATE, T, D, +1}T09:15:00+02:00"/>
            <informationSource>
               <reference value="urn:uuid:2328b5be-6ac1-11ec-0000-020000000000"/>
               <type value="Patient"/>
               <display value="Patient, H. van de XXX_Kamphuis"/>
            </informationSource>
            <derivedFrom>
               <extension url="http://nictiz.nl/fhir/StructureDefinition/ext-ResourceCategory">
                  <valueCodeableConcept>
                     <coding>
                        <system value="http://snomed.info/sct"/>
                        <code value="33633005"/>
                        <display value="voorschrijven van geneesmiddel"/>
                     </coding>
                  </valueCodeableConcept>
               </extension>
               <type value="MedicationRequest"/>
               <identifier>
                  <system value="urn:oid:2.16.840.1.113883.2.4.3.11.999.77.16076005.1"/>
                  <value value="MBH_300_script3_MA"/>
               </identifier>
               <display value="relatie naar medicatieafspraak"/>
            </derivedFrom>
            <dosage>
               <additionalInstruction>
                  <coding>
                     <system value="http://terminology.hl7.org/CodeSystem/v3-NullFlavor"/>
                     <code value="OTH"/>
                     <display value="overig"/>
                  </coding>
                  <text value="1-2 doses onder de tong, na 5-10 min herhalen, max. 3 opeenvolgende doses. Bij onvoldoende effect na in totaal 3 doses direct contact opnemen met een arts."/>
               </additionalInstruction>
               <asNeededCodeableConcept>
                  <coding>
                     <system value="https://referentiemodel.nhg.org/tabellen/nhg-tabel-25-gebruiksvoorschrift#aanvullend-numeriek"/>
                     <code value="1028"/>
                     <display value="Bij pijn"/>
                  </coding>
               </asNeededCodeableConcept>
               <route>
                  <coding>
                     <system value="urn:oid:2.16.840.1.113883.2.4.4.9"/>
                     <code value="34"/>
                     <display value="oromucosaal"/>
                  </coding>
               </route>
               <doseAndRate>
                  <doseQuantity>
                     <extension url="http://hl7.org/fhir/StructureDefinition/iso21090-PQ-translation">
                        <valueQuantity>
                           <value value="2"/>
                           <unit value="mg/dosis"/>
                           <system value="urn:oid:2.16.840.1.113883.2.4.4.1.900.2"/>
                           <code value="303"/>
                        </valueQuantity>
                     </extension>
                     <value value="2"/>
                     <unit value="mg/dosis"/>
                     <system value="http://unitsofmeasure.org"/>
                     <code value="[drp]"/>
                  </doseQuantity>
               </doseAndRate>
               <maxDosePerPeriod>
                  <numerator>
                     <extension url="http://hl7.org/fhir/StructureDefinition/iso21090-PQ-translation">
                        <valueQuantity>
                           <value value="3"/>
                           <unit value="mg/dosis"/>
                           <system value="urn:oid:2.16.840.1.113883.2.4.4.1.900.2"/>
                           <code value="303"/>
                        </valueQuantity>
                     </extension>
                     <value value="3"/>
                     <unit value="mg/dosis"/>
                     <system value="http://unitsofmeasure.org"/>
                     <code value="[drp]"/>
                  </numerator>
                  <denominator>
                     <value value="1"/>
                     <unit value="dag"/>
                     <system value="http://unitsofmeasure.org"/>
                     <code value="d"/>
                  </denominator>
               </maxDosePerPeriod>
            </dosage>
         </MedicationStatement>
      </resource>
      <request>
         <method value="POST"/>
         <url value="MedicationStatement"/>
      </request>
   </entry>
   <entry>
      <fullUrl value="urn:uuid:2328b5be-6ac1-11ec-0000-020000000000"/>
      <resource>
         <Patient>
            <meta>
               <profile value="http://nictiz.nl/fhir/StructureDefinition/nl-core-Patient"/>
            </meta>
            <identifier>
               <system value="http://fhir.nl/fhir/NamingSystem/bsn"/>
               <value value="999900675"/>
            </identifier>
            <name>
               <extension url="http://hl7.org/fhir/StructureDefinition/humanname-assembly-order">
                  <valueCode value="NL1"/>
               </extension>
               <use value="official"/>
               <text value="H. van de XXX_Kamphuis"/>
               <family value="van de XXX_Kamphuis">
                  <extension url="http://hl7.org/fhir/StructureDefinition/humanname-own-prefix">
                     <valueString value="van de"/>
                  </extension>
                  <extension url="http://hl7.org/fhir/StructureDefinition/humanname-own-name">
                     <valueString value="XXX_Kamphuis"/>
                  </extension>
               </family>
               <given value="H.">
                  <extension url="http://hl7.org/fhir/StructureDefinition/iso21090-EN-qualifier">
                     <valueCode value="IN"/>
                  </extension>
               </given>
            </name>
            <gender value="female">
               <extension url="http://nictiz.nl/fhir/StructureDefinition/ext-CodeSpecification">
                  <valueCodeableConcept>
                     <coding>
                        <system value="http://terminology.hl7.org/CodeSystem/v3-AdministrativeGender"/>
                        <code value="F"/>
                        <display value="Vrouw"/>
                     </coding>
                  </valueCodeableConcept>
               </extension>
            </gender>
            <birthDate value="1963-11-08"/>
         </Patient>
      </resource>
      <request>
         <method value="POST"/>
         <url value="Patient"/>
      </request>
   </entry>
   <entry>
      <fullUrl value="urn:uuid:4560482e-6aec-11ec-0000-020000000000"/>
      <resource>
         <PractitionerRole>
            <meta>
               <profile value="http://nictiz.nl/fhir/StructureDefinition/nl-core-HealthProfessional-PractitionerRole"/>
            </meta>
            <practitioner>
               <reference value="urn:uuid:a57e4824-6aa3-11ec-0000-020000000000"/>
               <type value="Practitioner"/>
               <display value="Healthcare professional (person), Bertine van Doorn"/>
            </practitioner>
            <organization>
               <reference value="urn:uuid:7fa869d8-6b44-11ec-0000-020000000000"/>
               <type value="Organization"/>
               <display value="Healthcare provider (organization), Huisartsenpraktijk Pulver &amp; Partners"/>
            </organization>
            <specialty>
               <coding>
                  <system value="urn:oid:2.16.840.1.113883.2.4.6.7"/>
                  <version value="2020-10-23T00:00:00"/>
                  <code value="0100"/>
                  <display value="Huisartsen, niet nader gespecificeerd"/>
               </coding>
            </specialty>
         </PractitionerRole>
      </resource>
      <request>
         <method value="POST"/>
         <url value="PractitionerRole"/>
      </request>
   </entry>
   <entry>
      <fullUrl value="urn:uuid:a57e4824-6aa3-11ec-0000-020000000000"/>
      <resource>
         <Practitioner>
            <meta>
               <profile value="http://nictiz.nl/fhir/StructureDefinition/nl-core-HealthProfessional-Practitioner"/>
            </meta>
            <identifier>
               <system value="http://fhir.nl/fhir/NamingSystem/uzi-nr-pers"/>
               <value value="000001112"/>
            </identifier>
            <name>
               <use value="official"/>
               <text value="Bertine van Doorn"/>
               <family value="van Doorn">
                  <extension url="http://hl7.org/fhir/StructureDefinition/humanname-own-prefix">
                     <valueString value="van"/>
                  </extension>
                  <extension url="http://hl7.org/fhir/StructureDefinition/humanname-own-name">
                     <valueString value="Doorn"/>
                  </extension>
               </family>
               <given value="Bertine">
                  <extension url="http://hl7.org/fhir/StructureDefinition/iso21090-EN-qualifier">
                     <valueCode value="BR"/>
                  </extension>
               </given>
            </name>
         </Practitioner>
      </resource>
      <request>
         <method value="POST"/>
         <url value="Practitioner"/>
      </request>
   </entry>
   <entry>
      <fullUrl value="urn:uuid:7fa869d8-6b44-11ec-0000-020000000000"/>
      <resource>
         <Organization>
            <meta>
               <profile value="http://nictiz.nl/fhir/StructureDefinition/nl-core-HealthcareProvider-Organization"/>
            </meta>
            <identifier>
               <system value="http://fhir.nl/fhir/NamingSystem/ura"/>
               <value value="00001111"/>
            </identifier>
            <name value="Huisartsenpraktijk Pulver &amp; Partners"/>
            <address>
               <extension url="http://nictiz.nl/fhir/StructureDefinition/ext-AddressInformation.AddressType">
                  <valueCodeableConcept>
                     <coding>
                        <system value="http://terminology.hl7.org/CodeSystem/v3-AddressUse"/>
                        <code value="WP"/>
                        <display value="Werkadres"/>
                     </coding>
                  </valueCodeableConcept>
               </extension>
               <use value="work"/>
               <line value="Dorpsstraat 1">
                  <extension url="http://hl7.org/fhir/StructureDefinition/iso21090-ADXP-streetName">
                     <valueString value="Dorpsstraat"/>
                  </extension>
                  <extension url="http://hl7.org/fhir/StructureDefinition/iso21090-ADXP-houseNumber">
                     <valueString value="1"/>
                  </extension>
               </line>
               <city value="Ons Dorp"/>
               <postalCode value="1234AA"/>
            </address>
         </Organization>
      </resource>
      <request>
         <method value="POST"/>
         <url value="Organization"/>
      </request>
   </entry>
   <entry>
      <fullUrl value="urn:uuid:d11cb91d-6b50-11ec-0000-020000000000"/>
      <resource>
         <Medication>
            <meta>
               <profile value="http://nictiz.nl/fhir/StructureDefinition/mp-PharmaceuticalProduct"/>
            </meta>
            <code>
               <coding>
                  <system value="urn:oid:2.16.840.1.113883.2.4.4.7"/>
                  <code value="1822454"/>
                  <display value="NITROGLYCERINE SDZ OROMUC SPRAY"/>
                  <userSelected value="true"/>
               </coding>
               <coding>
                  <system value="urn:oid:2.16.840.1.113883.2.4.4.10"/>
                  <code value="72206"/>
                  <display value="NITROGLYCERINE SPRAY SUBLING. 0,4MG/DO"/>
               </coding>
               <coding>
                  <system value="urn:oid:2.16.840.1.113883.2.4.4.1"/>
                  <code value="119431"/>
                  <display value="NITROGLYCERINE SPRAY SUBLING. 0,4MG/DO"/>
               </coding>
               <text value="NITROGLYCERINE SDZ OROMUC SPRAY"/>
            </code>
         </Medication>
      </resource>
      <request>
         <method value="POST"/>
         <url value="Medication"/>
      </request>
   </entry>
</Bundle>
