<?xml version="1.0" encoding="UTF-8"?>
<Bundle xmlns="http://hl7.org/fhir">
   <id value="c4ea427d-b1fd-11ea-5562-020000000000"/>
   <type value="transaction"/>
   <entry>
      <fullUrl value="urn:uuid:c4d6715c-b1fd-11ea-5562-020000000000"/>
      <resource>
         <Composition>
            <id value="samenvatting-zwangerschap2018-09-08"/>
            <meta>
               <profile value="http://nictiz.nl/fhir/StructureDefinition/bc-TransactionComposition"/>
            </meta>
            <status value="final"/>
            <type>
               <coding>
                  <system value="http://loinc.org"/>
                  <code value="15508-5"/>
                  <display value="Labor and delivery records"/>
               </coding>
            </type>
            <subject>
               <reference value="Patient/JONGDE"/>
               <display value="Jong de"/>
            </subject>
            <author/>
            <title value="Example bevallingsgegevens 23"/>
            <section>
               <entry>
                  <reference value="Observation/c4d66c66-b1fd-11ea-5562-020000000000"/>
                  <display value="bloedgroep vrouwjong"/>
               </entry>
               <entry>
                  <reference value="Patient/JONGDE"/>
                  <display value="Jong de"/>
               </entry>
               <entry>
                  <reference value="Patient/c4d66e5a-b1fd-11ea-5562-020000000000"/>
                  <display value="Kind jong"/>
               </entry>
               <entry>
                  <reference value="Observation/c4d66eb4-b1fd-11ea-5562-020000000000"/>
                  <display value="rhesus d factor vrouwjong"/>
               </entry>
               <entry>
                  <reference value="Observation/c4d66f0e-b1fd-11ea-5562-020000000000"/>
                  <display value="hbjong"/>
               </entry>
               <entry>
                  <reference value="Observation/c4d67ca7-b1fd-11ea-5562-020000000000"/>
                  <display value="definitieve a terme datumjong"/>
               </entry>
               <entry>
                  <reference value="EpisodeOfCare/c4d67ca6-b1fd-11ea-5562-020000000000"/>
                  <display value="Zwangerschap 2018-09-08 jong"/>
               </entry>
               <entry>
                  <reference value="Organization/VERLOSKUNDIGENPRAKTIJKA"/>
                  <display value="Verloskundigenpraktijk A"/>
               </entry>
               <entry>
                  <reference value="Organization/c4d66fa4-b1fd-11ea-5562-020000000000"/>
                  <display value="Organisatie met id '1200' in identificerend systeem ''."/>
               </entry>
               <entry>
                  <reference value="Practitioner/c4d66f9b-b1fd-11ea-5562-020000000000"/>
                  <display value="Vera de Los"/>
               </entry>
               <entry>
                  <reference value="Observation/c4d67ca9-b1fd-11ea-5562-020000000000"/>
                  <display value="voorgenomen plaats baring tijdens zwangerschap type locatiejong"/>
               </entry>
               <entry>
                  <reference value="Observation/c4d67caa-b1fd-11ea-5562-020000000000"/>
                  <display value="voorgenomen voedingjong"/>
               </entry>
               <entry>
                  <reference value="Observation/c4d67cad-b1fd-11ea-5562-020000000000"/>
                  <display value="tijdstip begin actieve ontsluitingjong"/>
               </entry>
               <entry>
                  <reference value="Observation/c4d67caf-b1fd-11ea-5562-020000000000"/>
                  <display value="hoeveelheid bloedverliesjong"/>
               </entry>
               <entry>
                  <reference value="Observation/c4d67cb0-b1fd-11ea-5562-020000000000"/>
                  <display value="conditie perineum postpartumjong"/>
               </entry>
               <entry>
                  <reference value="Observation/c4d67cc3-b1fd-11ea-5562-020000000000"/>
                  <display value="tijdstip actief meepersenjong"/>
               </entry>
               <entry>
                  <reference value="Observation/c4d67cc5-b1fd-11ea-5562-020000000000"/>
                  <display value="type partusjong"/>
               </entry>
               <entry>
                  <reference value="Observation/c4d67ccf-b1fd-11ea-5562-020000000000"/>
                  <display value="geboortegewichtjong"/>
               </entry>
               <entry>
                  <reference value="PractitionerRole/c4d66f9a-b1fd-11ea-5562-020000000000"/>
                  <display value="Vera de Los || Verloskundigenpraktijk A"/>
               </entry>
               <entry>
                  <reference value="ReferralRequest/c4d66c5f-b1fd-11ea-5562-020000000000"/>
                  <display value="Verwijzing naar   jong"/>
               </entry>
               <entry>
                  <reference value="Condition/c4d67ca6-b1fd-11ea-5562-020000000000"/>
                  <display value=""/>
               </entry>
               <entry>
                  <reference value="Procedure/c4d67cab-b1fd-11ea-5562-020000000000"/>
                  <display value="bevalling zwangerschap 2018-09-08 jong"/>
               </entry>
               <entry>
                  <reference value="Procedure/c4d67cba-b1fd-11ea-5562-020000000000"/>
                  <display value="baring zwangerschap 2018-09-08 jong"/>
               </entry>
            </section>
         </Composition>
      </resource>
      <request>
         <method value="PUT"/>
         <url value="Composition/samenvatting-zwangerschap2018-09-08"/>
      </request>
   </entry>
   <entry>
      <fullUrl value="urn:uuid:c4d66c66-b1fd-11ea-5562-020000000000"/>
      <resource>
         <Observation>
            <id value="c4d66c66-b1fd-11ea-5562-020000000000"/>
            <meta>
               <profile value="http://nictiz.nl/fhir/StructureDefinition/zib-LaboratoryTestResult-Observation"/>
            </meta>
            <status value="final">
               <extension url="http://nictiz.nl/fhir/StructureDefinition/code-specification">
                  <valueCodeableConcept>
                     <coding>
                        <system value="urn:oid:2.16.840.1.113883.2.4.3.11.60.40.4.16.1"/>
                        <code value="final"/>
                        <display value="Final"/>
                     </coding>
                  </valueCodeableConcept>
               </extension>
            </status>
            <category>
               <coding>
                  <system value="http://snomed.info/sct"/>
                  <code value="49581000146104"/>
               </coding>
            </category>
            <code>
               <coding>
                  <system value="http://loinc.org"/>
                  <code value="883-9"/>
                  <display value="ABO group [Type] in Blood"/>
               </coding>
            </code>
            <subject>
               <reference value="Patient/JONGDE"/>
               <display value="Jong de"/>
            </subject>
            <valueCodeableConcept>
               <coding>
                  <system value="http://snomed.info/sct"/>
                  <code value="165743006"/>
                  <display value="AB"/>
               </coding>
            </valueCodeableConcept>
         </Observation>
      </resource>
      <request>
         <method value="PUT"/>
         <url value="Observation/c4d66c66-b1fd-11ea-5562-020000000000"/>
      </request>
   </entry>
   <entry>
      <fullUrl value="urn:uuid:c4d66c7a-b1fd-11ea-5562-020000000000"/>
      <resource>
         <Patient>
            <id value="JONGDE"/>
            <meta>
               <profile value="http://fhir.nl/fhir/StructureDefinition/nl-core-patient"/>
            </meta>
            <identifier>
               <system value="http://fhir.nl/fhir/NamingSystem/bsn"/>
               <value value="999910413"/>
            </identifier>
            <name>
               <family value="de Jong">
                  <extension url="http://hl7.org/fhir/StructureDefinition/humanname-own-prefix">
                     <valueString value="de"/>
                  </extension>
                  <extension url="http://hl7.org/fhir/StructureDefinition/humanname-own-name">
                     <valueString value="Jong"/>
                  </extension>
               </family>
            </name>
         </Patient>
      </resource>
      <request>
         <method value="PUT"/>
         <url value="Patient/JONGDE"/>
      </request>
   </entry>
   <entry>
      <fullUrl value="urn:uuid:c4d66e5a-b1fd-11ea-5562-020000000000"/>
      <resource>
         <Patient>
            <id value="c4d66e5a-b1fd-11ea-5562-020000000000"/>
            <meta>
               <profile value="http://fhir.nl/fhir/StructureDefinition/nl-core-patient"/>
            </meta>
            <birthDate value="2018-08-30"/>
         </Patient>
      </resource>
      <request>
         <method value="PUT"/>
         <url value="Patient/c4d66e5a-b1fd-11ea-5562-020000000000"/>
      </request>
   </entry>
   <entry>
      <fullUrl value="urn:uuid:c4d66eb4-b1fd-11ea-5562-020000000000"/>
      <resource>
         <Observation>
            <id value="c4d66eb4-b1fd-11ea-5562-020000000000"/>
            <meta>
               <profile value="http://nictiz.nl/fhir/StructureDefinition/zib-LaboratoryTestResult-Observation"/>
            </meta>
            <status value="final">
               <extension url="http://nictiz.nl/fhir/StructureDefinition/code-specification">
                  <valueCodeableConcept>
                     <coding>
                        <system value="urn:oid:2.16.840.1.113883.2.4.3.11.60.40.4.16.1"/>
                        <code value="final"/>
                        <display value="Final"/>
                     </coding>
                  </valueCodeableConcept>
               </extension>
            </status>
            <category>
               <coding>
                  <system value="http://snomed.info/sct"/>
                  <code value="49581000146104"/>
               </coding>
            </category>
            <code>
               <coding>
                  <system value="http://loinc.org"/>
                  <code value="1305-2"/>
                  <display value="D Ag [Presence] in Blood"/>
               </coding>
            </code>
            <subject>
               <reference value="Patient/JONGDE"/>
               <display value="Jong de"/>
            </subject>
            <valueCodeableConcept>
               <coding>
                  <system value="http://snomed.info/sct"/>
                  <code value="165746003"/>
                  <display value="Rh D Negatief"/>
               </coding>
            </valueCodeableConcept>
         </Observation>
      </resource>
      <request>
         <method value="PUT"/>
         <url value="Observation/c4d66eb4-b1fd-11ea-5562-020000000000"/>
      </request>
   </entry>
   <entry>
      <fullUrl value="urn:uuid:c4d66f0e-b1fd-11ea-5562-020000000000"/>
      <resource>
         <Observation>
            <id value="c4d66f0e-b1fd-11ea-5562-020000000000"/>
            <meta>
               <profile value="http://nictiz.nl/fhir/StructureDefinition/zib-LaboratoryTestResult-Observation"/>
            </meta>
            <status value="final">
               <extension url="http://nictiz.nl/fhir/StructureDefinition/code-specification">
                  <valueCodeableConcept>
                     <coding>
                        <system value="urn:oid:2.16.840.1.113883.2.4.3.11.60.40.4.16.1"/>
                        <code value="final"/>
                        <display value="Final"/>
                     </coding>
                  </valueCodeableConcept>
               </extension>
            </status>
            <category>
               <coding>
                  <system value="http://snomed.info/sct"/>
                  <code value="49581000146104"/>
               </coding>
            </category>
            <code>
               <coding>
                  <system value="http://loinc.org"/>
                  <code value="718-7"/>
                  <display value="Hemoglobin (Bld) [Mass/Vol]"/>
               </coding>
            </code>
            <subject>
               <reference value="Patient/JONGDE"/>
               <display value="Jong de"/>
            </subject>
            <valueQuantity>
               <value value="8.7"/>
               <unit value="mmol/L"/>
               <system value="http://unitsofmeasure.org"/>
               <code value="mmol/L"/>
            </valueQuantity>
         </Observation>
      </resource>
      <request>
         <method value="PUT"/>
         <url value="Observation/c4d66f0e-b1fd-11ea-5562-020000000000"/>
      </request>
   </entry>
   <entry>
      <fullUrl value="urn:uuid:c4d67ca7-b1fd-11ea-5562-020000000000"/>
      <resource>
         <Observation>
            <id value="c4d67ca7-b1fd-11ea-5562-020000000000"/>
            <meta>
               <profile value="http://fhir.nl/fhir/StructureDefinition/nl-core-observation"/>
               <profile value="http://nictiz.nl/fhir/StructureDefinition/zib-Pregnancy-TermDate"/>
            </meta>
            <extension url="http://nictiz.nl/fhir/StructureDefinition/Observation-focusSTU3">
               <valueReference>
                  <reference value="Condition/c4d67ca6-b1fd-11ea-5562-020000000000"/>
                  <display value="Zwangerschap 2018-09-08 jong"/>
               </valueReference>
            </extension>
            <status value="final"/>
            <code>
               <coding/>
            </code>
            <subject>
               <reference value="Patient/JONGDE"/>
               <display value="Jong de"/>
            </subject>
            <context>
               <reference value="EpisodeOfCare/c4d67ca6-b1fd-11ea-5562-020000000000"/>
               <display value="Zwangerschap 2018-09-08 jong"/>
            </context>
            <valueDateTime value="2018-09-08"/>
         </Observation>
      </resource>
      <request>
         <method value="PUT"/>
         <url value="Observation/c4d67ca7-b1fd-11ea-5562-020000000000"/>
      </request>
   </entry>
   <entry>
      <fullUrl value="urn:uuid:c4d67ca6-b1fd-11ea-5562-020000000000"/>
      <resource>
         <EpisodeOfCare>
            <id value="c4d67ca6-b1fd-11ea-5562-020000000000"/>
            <meta>
               <profile value="http://fhir.nl/fhir/StructureDefinition/nl-core-episodeofcare"/>
               <profile value="http://nictiz.nl/fhir/StructureDefinition/bc-MaternalRecord"/>
            </meta>
            <status value="finished"/>
            <type>
               <coding>
                  <system value="http://snomed.info/sct"/>
                  <code value="364320009"/>
                  <display value="Pregnancy observable (observable entity)"/>
               </coding>
            </type>
            <diagnosis>
               <condition>
                  <reference value="Condition/c4d67ca6-b1fd-11ea-5562-020000000000"/>
                  <display value="Zwangerschap 2018-09-08 jong"/>
               </condition>
            </diagnosis>
            <patient>
               <reference value="Patient/JONGDE"/>
               <display value="Jong de"/>
            </patient>
            <managingOrganization>
               <reference value="Organization/VERLOSKUNDIGENPRAKTIJKA"/>
               <display value="Verloskundigenpraktijk A"/>
            </managingOrganization>
            <careManager>
               <reference value="Practitioner/c4d66f9b-b1fd-11ea-5562-020000000000"/>
               <display value="Vera de Los"/>
            </careManager>
         </EpisodeOfCare>
      </resource>
      <request>
         <method value="PUT"/>
         <url value="EpisodeOfCare/c4d67ca6-b1fd-11ea-5562-020000000000"/>
      </request>
   </entry>
   <entry>
      <fullUrl value="urn:uuid:c4d66f90-b1fd-11ea-5562-020000000000"/>
      <resource>
         <Organization>
            <id value="VERLOSKUNDIGENPRAKTIJKA"/>
            <meta>
               <profile value="http://fhir.nl/fhir/StructureDefinition/nl-core-organization"/>
            </meta>
            <name value="Verloskundigenpraktijk A"/>
         </Organization>
      </resource>
      <request>
         <method value="PUT"/>
         <url value="Organization/VERLOSKUNDIGENPRAKTIJKA"/>
      </request>
   </entry>
   <entry>
      <fullUrl value="urn:uuid:c4d66fa4-b1fd-11ea-5562-020000000000"/>
      <resource>
         <Organization>
            <id value="c4d66fa4-b1fd-11ea-5562-020000000000"/>
            <meta>
               <profile value="http://fhir.nl/fhir/StructureDefinition/nl-core-organization"/>
            </meta>
            <identifier>
               <value value="1200"/>
            </identifier>
         </Organization>
      </resource>
      <request>
         <method value="PUT"/>
         <url value="Organization/c4d66fa4-b1fd-11ea-5562-020000000000"/>
      </request>
   </entry>
   <entry>
      <fullUrl value="urn:uuid:c4d66f9b-b1fd-11ea-5562-020000000000"/>
      <resource>
         <Practitioner>
            <id value="c4d66f9b-b1fd-11ea-5562-020000000000"/>
            <meta>
               <profile value="http://fhir.nl/fhir/StructureDefinition/nl-core-practitioner"/>
            </meta>
            <name>
               <family value="Vera de Los">
                  <extension url="http://hl7.org/fhir/StructureDefinition/humanname-own-name">
                     <valueString value="Vera de Los"/>
                  </extension>
               </family>
            </name>
         </Practitioner>
      </resource>
      <request>
         <method value="PUT"/>
         <url value="Practitioner/c4d66f9b-b1fd-11ea-5562-020000000000"/>
      </request>
   </entry>
   <entry>
      <fullUrl value="urn:uuid:c4d67ca9-b1fd-11ea-5562-020000000000"/>
      <resource>
         <Observation>
            <id value="c4d67ca9-b1fd-11ea-5562-020000000000"/>
            <meta>
               <profile value="http://fhir.nl/fhir/StructureDefinition/nl-core-observation"/>
               <profile value="http://nictiz.nl/fhir/StructureDefinition/bc-PregnancyObservation"/>
            </meta>
            <extension url="http://nictiz.nl/fhir/StructureDefinition/Observation-focusSTU3">
               <valueReference>
                  <reference value="Condition/c4d67ca6-b1fd-11ea-5562-020000000000"/>
                  <display value="Zwangerschap 2018-09-08 jong"/>
               </valueReference>
            </extension>
            <status value="final"/>
            <code>
               <coding>
                  <system value="PerinatologyProcedurePRN"/>
                  <code value="PRN4209"/>
                  <display value="Voorgenomen plaats baring tijdens zwangerschap"/>
               </coding>
            </code>
            <subject>
               <reference value="Patient/JONGDE"/>
               <display value="Jong de"/>
            </subject>
            <context>
               <reference value="EpisodeOfCare/c4d67ca6-b1fd-11ea-5562-020000000000"/>
               <display value="Zwangerschap 2018-09-08 jong"/>
            </context>
            <valueCodeableConcept>
               <coding>
                  <system value="http://snomed.info/sct"/>
                  <code value="169813005"/>
                  <display value="Thuis"/>
               </coding>
            </valueCodeableConcept>
         </Observation>
      </resource>
      <request>
         <method value="PUT"/>
         <url value="Observation/c4d67ca9-b1fd-11ea-5562-020000000000"/>
      </request>
   </entry>
   <entry>
      <fullUrl value="urn:uuid:c4d67caa-b1fd-11ea-5562-020000000000"/>
      <resource>
         <Observation>
            <id value="c4d67caa-b1fd-11ea-5562-020000000000"/>
            <meta>
               <profile value="http://fhir.nl/fhir/StructureDefinition/nl-core-observation"/>
               <profile value="http://nictiz.nl/fhir/StructureDefinition/bc-PregnancyObservation"/>
            </meta>
            <extension url="http://nictiz.nl/fhir/StructureDefinition/Observation-focusSTU3">
               <valueReference>
                  <reference value="Condition/c4d67ca6-b1fd-11ea-5562-020000000000"/>
                  <display value="Zwangerschap 2018-09-08 jong"/>
               </valueReference>
            </extension>
            <status value="final"/>
            <code>
               <coding>
                  <system value="https://snomed.info/sct"/>
                  <code value="169740003"/>
                  <display value="Infant feeding method (observable entity)"/>
               </coding>
            </code>
            <subject>
               <reference value="Patient/JONGDE"/>
               <display value="Jong de"/>
            </subject>
            <context>
               <reference value="EpisodeOfCare/c4d67ca6-b1fd-11ea-5562-020000000000"/>
               <display value="Zwangerschap 2018-09-08 jong"/>
            </context>
            <valueCodeableConcept>
               <coding>
                  <system value="http://snomed.info/sct"/>
                  <code value="169643005"/>
                  <display value="borstvoeding"/>
               </coding>
            </valueCodeableConcept>
         </Observation>
      </resource>
      <request>
         <method value="PUT"/>
         <url value="Observation/c4d67caa-b1fd-11ea-5562-020000000000"/>
      </request>
   </entry>
   <entry>
      <fullUrl value="urn:uuid:c4d67cad-b1fd-11ea-5562-020000000000"/>
      <resource>
         <Observation>
            <id value="c4d67cad-b1fd-11ea-5562-020000000000"/>
            <meta>
               <profile value="http://fhir.nl/fhir/StructureDefinition/nl-core-observation"/>
               <profile value="http://nictiz.nl/fhir/StructureDefinition/bc-DeliveryObservation"/>
            </meta>
            <extension url="http://nictiz.nl/fhir/StructureDefinition/Observation-focusSTU3">
               <valueReference>
                  <reference value="Procedure/c4d67cab-b1fd-11ea-5562-020000000000"/>
                  <display value="bevalling zwangerschap 2018-09-08 jong"/>
               </valueReference>
            </extension>
            <status value="final"/>
            <code>
               <coding>
                  <system value="http://snomed.info/sct"/>
                  <code value="249120008"/>
                  <display value="Onset of labor first stage (observable entity)"/>
               </coding>
            </code>
            <subject>
               <reference value="Patient/JONGDE"/>
               <display value="Jong de"/>
            </subject>
            <context>
               <reference value="EpisodeOfCare/c4d67ca6-b1fd-11ea-5562-020000000000"/>
               <display value="Zwangerschap 2018-09-08 jong"/>
            </context>
            <valueDateTime value="2018-08-30T14:09:00Z"/>
         </Observation>
      </resource>
      <request>
         <method value="PUT"/>
         <url value="Observation/c4d67cad-b1fd-11ea-5562-020000000000"/>
      </request>
   </entry>
   <entry>
      <fullUrl value="urn:uuid:c4d67caf-b1fd-11ea-5562-020000000000"/>
      <resource>
         <Observation>
            <id value="c4d67caf-b1fd-11ea-5562-020000000000"/>
            <meta>
               <profile value="http://fhir.nl/fhir/StructureDefinition/nl-core-observation"/>
               <profile value="http://nictiz.nl/fhir/StructureDefinition/bc-DeliveryObservation"/>
            </meta>
            <extension url="http://nictiz.nl/fhir/StructureDefinition/Observation-focusSTU3">
               <valueReference>
                  <reference value="Procedure/c4d67cab-b1fd-11ea-5562-020000000000"/>
                  <display value="bevalling zwangerschap 2018-09-08 jong"/>
               </valueReference>
            </extension>
            <status value="final"/>
            <code>
               <coding>
                  <system value="http://snomed.info/sct"/>
                  <code value="364332008"/>
                  <display value="Blood loss in labour"/>
               </coding>
            </code>
            <subject>
               <reference value="Patient/JONGDE"/>
               <display value="Jong de"/>
            </subject>
            <context>
               <reference value="EpisodeOfCare/c4d67ca6-b1fd-11ea-5562-020000000000"/>
               <display value="Zwangerschap 2018-09-08 jong"/>
            </context>
            <valueQuantity>
               <value value="980"/>
               <unit value="ml"/>
               <system value="http://unitsofmeasure.org"/>
               <code value="ml"/>
            </valueQuantity>
         </Observation>
      </resource>
      <request>
         <method value="PUT"/>
         <url value="Observation/c4d67caf-b1fd-11ea-5562-020000000000"/>
      </request>
   </entry>
   <entry>
      <fullUrl value="urn:uuid:c4d67cb0-b1fd-11ea-5562-020000000000"/>
      <resource>
         <Observation>
            <id value="c4d67cb0-b1fd-11ea-5562-020000000000"/>
            <meta>
               <profile value="http://fhir.nl/fhir/StructureDefinition/nl-core-observation"/>
               <profile value="http://nictiz.nl/fhir/StructureDefinition/bc-DeliveryObservation"/>
            </meta>
            <extension url="http://nictiz.nl/fhir/StructureDefinition/Observation-focusSTU3">
               <valueReference>
                  <reference value="Procedure/c4d67cab-b1fd-11ea-5562-020000000000"/>
                  <display value="bevalling zwangerschap 2018-09-08 jong"/>
               </valueReference>
            </extension>
            <status value="final"/>
            <code>
               <coding>
                  <system value="http://snomed.info/sct"/>
                  <code value="364297003"/>
                  <display value="Female perineum observable (observable entity)"/>
               </coding>
            </code>
            <subject>
               <reference value="Patient/JONGDE"/>
               <display value="Jong de"/>
            </subject>
            <context>
               <reference value="EpisodeOfCare/c4d67ca6-b1fd-11ea-5562-020000000000"/>
               <display value="Zwangerschap 2018-09-08 jong"/>
            </context>
            <valueCodeableConcept>
               <coding>
                  <system value="http://snomed.info/sct"/>
                  <code value="199925004"/>
                  <display value="2e graads perineumruptuur"/>
               </coding>
            </valueCodeableConcept>
         </Observation>
      </resource>
      <request>
         <method value="PUT"/>
         <url value="Observation/c4d67cb0-b1fd-11ea-5562-020000000000"/>
      </request>
   </entry>
   <entry>
      <fullUrl value="urn:uuid:c4d67cc3-b1fd-11ea-5562-020000000000"/>
      <resource>
         <Observation>
            <id value="c4d67cc3-b1fd-11ea-5562-020000000000"/>
            <meta>
               <profile value="http://fhir.nl/fhir/StructureDefinition/nl-core-observation"/>
               <profile value="http://nictiz.nl/fhir/StructureDefinition/bc-BirthObservation"/>
            </meta>
            <extension url="http://nictiz.nl/fhir/StructureDefinition/Observation-focusSTU3">
               <valueReference>
                  <reference value="Procedure/c4d67cba-b1fd-11ea-5562-020000000000"/>
                  <display value="baring zwangerschap 2018-09-08 jong"/>
               </valueReference>
            </extension>
            <status value="final"/>
            <code>
               <coding>
                  <system value="http://snomed.info/sct"/>
                  <code value="249163006"/>
                  <display value="Onset of pushing (in labor) (observable entity)"/>
               </coding>
            </code>
            <subject>
               <reference value="Patient/JONGDE"/>
               <display value="Jong de"/>
            </subject>
            <context>
               <reference value="EpisodeOfCare/c4d67ca6-b1fd-11ea-5562-020000000000"/>
               <display value="Zwangerschap 2018-09-08 jong"/>
            </context>
            <valueDateTime value="2018-08-30T19:54:00Z"/>
         </Observation>
      </resource>
      <request>
         <method value="PUT"/>
         <url value="Observation/c4d67cc3-b1fd-11ea-5562-020000000000"/>
      </request>
   </entry>
   <entry>
      <fullUrl value="urn:uuid:c4d67cc5-b1fd-11ea-5562-020000000000"/>
      <resource>
         <Observation>
            <id value="c4d67cc5-b1fd-11ea-5562-020000000000"/>
            <meta>
               <profile value="http://fhir.nl/fhir/StructureDefinition/nl-core-observation"/>
               <profile value="http://nictiz.nl/fhir/StructureDefinition/bc-BirthObservation"/>
            </meta>
            <extension url="http://nictiz.nl/fhir/StructureDefinition/Observation-focusSTU3">
               <valueReference>
                  <reference value="Procedure/c4d67cba-b1fd-11ea-5562-020000000000"/>
                  <display value="baring zwangerschap 2018-09-08 jong"/>
               </valueReference>
            </extension>
            <status value="final"/>
            <code>
               <coding>
                  <system value="http://snomed.info/sct"/>
                  <code value="364336006"/>
                  <display value="Pattern of delivery (observable entity)"/>
               </coding>
            </code>
            <subject>
               <reference value="Patient/JONGDE"/>
               <display value="Jong de"/>
            </subject>
            <context>
               <reference value="EpisodeOfCare/c4d67ca6-b1fd-11ea-5562-020000000000"/>
               <display value="Zwangerschap 2018-09-08 jong"/>
            </context>
            <valueCodeableConcept>
               <coding>
                  <system value="http://snomed.info/sct"/>
                  <code value="177184002"/>
                  <display value="Spontaan"/>
               </coding>
            </valueCodeableConcept>
         </Observation>
      </resource>
      <request>
         <method value="PUT"/>
         <url value="Observation/c4d67cc5-b1fd-11ea-5562-020000000000"/>
      </request>
   </entry>
   <entry>
      <fullUrl value="urn:uuid:c4d67ccf-b1fd-11ea-5562-020000000000"/>
      <resource>
         <Observation>
            <id value="c4d67ccf-b1fd-11ea-5562-020000000000"/>
            <meta>
               <profile value="http://fhir.nl/fhir/StructureDefinition/nl-core-observation"/>
               <profile value="http://nictiz.nl/fhir/StructureDefinition/bc-BirthObservation"/>
            </meta>
            <status value="final"/>
            <code>
               <coding>
                  <system value="http://loinc.org"/>
                  <code value="8339-4"/>
                  <display value="Birth weight Measured"/>
               </coding>
            </code>
            <subject>
               <reference value="Patient/c4d66e5a-b1fd-11ea-5562-020000000000"/>
               <display value="Kind jong"/>
            </subject>
            <context>
               <reference value="EpisodeOfCare/c4d67ca6-b1fd-11ea-5562-020000000000"/>
               <display value="Zwangerschap 2018-09-08 jong"/>
            </context>
            <valueQuantity>
               <extension url="http://hl7.org/fhir/StructureDefinition/iso21090-nullFlavor">
                  <valueCode value="NI"/>
               </extension>
            </valueQuantity>
         </Observation>
      </resource>
      <request>
         <method value="PUT"/>
         <url value="Observation/c4d67ccf-b1fd-11ea-5562-020000000000"/>
      </request>
   </entry>
   <entry>
      <fullUrl value="urn:uuid:c4d66f9a-b1fd-11ea-5562-020000000000"/>
      <resource>
         <PractitionerRole>
            <id value="c4d66f9a-b1fd-11ea-5562-020000000000"/>
            <meta>
               <profile value="http://fhir.nl/fhir/StructureDefinition/nl-core-practitionerrole"/>
            </meta>
            <practitioner>
               <reference value="Practitioner/c4d66f9b-b1fd-11ea-5562-020000000000"/>
               <display value="Vera de Los"/>
            </practitioner>
            <organization>
               <reference value="Organization/VERLOSKUNDIGENPRAKTIJKA"/>
               <display value="Verloskundigenpraktijk A"/>
            </organization>
         </PractitionerRole>
      </resource>
      <request>
         <method value="PUT"/>
         <url value="PractitionerRole/c4d66f9a-b1fd-11ea-5562-020000000000"/>
      </request>
   </entry>
   <entry>
      <fullUrl value="urn:uuid:c4d66c5f-b1fd-11ea-5562-020000000000"/>
      <resource>
         <ReferralRequest>
            <id value="c4d66c5f-b1fd-11ea-5562-020000000000"/>
            <meta>
               <profile value="http://nictiz.nl/fhir/StructureDefinition/bc-ReferralRequest"/>
            </meta>
            <status value="active"/>
            <intent value="order"/>
            <type>
               <coding>
                  <system value="http://snomed.info/sct"/>
                  <code value="308292007"/>
                  <display value="Transfer of care (procedure)"/>
               </coding>
            </type>
            <subject>
               <reference value="Patient/JONGDE"/>
               <display value="Jong de"/>
            </subject>
            <context>
               <reference value="EpisodeOfCare/c4d67ca6-b1fd-11ea-5562-020000000000"/>
               <display value="Zwangerschap 2018-09-08 jong"/>
            </context>
            <authoredOn value="2018-05-06T00:00:00Z"/>
            <requester>
               <agent>
                  <reference value="Organization/VERLOSKUNDIGENPRAKTIJKA"/>
                  <display value="Verloskundigenpraktijk A"/>
               </agent>
            </requester>
            <specialty>
               <coding>
                  <system value="gynaecoloog 2e lijn"/>
                  <code value="02"/>
                  <display value="2.16.840.1.113883.2.4.4.15.1"/>
               </coding>
            </specialty>
            <recipient>
               <reference value="Organization/c4d66fa4-b1fd-11ea-5562-020000000000"/>
               <display value="Organisatie met id '1200' in identificerend systeem ''."/>
            </recipient>
         </ReferralRequest>
      </resource>
      <request>
         <method value="PUT"/>
         <url value="ReferralRequest/c4d66c5f-b1fd-11ea-5562-020000000000"/>
      </request>
   </entry>
   <entry>
      <fullUrl value="urn:uuid:c4d67ca6-b1fd-11ea-5562-020000000000"/>
      <resource>
         <Condition>
            <id value="c4d67ca6-b1fd-11ea-5562-020000000000"/>
            <meta>
               <profile value="http://nictiz.nl/fhir/StructureDefinition/zib-Pregnancy"/>
            </meta>
            <code>
               <coding>
                  <system value="http://snomed.info/sct"/>
                  <code value="364320009"/>
                  <display value="Pregnancy observable (observable entity)"/>
               </coding>
            </code>
            <subject>
               <reference value="Patient/JONGDE"/>
               <display value="Jong de"/>
            </subject>
            <context>
               <reference value="EpisodeOfCare/c4d67ca6-b1fd-11ea-5562-020000000000"/>
               <display value="Zwangerschap 2018-09-08 jong"/>
            </context>
         </Condition>
      </resource>
      <request>
         <method value="PUT"/>
         <url value="Condition/c4d67ca6-b1fd-11ea-5562-020000000000"/>
      </request>
   </entry>
   <entry>
      <fullUrl value="urn:uuid:c4d67cab-b1fd-11ea-5562-020000000000"/>
      <resource>
         <Procedure>
            <id value="c4d67cab-b1fd-11ea-5562-020000000000"/>
            <meta>
               <profile value="http://nictiz.nl/fhir/StructureDefinition/zib-Procedure"/>
               <profile value="http://nictiz.nl/fhir/StructureDefinition/bc-DeliveryProcedure"/>
            </meta>
            <status value="completed"/>
            <category>
               <coding>
                  <system value="http://snomed.info/sct"/>
                  <code value="386637004"/>
                  <display value="Obstetric procedure (procedure)"/>
               </coding>
            </category>
            <code>
               <coding>
                  <system value="http://snomed.info/sct"/>
                  <code value="236973005"/>
                  <display value="Delivery procedure (procedure)"/>
               </coding>
            </code>
            <subject>
               <reference value="Patient/JONGDE"/>
               <display value="Jong de"/>
            </subject>
            <context>
               <reference value="EpisodeOfCare/c4d67ca6-b1fd-11ea-5562-020000000000"/>
               <display value="Zwangerschap 2018-09-08 jong"/>
            </context>
            <performedPeriod>
               <start value="2018-08-30T14:09:00Z"/>
            </performedPeriod>
            <reasonReference>
               <reference value="Condition/c4d67ca6-b1fd-11ea-5562-020000000000"/>
               <display value="Zwangerschap 2018-09-08 jong"/>
            </reasonReference>
         </Procedure>
      </resource>
      <request>
         <method value="PUT"/>
         <url value="Procedure/c4d67cab-b1fd-11ea-5562-020000000000"/>
      </request>
   </entry>
   <entry>
      <fullUrl value="urn:uuid:c4d67cba-b1fd-11ea-5562-020000000000"/>
      <resource>
         <Procedure>
            <id value="c4d67cba-b1fd-11ea-5562-020000000000"/>
            <meta>
               <profile value="http://nictiz.nl/fhir/StructureDefinition/zib-Procedure"/>
               <profile value="http://nictiz.nl/fhir/StructureDefinition/bc-Birth"/>
            </meta>
            <partOf>
               <reference value="Procedure/c4d67cab-b1fd-11ea-5562-020000000000"/>
               <display value="bevalling zwangerschap 2018-09-08 jong"/>
            </partOf>
            <status value="completed"/>
            <category>
               <coding>
                  <system value="http://snomed.info/sct"/>
                  <code value="386637004"/>
                  <display value="Obstetric procedure (procedure)"/>
               </coding>
            </category>
            <code>
               <coding>
                  <system value="http://snomed.info/sct"/>
                  <code value="3950001"/>
                  <display value="Birth (finding)"/>
               </coding>
            </code>
            <subject>
               <reference value="Patient/c4d66e5a-b1fd-11ea-5562-020000000000"/>
               <display value="Kind jong"/>
            </subject>
            <context>
               <reference value="EpisodeOfCare/c4d67ca6-b1fd-11ea-5562-020000000000"/>
               <display value="Zwangerschap 2018-09-08 jong"/>
            </context>
            <reasonReference>
               <reference value="Condition/c4d67ca6-b1fd-11ea-5562-020000000000"/>
               <display value="Zwangerschap 2018-09-08 jong"/>
            </reasonReference>
         </Procedure>
      </resource>
      <request>
         <method value="PUT"/>
         <url value="Procedure/c4d67cba-b1fd-11ea-5562-020000000000"/>
      </request>
   </entry>
   <entry>
      <fullUrl value="urn:uuid:c4d67170-b1fd-11ea-5562-020000000000"/>
      <resource>
         <RelatedPerson>
            <id value="KEESJONGDE"/>
            <meta>
               <profile value="http://fhir.nl/fhir/StructureDefinition/nl-core-relatedperson"/>
            </meta>
            <patient>
               <reference value="Patient/JONGDE"/>
               <display value="Jong de"/>
            </patient>
            <name>
               <family value="de Jong">
                  <extension url="http://hl7.org/fhir/StructureDefinition/humanname-own-prefix">
                     <valueString value="de"/>
                  </extension>
                  <extension url="http://hl7.org/fhir/StructureDefinition/humanname-own-name">
                     <valueString value="Jong"/>
                  </extension>
               </family>
               <given value="Kees">
                  <extension url="http://hl7.org/fhir/StructureDefinition/iso21090-EN-qualifier">
                     <valueCode value="BR"/>
                  </extension>
               </given>
            </name>
         </RelatedPerson>
      </resource>
      <request>
         <method value="PUT"/>
         <url value="RelatedPerson/KEESJONGDE"/>
      </request>
   </entry>
</Bundle>
