<?xml version="1.0" encoding="UTF-8"?>
<Bundle xmlns="http://hl7.org/fhir">
   <id value="samenvatting-zwangerschap1"/>
   <type value="transaction"/>
   <entry>
      <fullUrl value="urn:uuid:2091c13a-ac82-11ea-9046-020000000000"/>
      <resource>
         <Patient>
            <id value="JONGDE"/>
            <meta>
               <profile value="http://fhir.nl/fhir/StructureDefinition/nl-core-patient"/>
            </meta>
            <identifier>
               <system value="http://fhir.nl/fhir/NamingSystem/bsn"/>
               <value value="999910413"/>
            </identifier>
            <name>
               <family value="de Jong">
                  <extension url="http://hl7.org/fhir/StructureDefinition/humanname-own-prefix">
                     <valueString value="de"/>
                  </extension>
                  <extension url="http://hl7.org/fhir/StructureDefinition/humanname-own-name">
                     <valueString value="Jong"/>
                  </extension>
               </family>
            </name>
         </Patient>
      </resource>
      <request>
         <method value="PUT"/>
         <url value="Patient/JONGDE"/>
      </request>
   </entry>
   <entry>
      <fullUrl value="urn:uuid:2091c496-ac82-11ea-9046-020000000000"/>
      <resource>
         <Practitioner>
            <id value="2091c496-ac82-11ea-9046-020000000000"/>
            <meta>
               <profile value="http://fhir.nl/fhir/StructureDefinition/nl-core-practitioner"/>
            </meta>
            <name>
               <family value="Vera de Los">
                  <extension url="http://hl7.org/fhir/StructureDefinition/humanname-own-name">
                     <valueString value="Vera de Los"/>
                  </extension>
               </family>
            </name>
         </Practitioner>
      </resource>
      <request>
         <method value="PUT"/>
         <url value="Practitioner/2091c496-ac82-11ea-9046-020000000000"/>
      </request>
   </entry>
   <entry>
      <fullUrl value="urn:uuid:2091c540-ac82-11ea-9046-020000000000"/>
      <resource>
         <Organization>
            <id value=""/>
            <meta>
               <profile value="http://fhir.nl/fhir/StructureDefinition/nl-core-organization"/>
            </meta>
         </Organization>
      </resource>
      <request>
         <method value="PUT"/>
         <url value="Organization/"/>
      </request>
   </entry>
   <entry>
      <fullUrl value="urn:uuid:2091c57c-ac82-11ea-9046-020000000000"/>
      <resource>
         <RelatedPerson>
            <id value="KEESJONGDE"/>
            <meta>
               <profile value="http://fhir.nl/fhir/StructureDefinition/nl-core-relatedperson"/>
            </meta>
            <patient>
               <reference value="Patient/JONGDE"/>
               <display value="Jong de"/>
            </patient>
            <name>
               <family value="de Jong">
                  <extension url="http://hl7.org/fhir/StructureDefinition/humanname-own-prefix">
                     <valueString value="de"/>
                  </extension>
                  <extension url="http://hl7.org/fhir/StructureDefinition/humanname-own-name">
                     <valueString value="Jong"/>
                  </extension>
               </family>
               <given value="Kees">
                  <extension url="http://hl7.org/fhir/StructureDefinition/iso21090-EN-qualifier">
                     <valueCode value="BR"/>
                  </extension>
               </given>
            </name>
         </RelatedPerson>
      </resource>
      <request>
         <method value="PUT"/>
         <url value="RelatedPerson/KEESJONGDE"/>
      </request>
   </entry>
   <entry>
      <fullUrl value="urn:uuid:2091c572-ac82-11ea-9046-020000000000"/>
      <resource>
         <Organization>
            <id value="VERLOSKUNDIGENPRAKTIJKA"/>
            <meta>
               <profile value="http://fhir.nl/fhir/StructureDefinition/nl-core-organization"/>
            </meta>
            <name value="Verloskundigenpraktijk A"/>
         </Organization>
      </resource>
      <request>
         <method value="PUT"/>
         <url value="Organization/VERLOSKUNDIGENPRAKTIJKA"/>
      </request>
   </entry>
   <entry>
      <fullUrl value="urn:uuid:2091c32e-ac82-11ea-9046-020000000000"/>
      <resource>
         <Observation>
            <id value="bloedgroep-vrouw-zwangerschap-1"/>
            <meta>
               <profile value="http://nictiz.nl/fhir/StructureDefinition/zib-LaboratoryTestResult-Observation"/>
            </meta>
            <status value="final">
               <extension url="http://nictiz.nl/fhir/StructureDefinition/code-specification">
                  <valueCodeableConcept>
                     <coding>
                        <system value="urn:oid:2.16.840.1.113883.2.4.3.11.60.40.4.16.1"/>
                        <code value="final"/>
                        <display value="Final"/>
                     </coding>
                  </valueCodeableConcept>
               </extension>
            </status>
            <category>
               <coding>
                  <system value="http://snomed.info/sct"/>
                  <code value="49581000146104"/>
               </coding>
            </category>
            <code>
               <coding>
                  <system value="http://loinc.org"/>
                  <code value="883-9"/>
                  <display value="ABO group [Type] in Blood"/>
               </coding>
            </code>
            <subject>
               <reference value="Patient/JONGDE"/>
               <display value="Jong de"/>
            </subject>
            <valueCodeableConcept>
               <coding>
                  <system value="http://snomed.info/sct"/>
                  <code value="165743006"/>
                  <display value="AB"/>
               </coding>
            </valueCodeableConcept>
         </Observation>
      </resource>
      <request>
         <method value="PUT"/>
         <url value="Observation/bloedgroep-vrouw-zwangerschap-1"/>
      </request>
   </entry>
   <entry>
      <fullUrl value="urn:uuid:2091c388-ac82-11ea-9046-020000000000"/>
      <resource>
         <Observation>
            <id value="rhesus-d-factor-vrouw-zwangerschap-1"/>
            <meta>
               <profile value="http://nictiz.nl/fhir/StructureDefinition/zib-LaboratoryTestResult-Observation"/>
            </meta>
            <status value="final">
               <extension url="http://nictiz.nl/fhir/StructureDefinition/code-specification">
                  <valueCodeableConcept>
                     <coding>
                        <system value="urn:oid:2.16.840.1.113883.2.4.3.11.60.40.4.16.1"/>
                        <code value="final"/>
                        <display value="Final"/>
                     </coding>
                  </valueCodeableConcept>
               </extension>
            </status>
            <category>
               <coding>
                  <system value="http://snomed.info/sct"/>
                  <code value="49581000146104"/>
               </coding>
            </category>
            <code>
               <coding>
                  <system value="http://loinc.org"/>
                  <code value="1305-2"/>
                  <display value="D Ag [Presence] in Blood"/>
               </coding>
            </code>
            <subject>
               <reference value="Patient/JONGDE"/>
               <display value="Jong de"/>
            </subject>
            <valueCodeableConcept>
               <coding>
                  <system value="http://snomed.info/sct"/>
                  <code value="165746003"/>
                  <display value="Rh D Negatief"/>
               </coding>
            </valueCodeableConcept>
         </Observation>
      </resource>
      <request>
         <method value="PUT"/>
         <url value="Observation/rhesus-d-factor-vrouw-zwangerschap-1"/>
      </request>
   </entry>
   <entry>
      <fullUrl value="urn:uuid:2091c3e2-ac82-11ea-9046-020000000000"/>
      <resource>
         <Observation>
            <id value="hb-zwangerschap-1"/>
            <meta>
               <profile value="http://nictiz.nl/fhir/StructureDefinition/zib-LaboratoryTestResult-Observation"/>
            </meta>
            <status value="final">
               <extension url="http://nictiz.nl/fhir/StructureDefinition/code-specification">
                  <valueCodeableConcept>
                     <coding>
                        <system value="urn:oid:2.16.840.1.113883.2.4.3.11.60.40.4.16.1"/>
                        <code value="final"/>
                        <display value="Final"/>
                     </coding>
                  </valueCodeableConcept>
               </extension>
            </status>
            <category>
               <coding>
                  <system value="http://snomed.info/sct"/>
                  <code value="49581000146104"/>
               </coding>
            </category>
            <code>
               <coding>
                  <system value="http://loinc.org"/>
                  <code value="718-7"/>
                  <display value="Hemoglobin (Bld) [Mass/Vol]"/>
               </coding>
            </code>
            <subject>
               <reference value="Patient/JONGDE"/>
               <display value="Jong de"/>
            </subject>
            <valueQuantity>
               <value value="8.7"/>
               <unit value="mmol/L"/>
               <system value="http://unitsofmeasure.org"/>
               <code value="mmol/L"/>
            </valueQuantity>
         </Observation>
      </resource>
      <request>
         <method value="PUT"/>
         <url value="Observation/hb-zwangerschap-1"/>
      </request>
   </entry>
   <entry>
      <fullUrl value="urn:uuid:2091c428-ac82-11ea-9046-020000000000"/>
      <resource>
         <Observation>
            <id value="definitieve-a-terme-datum-zwangerschap-1"/>
            <meta>
               <profile value="http://fhir.nl/fhir/StructureDefinition/nl-core-observation"/>
               <profile value="http://nictiz.nl/fhir/StructureDefinition/zib-Pregnancy-TermDate"/>
            </meta>
            <extension url="http://nictiz.nl/fhir/StructureDefinition/Observation-focusSTU3">
               <valueReference>
                  <reference value="Condition/jong-zwangerschap-1"/>
               </valueReference>
            </extension>
            <status value="final"/>
            <code>
               <coding/>
            </code>
            <subject>
               <reference value="Patient/JONGDE"/>
               <display value="Jong de"/>
            </subject>
            <context>
               <reference value="EpisodeOfCare/dossier-jong-zwangerschap-1"/>
            </context>
            <valueDateTime value="2018-09-08"/>
         </Observation>
      </resource>
      <request>
         <method value="PUT"/>
         <url value="Observation/definitieve-a-terme-datum-zwangerschap-1"/>
      </request>
   </entry>
   <entry>
      <fullUrl value="urn:uuid:2091c432-ac82-11ea-9046-020000000000"/>
      <resource>
         <Observation>
            <id value="voorgenomen-plaats-baring-tijdens-zwangerschap-type-locatie-zwangerschap-1"/>
            <meta>
               <profile value="http://fhir.nl/fhir/StructureDefinition/nl-core-observation"/>
               <profile value="http://nictiz.nl/fhir/StructureDefinition/bc-PregnancyObservation"/>
            </meta>
            <extension url="http://nictiz.nl/fhir/StructureDefinition/Observation-focusSTU3">
               <valueReference>
                  <reference value="Condition/jong-zwangerschap-1"/>
               </valueReference>
            </extension>
            <status value="final"/>
            <code>
               <coding>
                  <system value="PerinatologyProcedurePRN"/>
                  <code value="PRN4209"/>
                  <display value="Voorgenomen plaats baring tijdens zwangerschap"/>
               </coding>
            </code>
            <subject>
               <reference value="Patient/JONGDE"/>
               <display value="Jong de"/>
            </subject>
            <context>
               <reference value="EpisodeOfCare/dossier-jong-zwangerschap-1"/>
            </context>
            <valueCodeableConcept>
               <coding>
                  <system value="http://snomed.info/sct"/>
                  <code value="169813005"/>
                  <display value="Thuis"/>
               </coding>
            </valueCodeableConcept>
         </Observation>
      </resource>
      <request>
         <method value="PUT"/>
         <url value="Observation/voorgenomen-plaats-baring-tijdens-zwangerschap-type-locatie-zwangerschap-1"/>
      </request>
   </entry>
   <entry>
      <fullUrl value="urn:uuid:2091c43c-ac82-11ea-9046-020000000000"/>
      <resource>
         <Observation>
            <id value="voorgenomen-voeding-zwangerschap-1"/>
            <meta>
               <profile value="http://fhir.nl/fhir/StructureDefinition/nl-core-observation"/>
               <profile value="http://nictiz.nl/fhir/StructureDefinition/bc-PregnancyObservation"/>
            </meta>
            <extension url="http://nictiz.nl/fhir/StructureDefinition/Observation-focusSTU3">
               <valueReference>
                  <reference value="Condition/jong-zwangerschap-1"/>
               </valueReference>
            </extension>
            <status value="final"/>
            <code>
               <coding>
                  <system value="https://snomed.info/sct"/>
                  <code value="169740003"/>
                  <display value="Infant feeding method (observable entity)"/>
               </coding>
            </code>
            <subject>
               <reference value="Patient/JONGDE"/>
               <display value="Jong de"/>
            </subject>
            <context>
               <reference value="EpisodeOfCare/dossier-jong-zwangerschap-1"/>
            </context>
            <valueCodeableConcept>
               <coding>
                  <system value="http://snomed.info/sct"/>
                  <code value="169643005"/>
                  <display value="borstvoeding"/>
               </coding>
            </valueCodeableConcept>
         </Observation>
      </resource>
      <request>
         <method value="PUT"/>
         <url value="Observation/voorgenomen-voeding-zwangerschap-1"/>
      </request>
   </entry>
   <entry>
      <fullUrl value="urn:uuid:2091c446-ac82-11ea-9046-020000000000"/>
      <resource>
         <Observation>
            <id value="tijdstip-begin-actieve-ontsluiting-zwangerschap-1"/>
            <meta>
               <profile value="http://fhir.nl/fhir/StructureDefinition/nl-core-observation"/>
               <profile value="http://nictiz.nl/fhir/StructureDefinition/bc-DeliveryObservation"/>
            </meta>
            <extension url="http://nictiz.nl/fhir/StructureDefinition/Observation-focusSTU3">
               <valueReference>
                  <reference value="Procedure/bevalling-jong-zwangerschap-1"/>
               </valueReference>
            </extension>
            <status value="final"/>
            <code>
               <coding>
                  <system value="http://snomed.info/sct"/>
                  <code value="249120008"/>
                  <display value="Onset of labor first stage (observable entity)"/>
               </coding>
            </code>
            <subject>
               <reference value="Patient/JONGDE"/>
               <display value="Jong de"/>
            </subject>
            <context>
               <reference value="EpisodeOfCare/dossier-jong-zwangerschap-1"/>
            </context>
            <valueDateTime value="2018-08-30T14:09:00Z"/>
         </Observation>
      </resource>
      <request>
         <method value="PUT"/>
         <url value="Observation/tijdstip-begin-actieve-ontsluiting-zwangerschap-1"/>
      </request>
   </entry>
   <entry>
      <fullUrl value="urn:uuid:2091c45a-ac82-11ea-9046-020000000000"/>
      <resource>
         <Observation>
            <id value="hoeveelheid-bloedverlies-zwangerschap-1"/>
            <meta>
               <profile value="http://fhir.nl/fhir/StructureDefinition/nl-core-observation"/>
               <profile value="http://nictiz.nl/fhir/StructureDefinition/bc-DeliveryObservation"/>
            </meta>
            <extension url="http://nictiz.nl/fhir/StructureDefinition/Observation-focusSTU3">
               <valueReference>
                  <reference value="Procedure/bevalling-jong-zwangerschap-1"/>
               </valueReference>
            </extension>
            <status value="final"/>
            <code>
               <coding>
                  <system value="http://snomed.info/sct"/>
                  <code value="364332008"/>
                  <display value="Blood loss in labour"/>
               </coding>
            </code>
            <subject>
               <reference value="Patient/JONGDE"/>
               <display value="Jong de"/>
            </subject>
            <context>
               <reference value="EpisodeOfCare/dossier-jong-zwangerschap-1"/>
            </context>
            <valueQuantity>
               <value value="980"/>
               <unit value="ml"/>
               <system value="http://unitsofmeasure.org"/>
               <code value="ml"/>
            </valueQuantity>
         </Observation>
      </resource>
      <request>
         <method value="PUT"/>
         <url value="Observation/hoeveelheid-bloedverlies-zwangerschap-1"/>
      </request>
   </entry>
   <entry>
      <fullUrl value="urn:uuid:2091c464-ac82-11ea-9046-020000000000"/>
      <resource>
         <Observation>
            <id value="conditie-perineum-postpartum-zwangerschap-1"/>
            <meta>
               <profile value="http://fhir.nl/fhir/StructureDefinition/nl-core-observation"/>
               <profile value="http://nictiz.nl/fhir/StructureDefinition/bc-DeliveryObservation"/>
            </meta>
            <extension url="http://nictiz.nl/fhir/StructureDefinition/Observation-focusSTU3">
               <valueReference>
                  <reference value="Procedure/bevalling-jong-zwangerschap-1"/>
               </valueReference>
            </extension>
            <status value="final"/>
            <code>
               <coding>
                  <system value="http://snomed.info/sct"/>
                  <code value="364297003"/>
                  <display value="Female perineum observable (observable entity)"/>
               </coding>
            </code>
            <subject>
               <reference value="Patient/JONGDE"/>
               <display value="Jong de"/>
            </subject>
            <context>
               <reference value="EpisodeOfCare/dossier-jong-zwangerschap-1"/>
            </context>
            <valueCodeableConcept>
               <coding>
                  <system value="http://snomed.info/sct"/>
                  <code value="199925004"/>
                  <display value="2e graads perineumruptuur"/>
               </coding>
            </valueCodeableConcept>
         </Observation>
      </resource>
      <request>
         <method value="PUT"/>
         <url value="Observation/conditie-perineum-postpartum-zwangerschap-1"/>
      </request>
   </entry>
   <entry>
      <fullUrl value="urn:uuid:2091c46e-ac82-11ea-9046-020000000000"/>
      <resource>
         <Observation>
            <id value="tijdstip-actief-meepersen-zwangerschap-1-kind-1"/>
            <meta>
               <profile value="http://fhir.nl/fhir/StructureDefinition/nl-core-observation"/>
               <profile value="http://nictiz.nl/fhir/StructureDefinition/bc-BirthObservation"/>
            </meta>
            <extension url="http://nictiz.nl/fhir/StructureDefinition/Observation-focusSTU3">
               <valueReference>
                  <reference value="Procedure/baring-zwangerschap-1-kind-1"/>
               </valueReference>
            </extension>
            <status value="final"/>
            <code>
               <coding>
                  <system value="http://snomed.info/sct"/>
                  <code value="249163006"/>
                  <display value="Onset of pushing (in labor) (observable entity)"/>
               </coding>
            </code>
            <subject>
               <reference value="Patient/JONGDE"/>
               <display value="Jong de"/>
            </subject>
            <context>
               <reference value="EpisodeOfCare/dossier-jong-zwangerschap-1"/>
            </context>
            <valueDateTime value="2018-08-30T19:54:00Z"/>
         </Observation>
      </resource>
      <request>
         <method value="PUT"/>
         <url value="Observation/tijdstip-actief-meepersen-zwangerschap-1-kind-1"/>
      </request>
   </entry>
   <entry>
      <fullUrl value="urn:uuid:2091c482-ac82-11ea-9046-020000000000"/>
      <resource>
         <Observation>
            <id value="type-partus-zwangerschap-1-kind-1"/>
            <meta>
               <profile value="http://fhir.nl/fhir/StructureDefinition/nl-core-observation"/>
               <profile value="http://nictiz.nl/fhir/StructureDefinition/bc-BirthObservation"/>
            </meta>
            <extension url="http://nictiz.nl/fhir/StructureDefinition/Observation-focusSTU3">
               <valueReference>
                  <reference value="Procedure/baring-zwangerschap-1-kind-1"/>
               </valueReference>
            </extension>
            <status value="final"/>
            <code>
               <coding>
                  <system value="http://snomed.info/sct"/>
                  <code value="364336006"/>
                  <display value="Pattern of delivery (observable entity)"/>
               </coding>
            </code>
            <subject>
               <reference value="Patient/JONGDE"/>
               <display value="Jong de"/>
            </subject>
            <context>
               <reference value="EpisodeOfCare/dossier-jong-zwangerschap-1"/>
            </context>
            <valueCodeableConcept>
               <coding>
                  <system value="http://snomed.info/sct"/>
                  <code value="177184002"/>
                  <display value="Spontaan"/>
               </coding>
            </valueCodeableConcept>
         </Observation>
      </resource>
      <request>
         <method value="PUT"/>
         <url value="Observation/type-partus-zwangerschap-1-kind-1"/>
      </request>
   </entry>
   <entry>
      <fullUrl value="urn:uuid:2091c48c-ac82-11ea-9046-020000000000"/>
      <resource>
         <Observation>
            <id value="geboortegewicht-zwangerschap-1-kind-1"/>
            <meta>
               <profile value="http://fhir.nl/fhir/StructureDefinition/nl-core-observation"/>
               <profile value="http://nictiz.nl/fhir/StructureDefinition/bc-BirthWeight"/>
            </meta>
            <status value="final"/>
            <code>
               <coding>
                  <system value="http://loinc.org"/>
                  <code value="8339-4"/>
                  <display value="Birth weight Measured"/>
               </coding>
            </code>
            <subject>
               <reference value="Patient/zwangerschap-1-kind-1"/>
            </subject>
            <context>
               <reference value="EpisodeOfCare/dossier-jong-zwangerschap-1"/>
            </context>
            <valueQuantity>
               <extension url="http://hl7.org/fhir/StructureDefinition/iso21090-nullFlavor">
                  <valueCode value="NI"/>
               </extension>
            </valueQuantity>
         </Observation>
      </resource>
      <request>
         <method value="PUT"/>
         <url value="Observation/geboortegewicht-zwangerschap-1-kind-1"/>
      </request>
   </entry>
   <entry>
      <fullUrl value="urn:uuid:2091c568-ac82-11ea-9046-020000000000"/>
      <resource>
         <PractitionerRole>
            <id value="Vera-de-Los-Verloskundigenpraktijk-A"/>
            <meta>
               <profile value="http://fhir.nl/fhir/StructureDefinition/nl-core-practitionerrole"/>
            </meta>
            <practitioner>
               <reference value="Practitioner/Vera-de-Los"/>
            </practitioner>
            <organization>
               <reference value="Organization/Verloskundigenpraktijk-A"/>
            </organization>
         </PractitionerRole>
      </resource>
      <request>
         <method value="PUT"/>
         <url value="PractitionerRole/Vera-de-Los-Verloskundigenpraktijk-A"/>
      </request>
   </entry>
   <entry>
      <fullUrl value="urn:uuid:2091c5ea-ac82-11ea-9046-020000000000"/>
      <resource>
         <Patient>
            <id value="zwangerschap-1-kind-1"/>
            <meta>
               <profile value="http://fhir.nl/fhir/StructureDefinition/nl-core-patient"/>
            </meta>
            <birthDate value="2018-08-30"/>
         </Patient>
      </resource>
      <request>
         <method value="PUT"/>
         <url value="Patient/zwangerschap-1-kind-1"/>
      </request>
   </entry>
   <entry>
      <fullUrl value="urn:uuid:2091c5fe-ac82-11ea-9046-020000000000"/>
      <resource>
         <ReferralRequest>
            <id value="jong-verwijzing-1200"/>
            <meta>
               <profile value="http://nictiz.nl/fhir/StructureDefinition/bc-ReferralRequest"/>
            </meta>
            <status value="active"/>
            <intent value="order"/>
            <type>
               <coding>
                  <system value="http://snomed.info/sct"/>
                  <code value="308292007"/>
                  <display value="Transfer of care (procedure)"/>
               </coding>
            </type>
            <subject>
               <reference value="Patient/JONGDE"/>
               <display value="Jong de"/>
            </subject>
            <context>
               <reference value="EpisodeOfCare/dossier-jong-zwangerschap-1"/>
            </context>
            <authoredOn value="2018-05-06T00:00:00Z"/>
            <requester>
               <agent>
                  <reference value="Organization/"/>
               </agent>
            </requester>
            <specialty>
               <coding>
                  <system value="gynaecoloog 2e lijn"/>
                  <code value="02"/>
                  <display value="2.16.840.1.113883.2.4.4.15.1"/>
               </coding>
            </specialty>
            <recipient>
               <reference value="Organization/"/>
            </recipient>
         </ReferralRequest>
      </resource>
      <request>
         <method value="PUT"/>
         <url value="ReferralRequest/jong-verwijzing-1200"/>
      </request>
   </entry>
   <entry>
      <fullUrl value="urn:uuid:2091c608-ac82-11ea-9046-020000000000"/>
      <resource>
         <EpisodeOfCare>
            <id value="dossier-jong-zwangerschap-1"/>
            <meta>
               <profile value="http://fhir.nl/fhir/StructureDefinition/nl-core-episodeofcare"/>
               <profile value="http://nictiz.nl/fhir/StructureDefinition/bc-MaternalRecord"/>
            </meta>
            <status value="finished"/>
            <type>
               <coding>
                  <system value="http://snomed.info/sct"/>
                  <code value="364320009"/>
                  <display value="Pregnancy observable (observable entity)"/>
               </coding>
            </type>
            <diagnosis>
               <condition>
                  <reference value="Condition/jong-zwangerschap-1"/>
               </condition>
            </diagnosis>
            <patient>
               <reference value="Patient/JONGDE"/>
               <display value="Jong de"/>
            </patient>
         </EpisodeOfCare>
      </resource>
      <request>
         <method value="PUT"/>
         <url value="EpisodeOfCare/dossier-jong-zwangerschap-1"/>
      </request>
   </entry>
   <entry>
      <fullUrl value="urn:uuid:2091c612-ac82-11ea-9046-020000000000"/>
      <resource>
         <Condition>
            <id value="jong-zwangerschap-1"/>
            <meta>
               <profile value="http://nictiz.nl/fhir/StructureDefinition/zib-Pregnancy"/>
            </meta>
            <code>
               <coding>
                  <system value="http://snomed.info/sct"/>
                  <code value="364320009"/>
                  <display value="Pregnancy observable (observable entity)"/>
               </coding>
            </code>
            <subject>
               <reference value="Patient/JONGDE"/>
               <display value="Jong de"/>
            </subject>
            <context>
               <reference value="EpisodeOfCare/dossier-jong-zwangerschap-1"/>
            </context>
         </Condition>
      </resource>
      <request>
         <method value="PUT"/>
         <url value="Condition/jong-zwangerschap-1"/>
      </request>
   </entry>
   <entry>
      <fullUrl value="urn:uuid:2091c626-ac82-11ea-9046-020000000000"/>
      <resource>
         <Procedure>
            <id value="bevalling-zwangerschap-1"/>
            <meta>
               <profile value="http://nictiz.nl/fhir/StructureDefinition/zib-Procedure"/>
               <profile value="http://nictiz.nl/fhir/StructureDefinition/bc-DeliveryProcedure"/>
            </meta>
            <status value="completed"/>
            <category>
               <coding>
                  <system value="http://snomed.info/sct"/>
                  <code value="386637004"/>
                  <display value="Obstetric procedure (procedure)"/>
               </coding>
            </category>
            <code>
               <coding>
                  <system value="http://snomed.info/sct"/>
                  <code value="236973005"/>
                  <display value="Delivery procedure (procedure)"/>
               </coding>
            </code>
            <subject>
               <reference value="Patient/JONGDE"/>
               <display value="Jong de"/>
            </subject>
            <context>
               <reference value="EpisodeOfCare/dossier-jong-zwangerschap-1"/>
            </context>
            <performedPeriod>
               <start value="2018-08-30T14:09:00Z"/>
            </performedPeriod>
            <reasonReference>
               <reference value="Condition/jong-zwangerschap-1"/>
            </reasonReference>
         </Procedure>
      </resource>
      <request>
         <method value="PUT"/>
         <url value="Procedure/bevalling-zwangerschap-1"/>
      </request>
   </entry>
   <entry>
      <fullUrl value="urn:uuid:2091c63a-ac82-11ea-9046-020000000000"/>
      <resource>
         <Procedure>
            <id value="baring-zwangerschap-1-kind-1"/>
            <meta>
               <profile value="http://nictiz.nl/fhir/StructureDefinition/zib-Procedure"/>
               <profile value="http://nictiz.nl/fhir/StructureDefinition/bc-Birth"/>
            </meta>
            <partOf>
               <reference value="Procedure/bevalling-jong-zwangerschap-1"/>
            </partOf>
            <status value="completed"/>
            <category>
               <coding>
                  <system value="http://snomed.info/sct"/>
                  <code value="386637004"/>
                  <display value="Obstetric procedure (procedure)"/>
               </coding>
            </category>
            <code>
               <coding>
                  <system value="http://snomed.info/sct"/>
                  <code value="3950001"/>
                  <display value="Birth (finding)"/>
               </coding>
            </code>
            <subject>
               <reference value="Patient/zwangerschap-1-kind-1"/>
            </subject>
            <context>
               <reference value="EpisodeOfCare/dossier-jong-zwangerschap-1"/>
            </context>
            <reasonReference>
               <reference value="Condition/jong-zwangerschap-1"/>
            </reasonReference>
         </Procedure>
      </resource>
      <request>
         <method value="PUT"/>
         <url value="Procedure/baring-zwangerschap-1-kind-1"/>
      </request>
   </entry>
   <entry>
      <fullUrl value="urn:uuid:2091c644-ac82-11ea-9046-020000000000"/>
      <resource>
         <List>
            <id value="test"/>
            <meta>
               <profile value="http://fhir.nl/fhir/StructureDefinition/bc-MaternalPreferences"/>
            </meta>
            <status value="final"/>
            <mode value="working"/>
            <title value="Voornemens"/>
            <subject>
               <reference value="Patient/JONGDE"/>
               <display value="Jong de"/>
            </subject>
            <item>
               <reference value="Observation/voorgenomen-plaats-baring-tijdens-zwangerschap-type-locatie"/>
            </item>
            <item>
               <reference value="Observation/voorgenomen-voeding"/>
            </item>
         </List>
      </resource>
      <request>
         <method value="PUT"/>
         <url value="List/test"/>
      </request>
   </entry>
</Bundle>
