<?xml-model href="http://hl7.org/fhir/STU3/bundle.sch" type="application/xml" schematypens="http://purl.oclc.org/dsdl/schematron"?><Bundle xmlns="http://hl7.org/fhir"
        xmlns:xsi="http://www.w3.org/2001/XMLSchema-instance"
        xsi:schemaLocation="http://hl7.org/fhir http://hl7.org/fhir/STU3/bundle.xsd"><!-- TODO Check Bundle elements -->
   <id value="414d4ce7-40fe-45e0-9271-63f47ab21867"/>
   <type value="searchset"/>
   <total value="7"/>
   <entry>
      <fullUrl value="urn:uuid:14072d7d-cc1b-4ec7-9189-3f6324573fa2"/>
      <resource>
         <PractitionerRole>
            <meta>
               <profile value="http://fhir.nl/fhir/StructureDefinition/nl-core-practitionerrole"/>
            </meta>
            <text>
               <status value="generated"/>
               <div xmlns="http://www.w3.org/1999/xhtml">
                  <table>
                     <tbody>
                        <tr>
                           <th>01.016 - Internist</th>
                        </tr>
                        <tr>
                           <td>Naam: </td>
                        </tr>
                        <tr>
                           <td>Organisatie: </td>
                        </tr>
                     </tbody>
                  </table>
               </div>
            </text>
            <practitioner>
               <reference value="urn:oid:2.16.528.1.1007.3.1.006797896"/>
            </practitioner>
            <specialty>
               <coding>
                  <system value="urn:oid:2.16.840.1.113883.2.4.15.111"/>
                  <code value="01.016"/>
                  <display value="Internist"/>
               </coding>
            </specialty>
         </PractitionerRole>
      </resource>
   </entry>
   <entry>
      <fullUrl value="urn:oid:2.16.528.1.1007.3.1.006797896"/>
      <resource>
         <Practitioner>
            <meta>
               <profile value="http://fhir.nl/fhir/StructureDefinition/nl-core-practitioner"/>
            </meta>
            <text>
               <status value="additional"/>
               <div xmlns="http://www.w3.org/1999/xhtml">
                  <table>
                     <tbody>
                        <tr>
                           <th>ID</th>
                           <th>Naam</th>
                        </tr>
                        <tr>
                           <td>
                              <div>006797896 - UZI Personen</div>
                           </td>
                           <td/>
                        </tr>
                        <tr>
                           <th>Contact</th>
                           <th>Adres</th>
                        </tr>
                        <tr>
                           <td/>
                           <td/>
                        </tr>
                     </tbody>
                  </table>
               </div>
            </text>
            <identifier>
               <system value="http://fhir.nl/fhir/NamingSystem/uzi-nr-pers"/>
               <value value="006797896"/>
            </identifier>
            <telecom>
               <system value="phone"/>
               <value value="0612345990"/>
               <use value="work"/>
            </telecom>
            <telecom>
               <system value="email"/>
               <value value="devries@work.com"/>
               <use value="work"/>
            </telecom>
         </Practitioner>
      </resource>
   </entry>
   <entry>
      <fullUrl value="urn:uuid:795bcf2a-a67c-4a18-a8cd-385b8ca2f7c4"/>
      <resource>
         <PractitionerRole>
            <meta>
               <profile value="http://fhir.nl/fhir/StructureDefinition/nl-core-practitionerrole"/>
            </meta>
            <text>
               <status value="generated"/>
               <div xmlns="http://www.w3.org/1999/xhtml">
                  <table>
                     <tbody>
                        <tr>
                           <th>01.015</th>
                        </tr>
                        <tr>
                           <td>Naam: Koos Jansma</td>
                        </tr>
                        <tr>
                           <td>Organisatie: Gezondheidscentrum Amby</td>
                        </tr>
                     </tbody>
                  </table>
               </div>
            </text>
            <practitioner>
               <reference value="urn:oid:2.16.528.1.1007.3.1.000002222"/>
               <display value="Koos Jansma"/>
            </practitioner>
            <organization>
               <reference value="urn:oid:2.16.528.1.1007.3.3.00001111"/>
               <display value="Gezondheidscentrum Amby"/>
            </organization>
            <specialty>
               <coding>
                  <system value="urn:oid:2.16.840.1.113883.2.4.15.111"/>
                  <code value="01.015"/>
               </coding>
            </specialty>
         </PractitionerRole>
      </resource>
   </entry>
   <entry>
      <fullUrl value="urn:oid:2.16.528.1.1007.3.1.000002222"/>
      <resource>
         <Practitioner>
            <meta>
               <profile value="http://fhir.nl/fhir/StructureDefinition/nl-core-practitioner"/>
            </meta>
            <text>
               <status value="additional"/>
               <div xmlns="http://www.w3.org/1999/xhtml">
                  <table>
                     <tbody>
                        <tr>
                           <th>ID</th>
                           <th>Naam</th>
                        </tr>
                        <tr>
                           <td>
                              <div>000002222 - UZI Personen</div>
                           </td>
                           <td>Koos Jansma</td>
                        </tr>
                        <tr>
                           <th>Contact</th>
                           <th>Adres</th>
                        </tr>
                        <tr>
                           <td/>
                           <td/>
                        </tr>
                     </tbody>
                  </table>
               </div>
            </text>
            <identifier>
               <system value="http://fhir.nl/fhir/NamingSystem/uzi-nr-pers"/>
               <value value="000002222"/>
            </identifier>
            <name>
               <family value="Jansma"/>
               <given value="Koos"/>
            </name>
            <telecom>
               <system value="phone"/>
               <value value="0612345990"/>
               <use value="work"/>
            </telecom>
            <telecom>
               <system value="email"/>
               <value value="devries@work.com"/>
               <use value="work"/>
            </telecom>
         </Practitioner>
      </resource>
   </entry>
   <entry>
      <fullUrl value="urn:oid:2.16.528.1.1007.3.3.02234567"/>
      <resource>
         <Organization>
            <meta>
               <profile value="http://fhir.nl/fhir/StructureDefinition/nl-core-organization"/>
            </meta>
            <text>
               <status value="generated"/>
               <div xmlns="http://www.w3.org/1999/xhtml">
                  <table>
                     <tbody>
                        <tr>
                           <th style="text-align: center;" colspan="2">Organisatie</th>
                        </tr>
                        <tr>
                           <th>ID</th>
                           <th>Naam</th>
                        </tr>
                        <tr>
                           <td>
                              <div>02234567 - URA</div>
                           </td>
                           <td>Bester</td>
                        </tr>
                     </tbody>
                  </table>
               </div>
            </text>
            <identifier>
               <system value="http://fhir.nl/fhir/NamingSystem/ura"/>
               <value value="02234567"/>
            </identifier>
            <name value="Bester"/>
            <telecom>
               <system value="phone"/>
               <value value="0612345990"/>
               <use value="work"/>
            </telecom>
            <telecom>
               <system value="email"/>
               <value value="devries@work.com"/>
               <use value="work"/>
            </telecom>
         </Organization>
      </resource>
   </entry>
   <entry>
      <fullUrl value="urn:oid:2.16.528.1.1007.3.3.00765332"/>
      <resource>
         <Organization>
            <meta>
               <profile value="http://fhir.nl/fhir/StructureDefinition/nl-core-organization"/>
            </meta>
            <text>
               <status value="generated"/>
               <div xmlns="http://www.w3.org/1999/xhtml">
                  <table>
                     <tbody>
                        <tr>
                           <th style="text-align: center;" colspan="2">Organisatie</th>
                        </tr>
                        <tr>
                           <th>ID</th>
                           <th>Naam</th>
                        </tr>
                        <tr>
                           <td>
                              <div>00765332 - URA</div>
                           </td>
                           <td>Huisartspraktijk van Beek</td>
                        </tr>
                     </tbody>
                  </table>
               </div>
            </text>
            <identifier>
               <system value="http://fhir.nl/fhir/NamingSystem/ura"/>
               <value value="00765332"/>
            </identifier>
            <name value="Huisartspraktijk van Beek"/>
            <telecom>
               <system value="phone"/>
               <value value="0612345990"/>
               <use value="work"/>
            </telecom>
            <telecom>
               <system value="email"/>
               <value value="devries@work.com"/>
               <use value="work"/>
            </telecom>
         </Organization>
      </resource>
   </entry>
   <entry>
      <fullUrl value="urn:oid:2.16.528.1.1007.3.3.00001111"/>
      <resource>
         <Organization>
            <meta>
               <profile value="http://fhir.nl/fhir/StructureDefinition/nl-core-organization"/>
            </meta>
            <text>
               <status value="generated"/>
               <div xmlns="http://www.w3.org/1999/xhtml">
                  <table>
                     <tbody>
                        <tr>
                           <th style="text-align: center;" colspan="2">Organisatie</th>
                        </tr>
                        <tr>
                           <th>ID</th>
                           <th>Naam</th>
                        </tr>
                        <tr>
                           <td>
                              <div>00001111 - URA</div>
                           </td>
                           <td>Gezondheidscentrum Amby</td>
                        </tr>
                     </tbody>
                  </table>
               </div>
            </text>
            <identifier>
               <system value="http://fhir.nl/fhir/NamingSystem/ura"/>
               <value value="00001111"/>
            </identifier>
            <name value="Gezondheidscentrum Amby"/>
            <telecom>
               <system value="phone"/>
               <value value="0612345990"/>
               <use value="work"/>
            </telecom>
            <telecom>
               <system value="email"/>
               <value value="devries@work.com"/>
               <use value="work"/>
            </telecom>
         </Organization>
      </resource>
   </entry>
</Bundle>
