<?xml version="1.0" encoding="UTF-8"?>
<?xml-model href="http://hl7.org/fhir/STU3/bundle.sch" type="application/xml" schematypens="http://purl.oclc.org/dsdl/schematron"?>
<Bundle xmlns="http://hl7.org/fhir"
        xmlns:xsi="http://www.w3.org/2001/XMLSchema-instance"
        xsi:schemaLocation="http://hl7.org/fhir http://hl7.org/fhir/STU3/bundle.xsd">
   <type value="searchset"/>
   <total value="3"/>
   <entry>
      <fullUrl value="urn:uuid:96a9f076-fa61-11e9-6051-28f10e481d92"/>
      <resource>
         <ValueSet>
            <id value="2.16.840.1.113883.2.4.3.11.60.40.2.0.1.1--20171231000000"/>
            <meta>
               <profile value="http://hl7.org/fhir/StructureDefinition/shareablevalueset"/>
               <!--<profile value="http://hl7.org/fhir/3.0/StructureDefinition/ValueSet"/>-->
            </meta>
            <extension url="http://hl7.org/fhir/StructureDefinition/resource-effectivePeriod">
               <valuePeriod>
                  <start value="2017-12-31T00:00:00+01:00"/>
               </valuePeriod>
            </extension>
            <url value="http://decor.nictiz.nl/fhir/ValueSet/2.16.840.1.113883.2.4.3.11.60.40.2.0.1.1--20171231000000"/>
            <identifier>
               <use value="official"/>
               <system value="http://art-decor.org/ns/oids/vs"/>
               <value value="2.16.840.1.113883.2.4.3.11.60.40.2.0.1.1"/>
            </identifier>
            <version value="2017-12-31T00:00:00"/>
            <name value="GeslachtCodelijst"/>
            <title value="GeslachtCodelijst"/>
            <status value="active"/>
            <experimental value="false"/>
            <publisher value="Registratie aan de bron"/>
            <contact>
               <name value="Registratie aan de bron"/>
               <telecom>
                  <system value="url"/>
                  <value value="https://www.registratieaandebron.nl"/>
               </telecom>
               <telecom>
                  <system value="url"/>
                  <value value="https://www.zibs.nl"/>
               </telecom>
            </contact>
            <description value="GeslachtCodelijst"/>
            <immutable value="false"/>
            <compose>
               <include>
                  <system value="http://hl7.org/fhir/v3/NullFlavor"/>
                  <concept>
                     <code value="UNK"/>
                     <display value="Unknown"/>
                     <designation>
                        <language value="nl-NL"/>
                        <use>
                           <system value="http://snomed.info/sct"/>
                           <code value="900000000000013009"/>
                           <display value="Synonym"/>
                        </use>
                        <value value="Onbekend"/>
                     </designation>
                  </concept>
               </include>
               <include>
                  <system value="http://hl7.org/fhir/v3/AdministrativeGender"/>
                  <concept>
                     <code value="UN"/>
                     <display value="Undifferentiated"/>
                     <designation>
                        <language value="nl-NL"/>
                        <use>
                           <system value="http://snomed.info/sct"/>
                           <code value="900000000000013009"/>
                           <display value="Synonym"/>
                        </use>
                        <value value="Ongedifferentieerd"/>
                     </designation>
                  </concept>
                  <concept>
                     <code value="M"/>
                     <display value="Male"/>
                     <designation>
                        <language value="nl-NL"/>
                        <use>
                           <system value="http://snomed.info/sct"/>
                           <code value="900000000000013009"/>
                           <display value="Synonym"/>
                        </use>
                        <value value="Man"/>
                     </designation>
                  </concept>
                  <concept>
                     <code value="F"/>
                     <display value="Female"/>
                     <designation>
                        <language value="nl-NL"/>
                        <use>
                           <system value="http://snomed.info/sct"/>
                           <code value="900000000000013009"/>
                           <display value="Synonym"/>
                        </use>
                        <value value="Vrouw"/>
                     </designation>
                  </concept>
               </include>
            </compose>
         </ValueSet>
      </resource>
   </entry>
   <entry>
      <fullUrl value="urn:uuid:96a9e914-fa61-11e9-6051-28f10e481d92"/>
      <resource>
         <ValueSet>
            <id value="2.16.840.1.113883.2.4.3.11.60.40.2.12.16.1--20171231000000"/>
            <meta>
               <profile value="http://hl7.org/fhir/StructureDefinition/shareablevalueset"/>
               <!--<profile value="http://hl7.org/fhir/3.0/StructureDefinition/ValueSet"/>-->
            </meta>
            <extension url="http://hl7.org/fhir/StructureDefinition/resource-effectivePeriod">
               <valuePeriod>
                  <start value="2017-12-31T00:00:00+01:00"/>
               </valuePeriod>
            </extension>
            <url value="http://decor.nictiz.nl/fhir/ValueSet/2.16.840.1.113883.2.4.3.11.60.40.2.12.16.1--20171231000000"/>
            <identifier>
               <use value="official"/>
               <system value="http://art-decor.org/ns/oids/vs"/>
               <value value="2.16.840.1.113883.2.4.3.11.60.40.2.12.16.1"/>
            </identifier>
            <version value="2017-12-31T00:00:00"/>
            <name value="AdemhalingScoreCodelijst"/>
            <title value="AdemhalingScoreCodelijst"/>
            <status value="active"/>
            <experimental value="false"/>
            <publisher value="Registratie aan de bron"/>
            <contact>
               <name value="Registratie aan de bron"/>
               <telecom>
                  <system value="url"/>
                  <value value="https://www.registratieaandebron.nl"/>
               </telecom>
               <telecom>
                  <system value="url"/>
                  <value value="https://www.zibs.nl"/>
               </telecom>
            </contact>
            <description value="AdemhalingScoreCodelijst"/>
            <immutable value="false"/>
            <compose>
               <include>
                  <system value="http://loinc.org"/>
                  <concept>
                     <extension url="http://hl7.org/fhir/StructureDefinition/valueset-ordinalValue">
                        <valueDecimal value="0"/>
                     </extension>
                     <code value="LA6725-1"/>
                     <display value="Not breathing"/>
                     <designation>
                        <language value="nl-NL"/>
                        <use>
                           <system value="http://snomed.info/sct"/>
                           <code value="900000000000013009"/>
                           <display value="Synonym"/>
                        </use>
                        <value value="Niet op eigen kracht ademen"/>
                     </designation>
                  </concept>
                  <concept>
                     <extension url="http://hl7.org/fhir/StructureDefinition/valueset-ordinalValue">
                        <valueDecimal value="1"/>
                     </extension>
                     <code value="LA6726-9"/>
                     <display value="Weak cry; may sound like whimpering, slow or irregular breathing"/>
                     <designation>
                        <language value="nl-NL"/>
                        <use>
                           <system value="http://snomed.info/sct"/>
                           <code value="900000000000013009"/>
                           <display value="Synonym"/>
                        </use>
                        <value value="Zwak, onregelmatig of hijgerig ademhalen"/>
                     </designation>
                  </concept>
                  <concept>
                     <extension url="http://hl7.org/fhir/StructureDefinition/valueset-ordinalValue">
                        <valueDecimal value="2"/>
                     </extension>
                     <code value="LA6727-7"/>
                     <display value="Good, strong cry; normal rate and effort of breathing"/>
                     <designation>
                        <language value="nl-NL"/>
                        <use>
                           <system value="http://snomed.info/sct"/>
                           <code value="900000000000013009"/>
                           <display value="Synonym"/>
                        </use>
                        <value value="Flink huilen en goed doorademen"/>
                     </designation>
                  </concept>
               </include>
            </compose>
         </ValueSet>
      </resource>
   </entry>
   <entry>
      <fullUrl value="urn:uuid:96a9e94d-fa61-11e9-6051-28f10e481d92"/>
      <resource>
         <Questionnaire>
            <meta>
               <profile value="http://nictiz.nl/fhir/StructureDefinition/nl-core-questionnaire"/>
            </meta>
            <url value="https://simplifier.net/nictizstu3-questionnaires/bundle-example"/>
            <name value="voorbeeld-vragenlijst-naam"/>
            <title value="Voorbeeld vragenlijst titel"/>
            <status value="draft"/>
            <date value="2019-05-13T12:00:00+02:00"/>
            <publisher value="Nictiz"/>
            <description value="Vragenlijst met diverse set van type vragen tbv Proves / Kwalificatie / Testen"/>
            <subjectType value="Patient"/>
            <item>
               <extension url="http://hl7.org/fhir/StructureDefinition/questionnaire-itemControl">
                  <valueCodeableConcept>
                     <coding>
                        <system value="http://hl7.org/fhir/questionnaire-item-control"/>
                        <code value="list"/>
                        <display value="lijst"/>
                     </coding>
                  </valueCodeableConcept>
               </extension>
               <linkId value="1000"/>
               <text value="Voorbeeld Persoon Algemeen"/>
               <type value="group"/>
               <item>
                  <extension url="http://hl7.org/fhir/StructureDefinition/questionnaire-itemControl">
                     <valueCodeableConcept>
                        <coding>
                           <system value="http://hl7.org/fhir/questionnaire-item-control"/>
                           <code value="text-box"/>
                           <display value="tekst box"/>
                        </coding>
                     </valueCodeableConcept>
                  </extension>
                  <linkId value="1100"/>
                  <text value="Naam van invuller vragenlijst"/>
                  <type value="string"/>
               </item>
               <item>
                  <linkId value="1200"/>
                  <text value="Geslacht"/>
                  <type value="choice"/>
                  <options>
                     <reference value="urn:uuid:96a9f076-fa61-11e9-6051-28f10e481d92"/>
                     <display value="GeslachtCodelijst - zib 2017"/>
                  </options>
               </item>
               <item>
                  <linkId value="1300"/>
                  <text value="Geboortedatum"/>
                  <type value="date"/>
               </item>
               <item>
                  <extension url="http://hl7.org/fhir/StructureDefinition/maxDecimalPlaces">
                     <valueInteger value="1"/>
                  </extension>
                  <extension url="http://hl7.org/fhir/StructureDefinition/questionnaire-unit">
                     <valueCoding>
                        <system value="http://unitsofmeasure.org"/>
                        <code value="kg"/>
                        <display value="kg"/>
                     </valueCoding>
                  </extension>
                  <linkId value="1400"/>
                  <text value="Huidige gewicht (kg) met maximaal 1 decimaal achter de komma"/>
                  <type value="quantity"/>
               </item>
               <item>
                  <extension url="http://hl7.org/fhir/StructureDefinition/maxDecimalPlaces">
                     <valueInteger value="0"/>
                  </extension>
                  <extension url="http://hl7.org/fhir/StructureDefinition/questionnaire-unit">
                     <valueCoding>
                        <system value="http://unitsofmeasure.org"/>
                        <code value="cm"/>
                        <display value="cm"/>
                     </valueCoding>
                  </extension>
                  <linkId value="1500"/>
                  <text value="Huidige lengte (cm)"/>
                  <type value="quantity"/>
               </item>
            </item>
            <item>
               <linkId value="2000"/>
               <text value="Voorbeeld Persoon Specifiek (bijv. verslaving)"/>
               <type value="group"/>
               <item>
                  <linkId value="2100"/>
                  <text value="Rookt u?"/>
                  <type value="boolean"/>
               </item>
               <item>
                  <extension url="http://hl7.org/fhir/StructureDefinition/questionnaire-itemControl">
                     <valueCodeableConcept>
                        <coding>
                           <system value="http://hl7.org/fhir/questionnaire-item-control"/>
                           <code value="drop-down"/>
                           <display value="drop-down"/>
                        </coding>
                     </valueCodeableConcept>
                  </extension>
                  <linkId value="2110"/>
                  <text value="Hoe vaak rookt u?"/>
                  <type value="choice"/>
                  <enableWhen>
                     <extension url="http://nictiz.nl/fhir/StructureDefinition/extension.questionnaire-enable-operator">
                        <valueCode value="="/>
                     </extension>
                     <question value="2100"/>
                     <answerBoolean value="true"/>
                  </enableWhen>
                  <option>
                     <extension url="http://hl7.org/fhir/StructureDefinition/ordinalValue">
                        <valueDecimal value="0"/>
                     </extension>
                     <valueString value="nooit"/>
                  </option>
                  <option>
                     <extension url="http://hl7.org/fhir/StructureDefinition/ordinalValue">
                        <valueDecimal value="1"/>
                     </extension>
                     <valueString value="af en toe op sociale gelegenheden"/>
                  </option>
                  <option>
                     <extension url="http://hl7.org/fhir/StructureDefinition/ordinalValue">
                        <valueDecimal value="2"/>
                     </extension>
                     <valueString value="geregeld , maar niet elke dag"/>
                  </option>
                  <option>
                     <extension url="http://hl7.org/fhir/StructureDefinition/ordinalValue">
                        <valueDecimal value="3"/>
                     </extension>
                     <valueString value="elke dag"/>
                  </option>
               </item>
               <item>
                  <extension url="http://hl7.org/fhir/StructureDefinition/questionnaire-itemControl">
                     <valueCodeableConcept>
                        <coding>
                           <system value="http://hl7.org/fhir/questionnaire-item-control"/>
                           <code value="radio-button"/>
                           <display value="radio-button"/>
                        </coding>
                     </valueCodeableConcept>
                  </extension>
                  <linkId value="2120"/>
                  <text value="U rookt niet meer, maar heeft u ooit gerookt?"/>
                  <type value="boolean"/>
                  <enableWhen>
                     <extension url="http://nictiz.nl/fhir/StructureDefinition/extension.questionnaire-enable-operator">
                        <valueCode value="="/>
                     </extension>
                     <question value="2100"/>
                     <answerBoolean value="false"/>
                  </enableWhen>
               </item>
               <item>
                  <extension url="http://hl7.org/fhir/StructureDefinition/questionnaire-unit">
                     <valueCoding>
                        <system value="http://unitsofmeasure.org"/>
                        <code value="a"/>
                        <display value="jaar"/>
                     </valueCoding>
                  </extension>
                  <linkId value="2121"/>
                  <text value="Hoe lang is het geleden dat u heeft gerookt? Schatting in gehele jaren. Indien korter dan jaar geleden vul dan 1 in."/>
                  <type value="quantity"/>
                  <enableWhen>
                     <extension url="http://nictiz.nl/fhir/StructureDefinition/extension.questionnaire-enable-operator">
                        <valueCode value="="/>
                     </extension>
                     <question value="2120"/>
                     <answerBoolean value="true"/>
                  </enableWhen>
               </item>
               <item>
                  <extension url="http://hl7.org/fhir/StructureDefinition/questionnaire-itemControl">
                     <valueCodeableConcept>
                        <coding>
                           <system value="http://hl7.org/fhir/questionnaire-item-control"/>
                           <code value="radio-button"/>
                           <display value="radio-button"/>
                        </coding>
                     </valueCodeableConcept>
                  </extension>
                  <linkId value="2200"/>
                  <code>
                     <system value="http://snomed.info/sct"/>
                     <code value="228273003"/>
                     <display value="bevinding betreffende alcoholgebruik (bevinding)"/>
                  </code>
                  <text value="Drinkt u alcohol?"/>
                  <type value="choice"/>
                  <option>
                     <valueCoding>
                        <system value="http://snomed.info/sct"/>
                        <code value="219006"/>
                        <display value="drinkt alcohol (bevinding)"/>
                     </valueCoding>
                  </option>
                  <option>
                     <valueCoding>
                        <system value="http://snomed.info/sct"/>
                        <code value="105542008"/>
                        <display value="drinkt momenteel geen alcohol (bevinding)"/>
                     </valueCoding>
                  </option>
               </item>
               <item>
                  <extension url="http://hl7.org/fhir/StructureDefinition/questionnaire-itemControl">
                     <valueCodeableConcept>
                        <coding>
                           <system value="http://hl7.org/fhir/questionnaire-item-control"/>
                           <code value="radio-button"/>
                           <display value="radio-button"/>
                        </coding>
                     </valueCodeableConcept>
                  </extension>
                  <linkId value="2300"/>
                  <text value="Apgar score ademhaling (met ValueSet in Bundle)"/>
                  <type value="choice"/>
                  <options>
                     <reference value="urn:uuid:96a9e914-fa61-11e9-6051-28f10e481d92"/>
                     <display value="AdemhalingScore"/>
                  </options>
               </item>
            </item>
            <item>
               <linkId value="3000"/>
               <text value="Voorbeeld Meerdere opties (bijv. Social media)"/>
               <type value="group"/>
               <item>
                  <linkId value="3001"/>
                  <text value="Bent u actief op een van de volgende social media platforms:"/>
                  <type value="display"/>
               </item>
               <item>
                  <linkId value="3100"/>
                  <text value="Facebook"/>
                  <type value="boolean"/>
                  <required value="true"/>
               </item>
               <item>
                  <linkId value="3200"/>
                  <text value="Instagram"/>
                  <type value="boolean"/>
                  <required value="true"/>
               </item>
               <item>
                  <linkId value="3300"/>
                  <text value="LinkedIn"/>
                  <type value="boolean"/>
                  <required value="true"/>
               </item>
               <item>
                  <linkId value="3400"/>
                  <text value="Van een ander platform dat hier niet is genoemd?"/>
                  <type value="boolean"/>
                  <required value="true"/>
               </item>
               <item>
                  <extension url="http://hl7.org/fhir/StructureDefinition/maxValue">
                     <valueInteger value="5"/>
                  </extension>
                  <linkId value="3410"/>
                  <text value="Hoeveel andere platforms zijn dit dan? (max 5)"/>
                  <type value="integer"/>
                  <enableWhen>
                     <extension url="http://nictiz.nl/fhir/StructureDefinition/extension.questionnaire-enable-operator">
                        <valueCode value="="/>
                     </extension>
                     <question value="3400"/>
                     <answerBoolean value="true"/>
                  </enableWhen>
                  <required value="true"/>
               </item>
               <item>
                  <extension url=" http://hl7.org/fhir/StructureDefinition/questionnaire-maxOccurs">
                     <valueInteger value="5"/>
                  </extension>
                  <linkId value="3410"/>
                  <text value="Welk of welke platforms zijn dit dan?"/>
                  <type value="string"/>
                  <enableWhen>
                     <extension url="http://nictiz.nl/fhir/StructureDefinition/extension.questionnaire-enable-operator">
                        <valueCode value="="/>
                     </extension>
                     <question value="3400"/>
                     <answerBoolean value="true"/>
                  </enableWhen>
                  <required value="true"/>
                  <repeats value="true"/>
               </item>
            </item>
            <item>
               <linkId value="4000"/>
               <text value="Voorbeeld Vraag met opmaak"/>
               <type value="group"/>
               <item>
                  <linkId value="4100"/>
                  <text value="(algemene) lichamelijke gezondheid ">
                     <extension url="http://hl7.org/fhir/StructureDefinition/rendering-xhtml">
                        <valueString value="&lt;p&gt;&lt;strong&gt;(algemene)&lt;/strong&gt; lichamelijke gezondheid&lt;/p&gt;"/>
                     </extension>
                  </text>
                  <type value="string"/>
               </item>
            </item>
            <item>
               <linkId value="5000"/>
               <text value="Voorbeeld Slider"/>
               <type value="group"/>
               <item>
                  <extension url="http://hl7.org/fhir/StructureDefinition/questionnaire-itemControl">
                     <valueCodeableConcept>
                        <coding>
                           <system value="http://hl7.org/fhir/questionnaire-item-control"/>
                           <code value="slider"/>
                           <display value="meetschaal"/>
                        </coding>
                     </valueCodeableConcept>
                  </extension>
                  <extension url="http://hl7.org/fhir/StructureDefinition/minValue">
                     <valueInteger value="0"/>
                  </extension>
                  <extension url="http://hl7.org/fhir/StructureDefinition/maxValue">
                     <valueInteger value="10"/>
                  </extension>
                  <linkId value="5100"/>
                  <text value="Hoeveel Pijn heeft u? Op deze schaal staat 0 voor geen pijn en 10 voor de meest ernstige pijn die u zich kunt voorstellen"/>
                  <type value="integer"/>
                  <item>
                     <extension url="http://hl7.org/fhir/StructureDefinition/questionnaire-itemControl">
                        <valueCodeableConcept>
                           <coding>
                              <system value="http://hl7.org/fhir/questionnaire-item-control"/>
                              <code value="lower"/>
                              <display value="ondergrens"/>
                           </coding>
                        </valueCodeableConcept>
                     </extension>
                     <linkId value="5101"/>
                     <text value="Geen pijn"/>
                     <type value="display"/>
                  </item>
                  <item>
                     <extension url="http://hl7.org/fhir/StructureDefinition/questionnaire-itemControl">
                        <valueCodeableConcept>
                           <coding>
                              <system value="http://hl7.org/fhir/questionnaire-item-control"/>
                              <code value="upper"/>
                              <display value="bovengrens"/>
                           </coding>
                        </valueCodeableConcept>
                     </extension>
                     <linkId value="5102"/>
                     <text value="Meest ernstige pijn voorstelbaar"/>
                     <type value="display"/>
                  </item>
               </item>
               <item>
                  <extension url="http://hl7.org/fhir/StructureDefinition/questionnaire-itemControl">
                     <valueCodeableConcept>
                        <coding>
                           <system value="http://hl7.org/fhir/questionnaire-item-control"/>
                           <code value="radio-button"/>
                        </coding>
                     </valueCodeableConcept>
                  </extension>
                  <linkId value="5110"/>
                  <text value="U geeft  aan dat u veel pijn heeft (hoger dan score 5). Hoe vaak heeft u deze pijn?"/>
                  <type value="choice"/>
                  <enableWhen>
                     <extension url="http://nictiz.nl/fhir/StructureDefinition/extension.questionnaire-enable-operator">
                        <valueCode value="&gt;="/>
                     </extension>
                     <question value="5100"/>
                     <answerInteger value="6"/>
                  </enableWhen>
                  <required value="true"/>
                  <option>
                     <extension url="http://hl7.org/fhir/StructureDefinition/ordinalValue">
                        <valueDecimal value="1"/>
                     </extension>
                     <valueString value="1. Elke dag en de gehele dag"/>
                  </option>
                  <option>
                     <extension url="http://hl7.org/fhir/StructureDefinition/ordinalValue">
                        <valueDecimal value="2"/>
                     </extension>
                     <valueString value="2. Elke dag en niet de gehele dag"/>
                  </option>
                  <option>
                     <extension url="http://hl7.org/fhir/StructureDefinition/ordinalValue">
                        <valueDecimal value="3"/>
                     </extension>
                     <valueString value="3. Niet elke dag, maar wel meerdere keren per week"/>
                  </option>
               </item>
            </item>
            <item>
               <extension url="http://hl7.org/fhir/StructureDefinition/questionnaire-itemControl">
                  <valueCodeableConcept>
                     <coding>
                        <system value="http://hl7.org/fhir/questionnaire-item-control"/>
                        <code value="list"/>
                     </coding>
                  </valueCodeableConcept>
               </extension>
               <linkId value="6000"/>
               <text value="Gebruik Social Media - voorbeeld met checkbox"/>
               <type value="group"/>
               <item>
                  <extension url="http://hl7.org/fhir/StructureDefinition/questionnaire-itemControl">
                     <valueCodeableConcept>
                        <coding>
                           <system value="http://hl7.org/fhir/questionnaire-item-control"/>
                           <code value="check-box"/>
                        </coding>
                     </valueCodeableConcept>
                  </extension>
                  <linkId value="6100"/>
                  <text value="Bent u actief op een van de volgende social media platforms"/>
                  <type value="choice"/>
                  <option>
                     <valueString value="Facebook"/>
                  </option>
                  <option>
                     <valueString value="Instagram"/>
                  </option>
                  <option>
                     <valueString value="LinkedIn"/>
                  </option>
                  <option>
                     <valueString value="Anders, nl."/>
                  </option>
               </item>
               <item>
                  <extension url="http://hl7.org/fhir/StructureDefinition/questionnaire-itemControl">
                     <valueCodeableConcept>
                        <coding>
                           <system value="http://hl7.org/fhir/questionnaire-item-control"/>
                           <code value="text-box"/>
                        </coding>
                     </valueCodeableConcept>
                  </extension>
                  <linkId value="6200"/>
                  <text value="indien meer dan 1, vul de voor u belangrijkste in"/>
                  <type value="string"/>
                  <enableWhen>
                     <extension url="http://nictiz.nl/fhir/StructureDefinition/extension.questionnaire-enable-operator">
                        <valueCode value="="/>
                     </extension>
                     <question value="6100"/>
                     <answerString value="Anders, nl."/>
                  </enableWhen>
               </item>
            </item>
         </Questionnaire>
      </resource>
   </entry>
</Bundle>
