<?xml-model href="http://hl7.org/fhir/STU3/bundle.sch" type="application/xml" schematypens="http://purl.oclc.org/dsdl/schematron"?><Bundle xmlns="http://hl7.org/fhir"
        xmlns:xsi="http://www.w3.org/2001/XMLSchema-instance"
        xsi:schemaLocation="http://hl7.org/fhir http://hl7.org/fhir/STU3/bundle.xsd">
   <id value="34dc8818-dfe2-11eb-2046-020000000000"/>
   <type value="searchset"/>
   <total value="1"/>
   <link>
      <relation value="self"/>
      <url value="http://dummy.nictiz.nl/dummyquery"/>
   </link>
   <entry>
      <fullUrl value="urn:uuid:34dc7d9c-dfe2-11eb-2046-020000000000"/>
      <resource>
         <MedicationRequest>
            <meta>
               <profile value="http://nictiz.nl/fhir/StructureDefinition/zib-DispenseRequest"/>
            </meta>
            <text>
               <status value="extensions"/>
               <div xmlns="http://www.w3.org/1999/xhtml">
                  <table>
                     <caption>Toedieningsverzoek. Subject: D. XXX-CSC-Smoketest-B. Id: tsMBH_907_toelichting_VV-CSB (urn:oid:2.16.840.1.113883.2.4.3.11.999.77.52711000146108.1), Categorie: <span title="Request to dispense medication to patient (situation) (52711000146108 - SNOMED CT)">Request to dispense medication to patient (situation)</span>, <span style="display: block;">Intentie: aanvraag</span>
                        <span style="display: block;">Aangevraagd door: Bert van Dam || Huisartsen, niet nader gespecificeerd || Huisartsenpraktijk Van Dam</span>
                     </caption>
                     <tfoot>
                        <tr>
                           <td colspan="2">Extra verstrekkingsverzoek omdat voorraad op vakantieadres is achtergebleven</td>
                        </tr>
                     </tfoot>
                     <tbody>
                        <tr>
                           <th>Medicamenteuze behandel-id</th>
                           <td>tsMBH_907_toelichting-CSB (urn:oid:2.16.840.1.113883.2.4.3.11.999.77.1.1)</td>
                        </tr>
                        <tr>
                           <th>Gebaseerd op</th>
                           <td>Relatie naar medicatieafspraak, id = tsMBH_907_toelichting_MA-CSB || 2.16.840.1.113883.2.4.3.11.999.77.16076005.1 (Id: tsMBH_907_toelichting_MA-CSB (urn:oid:2.16.840.1.113883.2.4.3.11.999.77.16076005.1))</td>
                        </tr>
                        <tr>
                           <th>Medicatie</th>
                           <td>APACOF 250/250/50MG TABLET</td>
                        </tr>
                        <tr>
                           <th>Gemaakt</th>
                           <td>${DATE, T, D, -3}T08:02:00+02:00</td>
                        </tr>
                        <tr>
                           <th>Toedieningsverzoek</th>
                           <td>
                              <div>Hoeveelheid: </div>
                              <div>Uitvoerende: Apotheek De Sleutel</div>
                           </td>
                        </tr>
                     </tbody>
                  </table>
               </div>
            </text>
            <extension url="http://nictiz.nl/fhir/StructureDefinition/zib-DispenseRequest-RelatedMedicationAgreement">
               <valueReference>
                  <identifier>
                     <system value="urn:oid:2.16.840.1.113883.2.4.3.11.999.77.16076005.1"/>
                     <value value="tsMBH_907_toelichting_MA-CSB"/>
                  </identifier>
                  <display value="Relatie naar medicatieafspraak, id = tsMBH_907_toelichting_MA-CSB || 2.16.840.1.113883.2.4.3.11.999.77.16076005.1"/>
               </valueReference>
            </extension>
            <extension url="http://nictiz.nl/fhir/StructureDefinition/zib-Medication-MedicationTreatment">
               <valueIdentifier>
                  <system value="urn:oid:2.16.840.1.113883.2.4.3.11.999.77.1.1"/>
                  <value value="tsMBH_907_toelichting-CSB"/>
               </valueIdentifier>
            </extension>
            <identifier>
               <system value="urn:oid:2.16.840.1.113883.2.4.3.11.999.77.52711000146108.1"/>
               <value value="tsMBH_907_toelichting_VV-CSB"/>
            </identifier>
            <intent value="order"/>
            <category>
               <coding>
                  <system value="http://snomed.info/sct"/>
                  <code value="52711000146108"/>
                  <display value="Request to dispense medication to patient (situation)"/>
               </coding>
               <text value="Verstrekkingsverzoek"/>
            </category>
            <medicationReference>
               <reference value="urn:oid:2.16.840.1.113883.2.4.4.10.3891"/>
               <display value="APACOF 250/250/50MG TABLET"/>
            </medicationReference>
            <subject>
               <reference value="urn:uuid:34dc7d7e-dfe2-11eb-2046-020000000000"/>
               <display value="D. XXX-CSC-Smoketest-B"/>
            </subject>
            <authoredOn value="${DATE, T, D, -3}T08:02:00+02:00"/>
            <requester>
               <agent>
                  <extension url="http://nictiz.nl/fhir/StructureDefinition/practitionerrole-reference">
                     <valueReference>
                        <reference value="urn:uuid:34dc7da2-dfe2-11eb-2046-020000000000"/>
                        <display value="Bert van Dam || Huisartsen, niet nader gespecificeerd || Huisartsenpraktijk Van Dam"/>
                     </valueReference>
                  </extension>
                  <reference value="urn:oid:2.16.528.1.1007.3.1.1117"/>
                  <display value="Bert van Dam"/>
               </agent>
            </requester>
            <note>
               <text value="Extra verstrekkingsverzoek omdat voorraad op vakantieadres is achtergebleven"/>
            </note>
            <dispenseRequest>
               <quantity>
                  <value value="30"/>
                  <unit value="stuk"/>
                  <system value="urn:oid:2.16.840.1.113883.2.4.4.1.900.2"/>
                  <code value="245"/>
               </quantity>
               <performer>
                  <reference value="urn:oid:2.16.528.1.1007.3.3.1236579"/>
                  <display value="Apotheek De Sleutel"/>
               </performer>
            </dispenseRequest>
         </MedicationRequest>
      </resource>
      <search>
         <mode value="match"/>
      </search>
   </entry>
   <entry>
      <fullUrl value="urn:uuid:34dc7d7e-dfe2-11eb-2046-020000000000"/>
      <resource>
         <Patient>
            <meta>
               <profile value="http://fhir.nl/fhir/StructureDefinition/nl-core-patient"/>
            </meta>
            <text>
               <status value="extensions"/>
               <div xmlns="http://www.w3.org/1999/xhtml">
                  <div>Id <i>afgeschermd (ontbrekend gegeven)</i> (BSN), D. XXX-CSC-Smoketest-B, Vrouw, 4 februari 1950</div>
               </div>
            </text>
            <identifier>
               <system value="http://fhir.nl/fhir/NamingSystem/bsn"/>
               <value>
                  <extension url="http://hl7.org/fhir/StructureDefinition/data-absent-reason">
                     <valueCode value="masked"/>
                  </extension>
               </value>
            </identifier>
            <name>
               <extension url="http://hl7.org/fhir/StructureDefinition/humanname-assembly-order">
                  <valueCode value="NL1"/>
               </extension>
               <family value="XXX-CSC-Smoketest-B">
                  <extension url="http://hl7.org/fhir/StructureDefinition/humanname-own-name">
                     <valueString value="XXX-CSC-Smoketest-B"/>
                  </extension>
               </family>
               <given value="D.">
                  <extension url="http://hl7.org/fhir/StructureDefinition/iso21090-EN-qualifier">
                     <valueCode value="IN"/>
                  </extension>
               </given>
            </name>
            <gender value="female">
               <extension url="http://nictiz.nl/fhir/StructureDefinition/code-specification">
                  <valueCodeableConcept>
                     <coding>
                        <system value="http://hl7.org/fhir/v3/AdministrativeGender"/>
                        <code value="F"/>
                        <display value="Vrouw"/>
                     </coding>
                  </valueCodeableConcept>
               </extension>
            </gender>
            <birthDate value="1950-02-04"/>
         </Patient>
      </resource>
      <search>
         <mode value="include"/>
      </search>
   </entry>
   <entry>
      <fullUrl value="urn:oid:2.16.528.1.1007.3.1.1117"/>
      <resource>
         <Practitioner>
            <meta>
               <profile value="http://fhir.nl/fhir/StructureDefinition/nl-core-practitioner"/>
            </meta>
            <text>
               <status value="extensions"/>
               <div xmlns="http://www.w3.org/1999/xhtml">
                  <div>Id 000001117 (UZI-NR-PERS), Bert van Dam</div>
               </div>
            </text>
            <identifier>
               <system value="http://fhir.nl/fhir/NamingSystem/uzi-nr-pers"/>
               <value value="000001117"/>
            </identifier>
            <name>
               <family value="van Dam">
                  <extension url="http://hl7.org/fhir/StructureDefinition/humanname-own-prefix">
                     <valueString value="van"/>
                  </extension>
                  <extension url="http://hl7.org/fhir/StructureDefinition/humanname-own-name">
                     <valueString value="Dam"/>
                  </extension>
               </family>
               <given value="Bert">
                  <extension url="http://hl7.org/fhir/StructureDefinition/iso21090-EN-qualifier">
                     <valueCode value="BR"/>
                  </extension>
               </given>
            </name>
         </Practitioner>
      </resource>
      <search>
         <mode value="include"/>
      </search>
   </entry>
   <entry>
      <fullUrl value="urn:oid:2.16.528.1.1007.3.3.1117"/>
      <resource>
         <Organization>
            <meta>
               <profile value="http://fhir.nl/fhir/StructureDefinition/nl-core-organization"/>
            </meta>
            <text>
               <status value="extensions"/>
               <div xmlns="http://www.w3.org/1999/xhtml">
                  <table>
                     <caption>Organisatie. Id: 00001117 (URA)</caption>
                     <tbody>
                        <tr>
                           <th>Naam</th>
                           <td>Huisartsenpraktijk Van Dam</td>
                        </tr>
                        <tr>
                           <th>Adres</th>
                           <td>Hazepad 2, 1234BB Mijn Dorp (WP)</td>
                        </tr>
                     </tbody>
                  </table>
               </div>
            </text>
            <identifier>
               <system value="http://fhir.nl/fhir/NamingSystem/ura"/>
               <value value="00001117"/>
            </identifier>
            <name value="Huisartsenpraktijk Van Dam"/>
            <address>
               <extension url="http://nictiz.nl/fhir/StructureDefinition/zib-AddressInformation-AddressType">
                  <valueCodeableConcept>
                     <coding>
                        <system value="http://hl7.org/fhir/v3/AddressUse"/>
                        <code value="WP"/>
                        <display value="Werkadres"/>
                     </coding>
                  </valueCodeableConcept>
               </extension>
               <use value="work"/>
               <line value="Hazepad 2">
                  <extension url="http://hl7.org/fhir/StructureDefinition/iso21090-ADXP-streetName">
                     <valueString value="Hazepad"/>
                  </extension>
                  <extension url="http://hl7.org/fhir/StructureDefinition/iso21090-ADXP-houseNumber">
                     <valueString value="2"/>
                  </extension>
               </line>
               <city value="Mijn Dorp"/>
               <postalCode value="1234BB"/>
            </address>
         </Organization>
      </resource>
      <search>
         <mode value="include"/>
      </search>
   </entry>
   <entry>
      <fullUrl value="urn:oid:2.16.528.1.1007.3.3.1236579"/>
      <resource>
         <Organization>
            <meta>
               <profile value="http://fhir.nl/fhir/StructureDefinition/nl-core-organization"/>
            </meta>
            <text>
               <status value="extensions"/>
               <div xmlns="http://www.w3.org/1999/xhtml">
                  <table>
                     <caption>Organisatie. Id: 01236579 (URA)</caption>
                     <tbody>
                        <tr>
                           <th>Naam</th>
                           <td>Apotheek De Sleutel</td>
                        </tr>
                     </tbody>
                  </table>
               </div>
            </text>
            <identifier>
               <system value="http://fhir.nl/fhir/NamingSystem/ura"/>
               <value value="01236579"/>
            </identifier>
            <name value="Apotheek De Sleutel"/>
         </Organization>
      </resource>
      <search>
         <mode value="include"/>
      </search>
   </entry>
   <entry>
      <fullUrl value="urn:uuid:34dc7da2-dfe2-11eb-2046-020000000000"/>
      <resource>
         <PractitionerRole>
            <meta>
               <profile value="http://fhir.nl/fhir/StructureDefinition/nl-core-practitionerrole"/>
            </meta>
            <text>
               <status value="extensions"/>
               <div xmlns="http://www.w3.org/1999/xhtml">
                  <table>
                     <caption>Zorgverlenerrol. </caption>
                     <tbody>
                        <tr>
                           <th>Zorgverlener</th>
                           <td>
                              <div>Bert van Dam</div>
                              <div>Huisartsenpraktijk Van Dam</div>
                           </td>
                        </tr>
                        <tr>
                           <th>Specialisme</th>
                           <td>
                              <span title="Huisartsen, niet nader gespecificeerd (0100 - AGB-medisch specialisme)">Huisartsen, niet nader gespecificeerd</span>
                           </td>
                        </tr>
                     </tbody>
                  </table>
               </div>
            </text>
            <practitioner>
               <reference value="urn:oid:2.16.528.1.1007.3.1.1117"/>
               <display value="Bert van Dam"/>
            </practitioner>
            <organization>
               <reference value="urn:oid:2.16.528.1.1007.3.3.1117"/>
               <display value="Huisartsenpraktijk Van Dam"/>
            </organization>
            <specialty>
               <coding>
                  <system value="urn:oid:2.16.840.1.113883.2.4.6.7"/>
                  <version value="2017-12-14T00:00:00"/>
                  <code value="0100"/>
                  <display value="Huisartsen, niet nader gespecificeerd"/>
               </coding>
            </specialty>
         </PractitionerRole>
      </resource>
      <search>
         <mode value="include"/>
      </search>
   </entry>
   <entry>
      <fullUrl value="urn:oid:2.16.840.1.113883.2.4.4.10.3891"/>
      <resource>
         <Medication>
            <meta>
               <profile value="http://nictiz.nl/fhir/StructureDefinition/zib-Product"/>
            </meta>
            <text>
               <status value="extensions"/>
               <div xmlns="http://www.w3.org/1999/xhtml">
                  <table>
                     <tbody>
                        <tr>
                           <th>Code</th>
                           <td>
                              <span title="APACOF 250/250/50MG TABLET (3891 - G-Standaard PRK)">APACOF 250/250/50MG TABLET</span>
                           </td>
                        </tr>
                     </tbody>
                  </table>
               </div>
            </text>
            <code>
               <coding>
                  <system value="urn:oid:2.16.840.1.113883.2.4.4.10"/>
                  <code value="3891"/>
                  <display value="APACOF 250/250/50MG TABLET"/>
                  <userSelected value="true"/>
               </coding>
               <coding>
                  <system value="urn:oid:2.16.840.1.113883.2.4.4.1"/>
                  <code value="61433"/>
                  <display value="APACOF 250/250/50MG TABLET"/>
               </coding>
               <text value="APACOF 250/250/50MG TABLET"/>
            </code>
         </Medication>
      </resource>
      <search>
         <mode value="include"/>
      </search>
   </entry>
</Bundle>
