<Bundle xmlns="http://hl7.org/fhir">
   <id value="5a18a5d3-a281-11ef-2018-020000000000"/>
   <type value="searchset"/>
   <total value="21"/>
   <entry>
      <fullUrl value="urn:uuid:5a18a7e4-a281-11ef-2018-020000000000"/>
      <resource>
         <MedicationRequest>
            <meta>
               <profile value="http://nictiz.nl/fhir/StructureDefinition/mp-MedicationAgreement"/>
            </meta>
            <extension url="http://nictiz.nl/fhir/StructureDefinition/ext-RegistrationDateTime">
               <valueDateTime value="2022-12-22T11:20:00+01:00"/>
            </extension>
            <f:extension xmlns:f="http://hl7.org/fhir"
                         url="http://nictiz.nl/fhir/StructureDefinition/ext-RenderedDosageInstruction">
               <f:valueString value="Vanaf 22 dec 2022, tot en met 27 dec 2022 (3 dagen voor opname stoppen), 1 maal per dag 1 stuk, oraal"/>
            </f:extension>
            <extension url="http://nictiz.nl/fhir/StructureDefinition/ext-TimeInterval.Period">
               <valuePeriod>
                  <extension url="http://nictiz.nl/fhir/StructureDefinition/ext-MedicationAgreement.PeriodOfUse.Condition">
                     <valueString value="3 dagen voor opname stoppen"/>
                  </extension>
                  <start value="2022-12-22T00:00:00+01:00"/>
                  <end value="2022-12-27T23:59:59+01:00"/>
               </valuePeriod>
            </extension>
            <extension url="http://nictiz.nl/fhir/StructureDefinition/ext-PharmaceuticalTreatment.Identifier">
               <valueIdentifier>
                  <system value="urn:oid:2.16.840.1.113883.2.4.3.11.999.77.1.1"/>
                  <value value="MBH_300_start_eind"/>
               </valueIdentifier>
            </extension>
            <identifier>
               <system value="urn:oid:2.16.840.1.113883.2.4.3.11.999.77.16076005.1"/>
               <value value="MBH_300_start_eind_MA"/>
            </identifier>
            <status value="unknown"/>
            <intent value="order"/>
            <category>
               <coding>
                  <system value="http://snomed.info/sct"/>
                  <code value="33633005"/>
                  <display value="voorschrijven van geneesmiddel"/>
               </coding>
            </category>
            <medicationReference>
               <reference value="urn:uuid:5a1883a4-a281-11ef-2018-020000000000"/>
               <type value="Medication"/>
               <display value="METOCLOPRAMIDE TABLET 10MG"/>
            </medicationReference>
            <subject>
               <reference value="urn:uuid:5a18a604-a281-11ef-2018-020000000000"/>
               <type value="Patient"/>
               <display value="Patient, D. XXX_Dijks"/>
            </subject>
            <requester>
               <reference value="urn:uuid:5a18a62c-a281-11ef-2018-020000000000"/>
               <type value="PractitionerRole"/>
               <display value="Healthcare professional (role), Peter van Pulver, Huisartsen, niet nader gespecificeerd, Huisartsenpraktijk Pulver &amp; Partners"/>
            </requester>
            <dosageInstruction>
               <timing>
                  <repeat>
                     <frequency value="1"/>
                     <period value="1"/>
                     <periodUnit value="d"/>
                  </repeat>
               </timing>
               <route>
                  <coding>
                     <system value="urn:oid:2.16.840.1.113883.2.4.4.9"/>
                     <code value="9"/>
                     <display value="oraal"/>
                  </coding>
               </route>
               <doseAndRate>
                  <doseQuantity>
                     <extension url="http://hl7.org/fhir/StructureDefinition/iso21090-PQ-translation">
                        <valueQuantity>
                           <value value="1"/>
                           <unit value="stuk"/>
                           <system value="urn:oid:2.16.840.1.113883.2.4.4.1.900.2"/>
                           <code value="245"/>
                        </valueQuantity>
                     </extension>
                     <value value="1"/>
                     <unit value="stuk"/>
                     <system value="http://unitsofmeasure.org"/>
                     <code value="1"/>
                  </doseQuantity>
               </doseAndRate>
            </dosageInstruction>
         </MedicationRequest>
      </resource>
      <search>
         <mode value="match"/>
      </search>
   </entry>
   <entry>
      <fullUrl value="urn:uuid:5a18a802-a281-11ef-2018-020000000000"/>
      <resource>
         <MedicationRequest>
            <meta>
               <profile value="http://nictiz.nl/fhir/StructureDefinition/mp-MedicationAgreement"/>
            </meta>
            <extension url="http://nictiz.nl/fhir/StructureDefinition/ext-RegistrationDateTime">
               <valueDateTime value="2022-12-12T11:30:00+01:00"/>
            </extension>
            <f:extension xmlns:f="http://hl7.org/fhir"
                         url="http://nictiz.nl/fhir/StructureDefinition/ext-RenderedDosageInstruction">
               <f:valueString value="Vanaf 12 dec 2022, gedurende 3 weken, 1 maal per dag 1 stuk, oraal"/>
            </f:extension>
            <extension url="http://nictiz.nl/fhir/StructureDefinition/ext-TimeInterval.Period">
               <valuePeriod>
                  <extension url="http://nictiz.nl/fhir/StructureDefinition/ext-TimeInterval.Duration">
                     <valueDuration>
                        <value value="3"/>
                        <unit value="week"/>
                        <system value="http://unitsofmeasure.org"/>
                        <code value="wk"/>
                     </valueDuration>
                  </extension>
                  <start value="2022-12-12T00:00:00+01:00"/>
               </valuePeriod>
            </extension>
            <extension url="http://nictiz.nl/fhir/StructureDefinition/ext-PharmaceuticalTreatment.Identifier">
               <valueIdentifier>
                  <system value="urn:oid:2.16.840.1.113883.2.4.3.11.999.77.1.1"/>
                  <value value="MBH_300_start_duur"/>
               </valueIdentifier>
            </extension>
            <identifier>
               <system value="urn:oid:2.16.840.1.113883.2.4.3.11.999.77.16076005.1"/>
               <value value="MBH_300_start_duur_MA"/>
            </identifier>
            <status value="unknown"/>
            <intent value="order"/>
            <category>
               <coding>
                  <system value="http://snomed.info/sct"/>
                  <code value="33633005"/>
                  <display value="voorschrijven van geneesmiddel"/>
               </coding>
            </category>
            <medicationReference>
               <reference value="urn:uuid:5a188386-a281-11ef-2018-020000000000"/>
               <type value="Medication"/>
               <display value="LISINOPRIL 10MG TABLET"/>
            </medicationReference>
            <subject>
               <reference value="urn:uuid:5a18a604-a281-11ef-2018-020000000000"/>
               <type value="Patient"/>
               <display value="Patient, D. XXX_Dijks"/>
            </subject>
            <requester>
               <reference value="urn:uuid:5a18a62c-a281-11ef-2018-020000000000"/>
               <type value="PractitionerRole"/>
               <display value="Healthcare professional (role), Peter van Pulver, Huisartsen, niet nader gespecificeerd, Huisartsenpraktijk Pulver &amp; Partners"/>
            </requester>
            <dosageInstruction>
               <timing>
                  <repeat>
                     <frequency value="1"/>
                     <period value="1"/>
                     <periodUnit value="d"/>
                  </repeat>
               </timing>
               <route>
                  <coding>
                     <system value="urn:oid:2.16.840.1.113883.2.4.4.9"/>
                     <code value="9"/>
                     <display value="oraal"/>
                  </coding>
               </route>
               <doseAndRate>
                  <doseQuantity>
                     <extension url="http://hl7.org/fhir/StructureDefinition/iso21090-PQ-translation">
                        <valueQuantity>
                           <value value="1"/>
                           <unit value="stuk"/>
                           <system value="urn:oid:2.16.840.1.113883.2.4.4.1.900.2"/>
                           <code value="245"/>
                        </valueQuantity>
                     </extension>
                     <value value="1"/>
                     <unit value="stuk"/>
                     <system value="http://unitsofmeasure.org"/>
                     <code value="1"/>
                  </doseQuantity>
               </doseAndRate>
            </dosageInstruction>
         </MedicationRequest>
      </resource>
      <search>
         <mode value="match"/>
      </search>
   </entry>
   <entry>
      <fullUrl value="urn:uuid:5a18a820-a281-11ef-2018-020000000000"/>
      <resource>
         <MedicationRequest>
            <meta>
               <profile value="http://nictiz.nl/fhir/StructureDefinition/mp-MedicationAgreement"/>
            </meta>
            <extension url="http://nictiz.nl/fhir/StructureDefinition/ext-RegistrationDateTime">
               <valueDateTime value="2022-12-02T11:32:00+01:00"/>
            </extension>
            <f:extension xmlns:f="http://hl7.org/fhir"
                         url="http://nictiz.nl/fhir/StructureDefinition/ext-RenderedDosageInstruction">
               <f:valueString value="Vanaf 2 dec 2022, 1 maal per dag 1 stuk, oraal"/>
            </f:extension>
            <extension url="http://nictiz.nl/fhir/StructureDefinition/ext-TimeInterval.Period">
               <valuePeriod>
                  <start value="2022-12-02T00:00:00+01:00"/>
               </valuePeriod>
            </extension>
            <extension url="http://nictiz.nl/fhir/StructureDefinition/ext-PharmaceuticalTreatment.Identifier">
               <valueIdentifier>
                  <system value="urn:oid:2.16.840.1.113883.2.4.3.11.999.77.1.1"/>
                  <value value="MBH_300_chronisch"/>
               </valueIdentifier>
            </extension>
            <identifier>
               <system value="urn:oid:2.16.840.1.113883.2.4.3.11.999.77.16076005.1"/>
               <value value="MBH_300_chronisch_MA"/>
            </identifier>
            <status value="unknown"/>
            <intent value="order"/>
            <category>
               <coding>
                  <system value="http://snomed.info/sct"/>
                  <code value="33633005"/>
                  <display value="voorschrijven van geneesmiddel"/>
               </coding>
            </category>
            <medicationReference>
               <reference value="urn:uuid:5a188368-a281-11ef-2018-020000000000"/>
               <type value="Medication"/>
               <display value="ACETYLSALICYLZUUR/PARACETAMOL/COF TAB 250/250/50MG"/>
            </medicationReference>
            <subject>
               <reference value="urn:uuid:5a18a604-a281-11ef-2018-020000000000"/>
               <type value="Patient"/>
               <display value="Patient, D. XXX_Dijks"/>
            </subject>
            <requester>
               <reference value="urn:uuid:5a18a62c-a281-11ef-2018-020000000000"/>
               <type value="PractitionerRole"/>
               <display value="Healthcare professional (role), Peter van Pulver, Huisartsen, niet nader gespecificeerd, Huisartsenpraktijk Pulver &amp; Partners"/>
            </requester>
            <dosageInstruction>
               <timing>
                  <repeat>
                     <frequency value="1"/>
                     <period value="1"/>
                     <periodUnit value="d"/>
                  </repeat>
               </timing>
               <route>
                  <coding>
                     <system value="urn:oid:2.16.840.1.113883.2.4.4.9"/>
                     <code value="9"/>
                     <display value="oraal"/>
                  </coding>
               </route>
               <doseAndRate>
                  <doseQuantity>
                     <extension url="http://hl7.org/fhir/StructureDefinition/iso21090-PQ-translation">
                        <valueQuantity>
                           <value value="1"/>
                           <unit value="stuk"/>
                           <system value="urn:oid:2.16.840.1.113883.2.4.4.1.900.2"/>
                           <code value="245"/>
                        </valueQuantity>
                     </extension>
                     <value value="1"/>
                     <unit value="stuk"/>
                     <system value="http://unitsofmeasure.org"/>
                     <code value="1"/>
                  </doseQuantity>
               </doseAndRate>
            </dosageInstruction>
         </MedicationRequest>
      </resource>
      <search>
         <mode value="match"/>
      </search>
   </entry>
   <entry>
      <fullUrl value="urn:uuid:5a18a83e-a281-11ef-2018-020000000000"/>
      <resource>
         <MedicationRequest>
            <meta>
               <profile value="http://nictiz.nl/fhir/StructureDefinition/mp-MedicationAgreement"/>
            </meta>
            <extension url="http://nictiz.nl/fhir/StructureDefinition/ext-RegistrationDateTime">
               <valueDateTime value="2022-11-02T11:30:00+01:00"/>
            </extension>
            <f:extension xmlns:f="http://hl7.org/fhir"
                         url="http://nictiz.nl/fhir/StructureDefinition/ext-RenderedDosageInstruction">
               <f:valueString value="Vanaf 2 nov 2022, gedurende 28 dagen, 1 maal per dag 1 stuk, oraal"/>
            </f:extension>
            <extension url="http://nictiz.nl/fhir/StructureDefinition/ext-TimeInterval.Period">
               <valuePeriod>
                  <extension url="http://nictiz.nl/fhir/StructureDefinition/ext-TimeInterval.Duration">
                     <valueDuration>
                        <value value="28"/>
                        <unit value="dag"/>
                        <system value="http://unitsofmeasure.org"/>
                        <code value="d"/>
                     </valueDuration>
                  </extension>
                  <start value="2022-11-02T00:00:00+01:00"/>
               </valuePeriod>
            </extension>
            <extension url="http://nictiz.nl/fhir/StructureDefinition/ext-PharmaceuticalTreatment.Identifier">
               <valueIdentifier>
                  <system value="urn:oid:2.16.840.1.113883.2.4.3.11.999.77.1.1"/>
                  <value value="MBH_300_start_duur2"/>
               </valueIdentifier>
            </extension>
            <identifier>
               <system value="urn:oid:2.16.840.1.113883.2.4.3.11.999.77.16076005.1"/>
               <value value="MBH_300_start_duur2_MA"/>
            </identifier>
            <status value="unknown"/>
            <intent value="order"/>
            <category>
               <coding>
                  <system value="http://snomed.info/sct"/>
                  <code value="33633005"/>
                  <display value="voorschrijven van geneesmiddel"/>
               </coding>
            </category>
            <medicationReference>
               <reference value="urn:uuid:5a1883c2-a281-11ef-2018-020000000000"/>
               <type value="Medication"/>
               <display value="PANTOPRAZOL 20MG TABLET MSR"/>
            </medicationReference>
            <subject>
               <reference value="urn:uuid:5a18a604-a281-11ef-2018-020000000000"/>
               <type value="Patient"/>
               <display value="Patient, D. XXX_Dijks"/>
            </subject>
            <requester>
               <reference value="urn:uuid:5a18a62c-a281-11ef-2018-020000000000"/>
               <type value="PractitionerRole"/>
               <display value="Healthcare professional (role), Peter van Pulver, Huisartsen, niet nader gespecificeerd, Huisartsenpraktijk Pulver &amp; Partners"/>
            </requester>
            <dosageInstruction>
               <timing>
                  <repeat>
                     <frequency value="1"/>
                     <period value="1"/>
                     <periodUnit value="d"/>
                  </repeat>
               </timing>
               <route>
                  <coding>
                     <system value="urn:oid:2.16.840.1.113883.2.4.4.9"/>
                     <code value="9"/>
                     <display value="oraal"/>
                  </coding>
               </route>
               <doseAndRate>
                  <doseQuantity>
                     <extension url="http://hl7.org/fhir/StructureDefinition/iso21090-PQ-translation">
                        <valueQuantity>
                           <value value="1"/>
                           <unit value="stuk"/>
                           <system value="urn:oid:2.16.840.1.113883.2.4.4.1.900.2"/>
                           <code value="245"/>
                        </valueQuantity>
                     </extension>
                     <value value="1"/>
                     <unit value="stuk"/>
                     <system value="http://unitsofmeasure.org"/>
                     <code value="1"/>
                  </doseQuantity>
               </doseAndRate>
            </dosageInstruction>
         </MedicationRequest>
      </resource>
      <search>
         <mode value="match"/>
      </search>
   </entry>
   <entry>
      <fullUrl value="urn:uuid:5a18a85c-a281-11ef-2018-020000000000"/>
      <resource>
         <MedicationRequest>
            <meta>
               <profile value="http://nictiz.nl/fhir/StructureDefinition/mp-MedicationAgreement"/>
            </meta>
            <extension url="http://nictiz.nl/fhir/StructureDefinition/ext-RegistrationDateTime">
               <valueDateTime value="2022-08-24T11:35:00+02:00"/>
            </extension>
            <f:extension xmlns:f="http://hl7.org/fhir"
                         url="http://nictiz.nl/fhir/StructureDefinition/ext-RenderedDosageInstruction">
               <f:valueString value="Vanaf 24 aug 2022, tot en met 22 sep 2022, 2 maal per dag 1 dosis, inhalatie"/>
            </f:extension>
            <extension url="http://nictiz.nl/fhir/StructureDefinition/ext-TimeInterval.Period">
               <valuePeriod>
                  <start value="2022-08-24T00:00:00+02:00"/>
                  <end value="2022-09-22T23:59:59+02:00"/>
               </valuePeriod>
            </extension>
            <extension url="http://nictiz.nl/fhir/StructureDefinition/ext-PharmaceuticalTreatment.Identifier">
               <valueIdentifier>
                  <system value="urn:oid:2.16.840.1.113883.2.4.3.11.999.77.1.1"/>
                  <value value="MBH_300_dosis_stuks"/>
               </valueIdentifier>
            </extension>
            <identifier>
               <system value="urn:oid:2.16.840.1.113883.2.4.3.11.999.77.16076005.1"/>
               <value value="MBH_300_dosis_stuks_MA"/>
            </identifier>
            <status value="unknown"/>
            <intent value="order"/>
            <category>
               <coding>
                  <system value="http://snomed.info/sct"/>
                  <code value="33633005"/>
                  <display value="voorschrijven van geneesmiddel"/>
               </coding>
            </category>
            <medicationReference>
               <reference value="urn:uuid:5a1883fe-a281-11ef-2018-020000000000"/>
               <type value="Medication"/>
               <display value="FLUTICASON INHALATIEPOEDER 100UG/DO 60DO DISKUS"/>
            </medicationReference>
            <subject>
               <reference value="urn:uuid:5a18a604-a281-11ef-2018-020000000000"/>
               <type value="Patient"/>
               <display value="Patient, D. XXX_Dijks"/>
            </subject>
            <requester>
               <reference value="urn:uuid:5a18a62c-a281-11ef-2018-020000000000"/>
               <type value="PractitionerRole"/>
               <display value="Healthcare professional (role), Peter van Pulver, Huisartsen, niet nader gespecificeerd, Huisartsenpraktijk Pulver &amp; Partners"/>
            </requester>
            <dosageInstruction>
               <timing>
                  <repeat>
                     <frequency value="2"/>
                     <period value="1"/>
                     <periodUnit value="d"/>
                  </repeat>
               </timing>
               <route>
                  <coding>
                     <system value="urn:oid:2.16.840.1.113883.2.4.4.9"/>
                     <code value="62"/>
                     <display value="inhalatie"/>
                  </coding>
               </route>
               <doseAndRate>
                  <doseQuantity>
                     <extension url="http://hl7.org/fhir/StructureDefinition/iso21090-PQ-translation">
                        <valueQuantity>
                           <value value="1"/>
                           <unit value="dosis"/>
                           <system value="urn:oid:2.16.840.1.113883.2.4.4.1.900.2"/>
                           <code value="208"/>
                        </valueQuantity>
                     </extension>
                     <value value="1"/>
                     <unit value="dosis"/>
                     <system value="http://unitsofmeasure.org"/>
                     <code value="1"/>
                  </doseQuantity>
               </doseAndRate>
            </dosageInstruction>
         </MedicationRequest>
      </resource>
      <search>
         <mode value="match"/>
      </search>
   </entry>
   <entry>
      <fullUrl value="urn:uuid:5a18830e-a281-11ef-2018-020000000000"/>
      <resource>
         <MedicationRequest>
            <meta>
               <profile value="http://nictiz.nl/fhir/StructureDefinition/mp-VariableDosingRegimen"/>
            </meta>
            <extension url="http://nictiz.nl/fhir/StructureDefinition/ext-PharmaceuticalTreatment.Identifier">
               <valueIdentifier>
                  <system value="urn:oid:2.16.840.1.113883.2.4.3.11.999.77.1.1"/>
                  <value value="MBH_300_WDS_start_duur"/>
               </valueIdentifier>
            </extension>
            <extension url="http://nictiz.nl/fhir/StructureDefinition/ext-RegistrationDateTime">
               <valueDateTime value="2022-12-31T18:00:00+01:00"/>
            </extension>
            <f:extension xmlns:f="http://hl7.org/fhir"
                         url="http://nictiz.nl/fhir/StructureDefinition/ext-RenderedDosageInstruction">
               <f:valueString value="Vanaf 1 jan 2023, gedurende 2 weken, eerst gedurende 1 dag 1 maal per dag 1 stuk, dan gedurende 1 dag 1 maal per dag 2 stuks, dan gedurende 1 dag 1 maal per dag 1 stuk, dan gedurende 1 dag 1 maal per dag 2 stuks, dan gedurende 1 dag 1 maal per dag 1 stuk, dan gedurende 1 dag 1 maal per dag 2 stuks, dan gedurende 1 dag 1 maal per dag 1 stuk, dan gedurende 1 dag 1 maal per dag 2 stuks, dan gedurende 1 dag 1 maal per dag 1 stuk, dan gedurende 1 dag 1 maal per dag 2 stuks, dan gedurende 1 dag 1 maal per dag 1 stuk, dan gedurende 1 dag 1 maal per dag 2 stuks, dan gedurende 1 dag 1 maal per dag 1 stuk, dan gedurende 1 dag 1 maal per dag 2 stuks, Oraal"/>
            </f:extension>
            <extension url="http://nictiz.nl/fhir/StructureDefinition/ext-TimeInterval.Period">
               <valuePeriod>
                  <extension url="http://nictiz.nl/fhir/StructureDefinition/ext-TimeInterval.Duration">
                     <valueDuration>
                        <value value="2"/>
                        <unit value="week"/>
                        <system value="http://unitsofmeasure.org"/>
                        <code value="wk"/>
                     </valueDuration>
                  </extension>
                  <start value="2023-01-01"/>
               </valuePeriod>
            </extension>
            <identifier>
               <system value="urn:oid:2.16.840.1.113883.2.4.3.11.999.77.632.1"/>
               <value value="MBH_300_WDS_start_duur_WDS"/>
            </identifier>
            <status value="unknown"/>
            <intent value="order"/>
            <category>
               <coding>
                  <system value="http://snomed.info/sct"/>
                  <code value="395067002"/>
                  <display value="optimaliseren van dosering van medicatie"/>
               </coding>
            </category>
            <medicationReference>
               <reference value="urn:uuid:5a18834a-a281-11ef-2018-020000000000"/>
               <type value="Medication"/>
               <display value="ACENOCOUMAROL TABLET 1MG"/>
            </medicationReference>
            <subject>
               <reference value="urn:uuid:5a18a604-a281-11ef-2018-020000000000"/>
               <type value="Patient"/>
               <display value="Patient, D. XXX_Dijks"/>
            </subject>
            <requester>
               <reference value="urn:uuid:5a18a62c-a281-11ef-2018-020000000000"/>
               <type value="PractitionerRole"/>
               <display value="Healthcare professional (role), Peter van Pulver, Huisartsen, niet nader gespecificeerd, Huisartsenpraktijk Pulver &amp; Partners"/>
            </requester>
            <basedOn>
               <type value="MedicationRequest"/>
               <identifier>
                  <system value="urn:oid:2.16.840.1.113883.2.4.3.11.999.77.16076005.1"/>
                  <value value="MBH_300_WDS_start_duur_MA"/>
               </identifier>
               <display value="relatie naar medicatieafspraak met identificatie: MBH_300_WDS_start_duur_MA || 2.16.840.1.113883.2.4.3.11.999.77.16076005.1"/>
            </basedOn>
            <dosageInstruction>
               <sequence value="1"/>
               <timing>
                  <repeat>
                     <boundsDuration>
                        <value value="1"/>
                        <unit value="dag"/>
                        <system value="http://unitsofmeasure.org"/>
                        <code value="d"/>
                     </boundsDuration>
                     <frequency value="1"/>
                     <period value="1"/>
                     <periodUnit value="d"/>
                  </repeat>
               </timing>
               <route>
                  <coding>
                     <system value="urn:oid:2.16.840.1.113883.2.4.4.9"/>
                     <code value="9"/>
                     <display value="Oraal"/>
                  </coding>
               </route>
               <doseAndRate>
                  <doseQuantity>
                     <extension url="http://hl7.org/fhir/StructureDefinition/iso21090-PQ-translation">
                        <valueQuantity>
                           <value value="1"/>
                           <unit value="stuk"/>
                           <system value="urn:oid:2.16.840.1.113883.2.4.4.1.900.2"/>
                           <code value="245"/>
                        </valueQuantity>
                     </extension>
                     <value value="1"/>
                     <unit value="stuk"/>
                     <system value="http://unitsofmeasure.org"/>
                     <code value="1"/>
                  </doseQuantity>
               </doseAndRate>
            </dosageInstruction>
            <dosageInstruction>
               <sequence value="2"/>
               <timing>
                  <repeat>
                     <boundsDuration>
                        <value value="1"/>
                        <unit value="dag"/>
                        <system value="http://unitsofmeasure.org"/>
                        <code value="d"/>
                     </boundsDuration>
                     <frequency value="1"/>
                     <period value="1"/>
                     <periodUnit value="d"/>
                  </repeat>
               </timing>
               <route>
                  <coding>
                     <system value="urn:oid:2.16.840.1.113883.2.4.4.9"/>
                     <code value="9"/>
                     <display value="Oraal"/>
                  </coding>
               </route>
               <doseAndRate>
                  <doseQuantity>
                     <extension url="http://hl7.org/fhir/StructureDefinition/iso21090-PQ-translation">
                        <valueQuantity>
                           <value value="2"/>
                           <unit value="stuk"/>
                           <system value="urn:oid:2.16.840.1.113883.2.4.4.1.900.2"/>
                           <code value="245"/>
                        </valueQuantity>
                     </extension>
                     <value value="2"/>
                     <unit value="stuk"/>
                     <system value="http://unitsofmeasure.org"/>
                     <code value="1"/>
                  </doseQuantity>
               </doseAndRate>
            </dosageInstruction>
            <dosageInstruction>
               <sequence value="3"/>
               <timing>
                  <repeat>
                     <boundsDuration>
                        <value value="1"/>
                        <unit value="dag"/>
                        <system value="http://unitsofmeasure.org"/>
                        <code value="d"/>
                     </boundsDuration>
                     <frequency value="1"/>
                     <period value="1"/>
                     <periodUnit value="d"/>
                  </repeat>
               </timing>
               <route>
                  <coding>
                     <system value="urn:oid:2.16.840.1.113883.2.4.4.9"/>
                     <code value="9"/>
                     <display value="Oraal"/>
                  </coding>
               </route>
               <doseAndRate>
                  <doseQuantity>
                     <extension url="http://hl7.org/fhir/StructureDefinition/iso21090-PQ-translation">
                        <valueQuantity>
                           <value value="1"/>
                           <unit value="stuk"/>
                           <system value="urn:oid:2.16.840.1.113883.2.4.4.1.900.2"/>
                           <code value="245"/>
                        </valueQuantity>
                     </extension>
                     <value value="1"/>
                     <unit value="stuk"/>
                     <system value="http://unitsofmeasure.org"/>
                     <code value="1"/>
                  </doseQuantity>
               </doseAndRate>
            </dosageInstruction>
            <dosageInstruction>
               <sequence value="4"/>
               <timing>
                  <repeat>
                     <boundsDuration>
                        <value value="1"/>
                        <unit value="dag"/>
                        <system value="http://unitsofmeasure.org"/>
                        <code value="d"/>
                     </boundsDuration>
                     <frequency value="1"/>
                     <period value="1"/>
                     <periodUnit value="d"/>
                  </repeat>
               </timing>
               <route>
                  <coding>
                     <system value="urn:oid:2.16.840.1.113883.2.4.4.9"/>
                     <code value="9"/>
                     <display value="Oraal"/>
                  </coding>
               </route>
               <doseAndRate>
                  <doseQuantity>
                     <extension url="http://hl7.org/fhir/StructureDefinition/iso21090-PQ-translation">
                        <valueQuantity>
                           <value value="2"/>
                           <unit value="stuk"/>
                           <system value="urn:oid:2.16.840.1.113883.2.4.4.1.900.2"/>
                           <code value="245"/>
                        </valueQuantity>
                     </extension>
                     <value value="2"/>
                     <unit value="stuk"/>
                     <system value="http://unitsofmeasure.org"/>
                     <code value="1"/>
                  </doseQuantity>
               </doseAndRate>
            </dosageInstruction>
            <dosageInstruction>
               <sequence value="5"/>
               <timing>
                  <repeat>
                     <boundsDuration>
                        <value value="1"/>
                        <unit value="dag"/>
                        <system value="http://unitsofmeasure.org"/>
                        <code value="d"/>
                     </boundsDuration>
                     <frequency value="1"/>
                     <period value="1"/>
                     <periodUnit value="d"/>
                  </repeat>
               </timing>
               <route>
                  <coding>
                     <system value="urn:oid:2.16.840.1.113883.2.4.4.9"/>
                     <code value="9"/>
                     <display value="Oraal"/>
                  </coding>
               </route>
               <doseAndRate>
                  <doseQuantity>
                     <extension url="http://hl7.org/fhir/StructureDefinition/iso21090-PQ-translation">
                        <valueQuantity>
                           <value value="1"/>
                           <unit value="stuk"/>
                           <system value="urn:oid:2.16.840.1.113883.2.4.4.1.900.2"/>
                           <code value="245"/>
                        </valueQuantity>
                     </extension>
                     <value value="1"/>
                     <unit value="stuk"/>
                     <system value="http://unitsofmeasure.org"/>
                     <code value="1"/>
                  </doseQuantity>
               </doseAndRate>
            </dosageInstruction>
            <dosageInstruction>
               <sequence value="6"/>
               <timing>
                  <repeat>
                     <boundsDuration>
                        <value value="1"/>
                        <unit value="dag"/>
                        <system value="http://unitsofmeasure.org"/>
                        <code value="d"/>
                     </boundsDuration>
                     <frequency value="1"/>
                     <period value="1"/>
                     <periodUnit value="d"/>
                  </repeat>
               </timing>
               <route>
                  <coding>
                     <system value="urn:oid:2.16.840.1.113883.2.4.4.9"/>
                     <code value="9"/>
                     <display value="Oraal"/>
                  </coding>
               </route>
               <doseAndRate>
                  <doseQuantity>
                     <extension url="http://hl7.org/fhir/StructureDefinition/iso21090-PQ-translation">
                        <valueQuantity>
                           <value value="2"/>
                           <unit value="stuk"/>
                           <system value="urn:oid:2.16.840.1.113883.2.4.4.1.900.2"/>
                           <code value="245"/>
                        </valueQuantity>
                     </extension>
                     <value value="2"/>
                     <unit value="stuk"/>
                     <system value="http://unitsofmeasure.org"/>
                     <code value="1"/>
                  </doseQuantity>
               </doseAndRate>
            </dosageInstruction>
            <dosageInstruction>
               <sequence value="7"/>
               <timing>
                  <repeat>
                     <boundsDuration>
                        <value value="1"/>
                        <unit value="dag"/>
                        <system value="http://unitsofmeasure.org"/>
                        <code value="d"/>
                     </boundsDuration>
                     <frequency value="1"/>
                     <period value="1"/>
                     <periodUnit value="d"/>
                  </repeat>
               </timing>
               <route>
                  <coding>
                     <system value="urn:oid:2.16.840.1.113883.2.4.4.9"/>
                     <code value="9"/>
                     <display value="Oraal"/>
                  </coding>
               </route>
               <doseAndRate>
                  <doseQuantity>
                     <extension url="http://hl7.org/fhir/StructureDefinition/iso21090-PQ-translation">
                        <valueQuantity>
                           <value value="1"/>
                           <unit value="stuk"/>
                           <system value="urn:oid:2.16.840.1.113883.2.4.4.1.900.2"/>
                           <code value="245"/>
                        </valueQuantity>
                     </extension>
                     <value value="1"/>
                     <unit value="stuk"/>
                     <system value="http://unitsofmeasure.org"/>
                     <code value="1"/>
                  </doseQuantity>
               </doseAndRate>
            </dosageInstruction>
            <dosageInstruction>
               <sequence value="8"/>
               <timing>
                  <repeat>
                     <boundsDuration>
                        <value value="1"/>
                        <unit value="dag"/>
                        <system value="http://unitsofmeasure.org"/>
                        <code value="d"/>
                     </boundsDuration>
                     <frequency value="1"/>
                     <period value="1"/>
                     <periodUnit value="d"/>
                  </repeat>
               </timing>
               <route>
                  <coding>
                     <system value="urn:oid:2.16.840.1.113883.2.4.4.9"/>
                     <code value="9"/>
                     <display value="Oraal"/>
                  </coding>
               </route>
               <doseAndRate>
                  <doseQuantity>
                     <extension url="http://hl7.org/fhir/StructureDefinition/iso21090-PQ-translation">
                        <valueQuantity>
                           <value value="2"/>
                           <unit value="stuk"/>
                           <system value="urn:oid:2.16.840.1.113883.2.4.4.1.900.2"/>
                           <code value="245"/>
                        </valueQuantity>
                     </extension>
                     <value value="2"/>
                     <unit value="stuk"/>
                     <system value="http://unitsofmeasure.org"/>
                     <code value="1"/>
                  </doseQuantity>
               </doseAndRate>
            </dosageInstruction>
            <dosageInstruction>
               <sequence value="9"/>
               <timing>
                  <repeat>
                     <boundsDuration>
                        <value value="1"/>
                        <unit value="dag"/>
                        <system value="http://unitsofmeasure.org"/>
                        <code value="d"/>
                     </boundsDuration>
                     <frequency value="1"/>
                     <period value="1"/>
                     <periodUnit value="d"/>
                  </repeat>
               </timing>
               <route>
                  <coding>
                     <system value="urn:oid:2.16.840.1.113883.2.4.4.9"/>
                     <code value="9"/>
                     <display value="Oraal"/>
                  </coding>
               </route>
               <doseAndRate>
                  <doseQuantity>
                     <extension url="http://hl7.org/fhir/StructureDefinition/iso21090-PQ-translation">
                        <valueQuantity>
                           <value value="1"/>
                           <unit value="stuk"/>
                           <system value="urn:oid:2.16.840.1.113883.2.4.4.1.900.2"/>
                           <code value="245"/>
                        </valueQuantity>
                     </extension>
                     <value value="1"/>
                     <unit value="stuk"/>
                     <system value="http://unitsofmeasure.org"/>
                     <code value="1"/>
                  </doseQuantity>
               </doseAndRate>
            </dosageInstruction>
            <dosageInstruction>
               <sequence value="10"/>
               <timing>
                  <repeat>
                     <boundsDuration>
                        <value value="1"/>
                        <unit value="dag"/>
                        <system value="http://unitsofmeasure.org"/>
                        <code value="d"/>
                     </boundsDuration>
                     <frequency value="1"/>
                     <period value="1"/>
                     <periodUnit value="d"/>
                  </repeat>
               </timing>
               <route>
                  <coding>
                     <system value="urn:oid:2.16.840.1.113883.2.4.4.9"/>
                     <code value="9"/>
                     <display value="Oraal"/>
                  </coding>
               </route>
               <doseAndRate>
                  <doseQuantity>
                     <extension url="http://hl7.org/fhir/StructureDefinition/iso21090-PQ-translation">
                        <valueQuantity>
                           <value value="2"/>
                           <unit value="stuk"/>
                           <system value="urn:oid:2.16.840.1.113883.2.4.4.1.900.2"/>
                           <code value="245"/>
                        </valueQuantity>
                     </extension>
                     <value value="2"/>
                     <unit value="stuk"/>
                     <system value="http://unitsofmeasure.org"/>
                     <code value="1"/>
                  </doseQuantity>
               </doseAndRate>
            </dosageInstruction>
            <dosageInstruction>
               <sequence value="11"/>
               <timing>
                  <repeat>
                     <boundsDuration>
                        <value value="1"/>
                        <unit value="dag"/>
                        <system value="http://unitsofmeasure.org"/>
                        <code value="d"/>
                     </boundsDuration>
                     <frequency value="1"/>
                     <period value="1"/>
                     <periodUnit value="d"/>
                  </repeat>
               </timing>
               <route>
                  <coding>
                     <system value="urn:oid:2.16.840.1.113883.2.4.4.9"/>
                     <code value="9"/>
                     <display value="Oraal"/>
                  </coding>
               </route>
               <doseAndRate>
                  <doseQuantity>
                     <extension url="http://hl7.org/fhir/StructureDefinition/iso21090-PQ-translation">
                        <valueQuantity>
                           <value value="1"/>
                           <unit value="stuk"/>
                           <system value="urn:oid:2.16.840.1.113883.2.4.4.1.900.2"/>
                           <code value="245"/>
                        </valueQuantity>
                     </extension>
                     <value value="1"/>
                     <unit value="stuk"/>
                     <system value="http://unitsofmeasure.org"/>
                     <code value="1"/>
                  </doseQuantity>
               </doseAndRate>
            </dosageInstruction>
            <dosageInstruction>
               <sequence value="12"/>
               <timing>
                  <repeat>
                     <boundsDuration>
                        <value value="1"/>
                        <unit value="dag"/>
                        <system value="http://unitsofmeasure.org"/>
                        <code value="d"/>
                     </boundsDuration>
                     <frequency value="1"/>
                     <period value="1"/>
                     <periodUnit value="d"/>
                  </repeat>
               </timing>
               <route>
                  <coding>
                     <system value="urn:oid:2.16.840.1.113883.2.4.4.9"/>
                     <code value="9"/>
                     <display value="Oraal"/>
                  </coding>
               </route>
               <doseAndRate>
                  <doseQuantity>
                     <extension url="http://hl7.org/fhir/StructureDefinition/iso21090-PQ-translation">
                        <valueQuantity>
                           <value value="2"/>
                           <unit value="stuk"/>
                           <system value="urn:oid:2.16.840.1.113883.2.4.4.1.900.2"/>
                           <code value="245"/>
                        </valueQuantity>
                     </extension>
                     <value value="2"/>
                     <unit value="stuk"/>
                     <system value="http://unitsofmeasure.org"/>
                     <code value="1"/>
                  </doseQuantity>
               </doseAndRate>
            </dosageInstruction>
            <dosageInstruction>
               <sequence value="13"/>
               <timing>
                  <repeat>
                     <boundsDuration>
                        <value value="1"/>
                        <unit value="dag"/>
                        <system value="http://unitsofmeasure.org"/>
                        <code value="d"/>
                     </boundsDuration>
                     <frequency value="1"/>
                     <period value="1"/>
                     <periodUnit value="d"/>
                  </repeat>
               </timing>
               <route>
                  <coding>
                     <system value="urn:oid:2.16.840.1.113883.2.4.4.9"/>
                     <code value="9"/>
                     <display value="Oraal"/>
                  </coding>
               </route>
               <doseAndRate>
                  <doseQuantity>
                     <extension url="http://hl7.org/fhir/StructureDefinition/iso21090-PQ-translation">
                        <valueQuantity>
                           <value value="1"/>
                           <unit value="stuk"/>
                           <system value="urn:oid:2.16.840.1.113883.2.4.4.1.900.2"/>
                           <code value="245"/>
                        </valueQuantity>
                     </extension>
                     <value value="1"/>
                     <unit value="stuk"/>
                     <system value="http://unitsofmeasure.org"/>
                     <code value="1"/>
                  </doseQuantity>
               </doseAndRate>
            </dosageInstruction>
            <dosageInstruction>
               <sequence value="14"/>
               <timing>
                  <repeat>
                     <boundsDuration>
                        <value value="1"/>
                        <unit value="dag"/>
                        <system value="http://unitsofmeasure.org"/>
                        <code value="d"/>
                     </boundsDuration>
                     <frequency value="1"/>
                     <period value="1"/>
                     <periodUnit value="d"/>
                  </repeat>
               </timing>
               <route>
                  <coding>
                     <system value="urn:oid:2.16.840.1.113883.2.4.4.9"/>
                     <code value="9"/>
                     <display value="Oraal"/>
                  </coding>
               </route>
               <doseAndRate>
                  <doseQuantity>
                     <extension url="http://hl7.org/fhir/StructureDefinition/iso21090-PQ-translation">
                        <valueQuantity>
                           <value value="2"/>
                           <unit value="stuk"/>
                           <system value="urn:oid:2.16.840.1.113883.2.4.4.1.900.2"/>
                           <code value="245"/>
                        </valueQuantity>
                     </extension>
                     <value value="2"/>
                     <unit value="stuk"/>
                     <system value="http://unitsofmeasure.org"/>
                     <code value="1"/>
                  </doseQuantity>
               </doseAndRate>
            </dosageInstruction>
         </MedicationRequest>
      </resource>
      <search>
         <mode value="match"/>
      </search>
   </entry>
   <entry>
      <fullUrl value="urn:uuid:5a18832c-a281-11ef-2018-020000000000"/>
      <resource>
         <MedicationRequest>
            <meta>
               <profile value="http://nictiz.nl/fhir/StructureDefinition/mp-VariableDosingRegimen"/>
            </meta>
            <extension url="http://nictiz.nl/fhir/StructureDefinition/ext-PharmaceuticalTreatment.Identifier">
               <valueIdentifier>
                  <system value="urn:oid:2.16.840.1.113883.2.4.3.11.999.77.1.1"/>
                  <value value="MBH_300_WDS_start_duur2"/>
               </valueIdentifier>
            </extension>
            <extension url="http://nictiz.nl/fhir/StructureDefinition/ext-RegistrationDateTime">
               <valueDateTime value="2022-12-30T08:00:00+01:00"/>
            </extension>
            <f:extension xmlns:f="http://hl7.org/fhir"
                         url="http://nictiz.nl/fhir/StructureDefinition/ext-RenderedDosageInstruction">
               <f:valueString value="Vanaf 1 jan 2023, gedurende 13 dagen, eerst gedurende 1 dag 1 maal per dag 1 stuk, dan gedurende 1 dag 1 maal per dag 1 stuk, dan gedurende 1 dag 1 maal per dag 1 stuk, dan gedurende 1 dag 1 maal per dag 1 stuk, dan gedurende 1 dag 1 maal per dag 1 stuk, dan gedurende 1 dag 1 maal per dag 1 stuk, dan gedurende 1 dag 1 maal per dag 1 stuk, dan gedurende 1 dag 1 maal per dag 1 stuk, dan gedurende 1 dag 1 maal per dag 1 stuk, dan gedurende 1 dag 1 maal per dag 1 stuk, dan gedurende 1 dag 1 maal per dag 1 stuk, dan gedurende 1 dag 1 maal per dag 1 stuk, dan gedurende 1 dag 1 maal per dag 1 stuk, Oraal"/>
            </f:extension>
            <extension url="http://nictiz.nl/fhir/StructureDefinition/ext-TimeInterval.Period">
               <valuePeriod>
                  <extension url="http://nictiz.nl/fhir/StructureDefinition/ext-TimeInterval.Duration">
                     <valueDuration>
                        <value value="13"/>
                        <unit value="dag"/>
                        <system value="http://unitsofmeasure.org"/>
                        <code value="d"/>
                     </valueDuration>
                  </extension>
                  <start value="2023-01-01"/>
               </valuePeriod>
            </extension>
            <identifier>
               <system value="urn:oid:2.16.840.1.113883.2.4.3.11.999.77.632.1"/>
               <value value="MBH_300_WDS_start_duur2_WDS"/>
            </identifier>
            <status value="unknown"/>
            <intent value="order"/>
            <category>
               <coding>
                  <system value="http://snomed.info/sct"/>
                  <code value="395067002"/>
                  <display value="optimaliseren van dosering van medicatie"/>
               </coding>
            </category>
            <medicationReference>
               <reference value="urn:uuid:5a18834a-a281-11ef-2018-020000000000"/>
               <type value="Medication"/>
               <display value="ACENOCOUMAROL TABLET 1MG"/>
            </medicationReference>
            <subject>
               <reference value="urn:uuid:5a18a604-a281-11ef-2018-020000000000"/>
               <type value="Patient"/>
               <display value="Patient, D. XXX_Dijks"/>
            </subject>
            <requester>
               <reference value="urn:uuid:5a18a686-a281-11ef-2018-020000000000"/>
               <type value="PractitionerRole"/>
               <display value="Healthcare professional (role), Marcha van Partners, Huisartsen, niet nader gespecificeerd, Huisartsenpraktijk Itis"/>
            </requester>
            <basedOn>
               <type value="MedicationRequest"/>
               <identifier>
                  <system value="urn:oid:2.16.840.1.113883.2.4.3.11.999.77.16076005.1"/>
                  <value value="MBH_300_WDS_start_duur2_MA"/>
               </identifier>
               <display value="relatie naar medicatieafspraak met identificatie: MBH_300_WDS_start_duur2_MA || 2.16.840.1.113883.2.4.3.11.999.77.16076005.1"/>
            </basedOn>
            <dosageInstruction>
               <sequence value="1"/>
               <timing>
                  <repeat>
                     <boundsDuration>
                        <value value="1"/>
                        <unit value="dag"/>
                        <system value="http://unitsofmeasure.org"/>
                        <code value="d"/>
                     </boundsDuration>
                     <frequency value="1"/>
                     <period value="1"/>
                     <periodUnit value="d"/>
                  </repeat>
               </timing>
               <route>
                  <coding>
                     <system value="urn:oid:2.16.840.1.113883.2.4.4.9"/>
                     <code value="9"/>
                     <display value="Oraal"/>
                  </coding>
               </route>
               <doseAndRate>
                  <doseQuantity>
                     <extension url="http://hl7.org/fhir/StructureDefinition/iso21090-PQ-translation">
                        <valueQuantity>
                           <value value="1"/>
                           <unit value="stuk"/>
                           <system value="urn:oid:2.16.840.1.113883.2.4.4.1.900.2"/>
                           <code value="245"/>
                        </valueQuantity>
                     </extension>
                     <value value="1"/>
                     <unit value="stuk"/>
                     <system value="http://unitsofmeasure.org"/>
                     <code value="1"/>
                  </doseQuantity>
               </doseAndRate>
            </dosageInstruction>
            <dosageInstruction>
               <sequence value="2"/>
               <timing>
                  <repeat>
                     <boundsDuration>
                        <value value="1"/>
                        <unit value="dag"/>
                        <system value="http://unitsofmeasure.org"/>
                        <code value="d"/>
                     </boundsDuration>
                     <frequency value="1"/>
                     <period value="1"/>
                     <periodUnit value="d"/>
                  </repeat>
               </timing>
               <route>
                  <coding>
                     <system value="urn:oid:2.16.840.1.113883.2.4.4.9"/>
                     <code value="9"/>
                     <display value="Oraal"/>
                  </coding>
               </route>
               <doseAndRate>
                  <doseQuantity>
                     <extension url="http://hl7.org/fhir/StructureDefinition/iso21090-PQ-translation">
                        <valueQuantity>
                           <value value="1"/>
                           <unit value="stuk"/>
                           <system value="urn:oid:2.16.840.1.113883.2.4.4.1.900.2"/>
                           <code value="245"/>
                        </valueQuantity>
                     </extension>
                     <value value="1"/>
                     <unit value="stuk"/>
                     <system value="http://unitsofmeasure.org"/>
                     <code value="1"/>
                  </doseQuantity>
               </doseAndRate>
            </dosageInstruction>
            <dosageInstruction>
               <sequence value="3"/>
               <timing>
                  <repeat>
                     <boundsDuration>
                        <value value="1"/>
                        <unit value="dag"/>
                        <system value="http://unitsofmeasure.org"/>
                        <code value="d"/>
                     </boundsDuration>
                     <frequency value="1"/>
                     <period value="1"/>
                     <periodUnit value="d"/>
                  </repeat>
               </timing>
               <route>
                  <coding>
                     <system value="urn:oid:2.16.840.1.113883.2.4.4.9"/>
                     <code value="9"/>
                     <display value="Oraal"/>
                  </coding>
               </route>
               <doseAndRate>
                  <doseQuantity>
                     <extension url="http://hl7.org/fhir/StructureDefinition/iso21090-PQ-translation">
                        <valueQuantity>
                           <value value="1"/>
                           <unit value="stuk"/>
                           <system value="urn:oid:2.16.840.1.113883.2.4.4.1.900.2"/>
                           <code value="245"/>
                        </valueQuantity>
                     </extension>
                     <value value="1"/>
                     <unit value="stuk"/>
                     <system value="http://unitsofmeasure.org"/>
                     <code value="1"/>
                  </doseQuantity>
               </doseAndRate>
            </dosageInstruction>
            <dosageInstruction>
               <sequence value="4"/>
               <timing>
                  <repeat>
                     <boundsDuration>
                        <value value="1"/>
                        <unit value="dag"/>
                        <system value="http://unitsofmeasure.org"/>
                        <code value="d"/>
                     </boundsDuration>
                     <frequency value="1"/>
                     <period value="1"/>
                     <periodUnit value="d"/>
                  </repeat>
               </timing>
               <route>
                  <coding>
                     <system value="urn:oid:2.16.840.1.113883.2.4.4.9"/>
                     <code value="9"/>
                     <display value="Oraal"/>
                  </coding>
               </route>
               <doseAndRate>
                  <doseQuantity>
                     <extension url="http://hl7.org/fhir/StructureDefinition/iso21090-PQ-translation">
                        <valueQuantity>
                           <value value="1"/>
                           <unit value="stuk"/>
                           <system value="urn:oid:2.16.840.1.113883.2.4.4.1.900.2"/>
                           <code value="245"/>
                        </valueQuantity>
                     </extension>
                     <value value="1"/>
                     <unit value="stuk"/>
                     <system value="http://unitsofmeasure.org"/>
                     <code value="1"/>
                  </doseQuantity>
               </doseAndRate>
            </dosageInstruction>
            <dosageInstruction>
               <sequence value="5"/>
               <timing>
                  <repeat>
                     <boundsDuration>
                        <value value="1"/>
                        <unit value="dag"/>
                        <system value="http://unitsofmeasure.org"/>
                        <code value="d"/>
                     </boundsDuration>
                     <frequency value="1"/>
                     <period value="1"/>
                     <periodUnit value="d"/>
                  </repeat>
               </timing>
               <route>
                  <coding>
                     <system value="urn:oid:2.16.840.1.113883.2.4.4.9"/>
                     <code value="9"/>
                     <display value="Oraal"/>
                  </coding>
               </route>
               <doseAndRate>
                  <doseQuantity>
                     <extension url="http://hl7.org/fhir/StructureDefinition/iso21090-PQ-translation">
                        <valueQuantity>
                           <value value="1"/>
                           <unit value="stuk"/>
                           <system value="urn:oid:2.16.840.1.113883.2.4.4.1.900.2"/>
                           <code value="245"/>
                        </valueQuantity>
                     </extension>
                     <value value="1"/>
                     <unit value="stuk"/>
                     <system value="http://unitsofmeasure.org"/>
                     <code value="1"/>
                  </doseQuantity>
               </doseAndRate>
            </dosageInstruction>
            <dosageInstruction>
               <sequence value="6"/>
               <timing>
                  <repeat>
                     <boundsDuration>
                        <value value="1"/>
                        <unit value="dag"/>
                        <system value="http://unitsofmeasure.org"/>
                        <code value="d"/>
                     </boundsDuration>
                     <frequency value="1"/>
                     <period value="1"/>
                     <periodUnit value="d"/>
                  </repeat>
               </timing>
               <route>
                  <coding>
                     <system value="urn:oid:2.16.840.1.113883.2.4.4.9"/>
                     <code value="9"/>
                     <display value="Oraal"/>
                  </coding>
               </route>
               <doseAndRate>
                  <doseQuantity>
                     <extension url="http://hl7.org/fhir/StructureDefinition/iso21090-PQ-translation">
                        <valueQuantity>
                           <value value="1"/>
                           <unit value="stuk"/>
                           <system value="urn:oid:2.16.840.1.113883.2.4.4.1.900.2"/>
                           <code value="245"/>
                        </valueQuantity>
                     </extension>
                     <value value="1"/>
                     <unit value="stuk"/>
                     <system value="http://unitsofmeasure.org"/>
                     <code value="1"/>
                  </doseQuantity>
               </doseAndRate>
            </dosageInstruction>
            <dosageInstruction>
               <sequence value="7"/>
               <timing>
                  <repeat>
                     <boundsDuration>
                        <value value="1"/>
                        <unit value="dag"/>
                        <system value="http://unitsofmeasure.org"/>
                        <code value="d"/>
                     </boundsDuration>
                     <frequency value="1"/>
                     <period value="1"/>
                     <periodUnit value="d"/>
                  </repeat>
               </timing>
               <route>
                  <coding>
                     <system value="urn:oid:2.16.840.1.113883.2.4.4.9"/>
                     <code value="9"/>
                     <display value="Oraal"/>
                  </coding>
               </route>
               <doseAndRate>
                  <doseQuantity>
                     <extension url="http://hl7.org/fhir/StructureDefinition/iso21090-PQ-translation">
                        <valueQuantity>
                           <value value="1"/>
                           <unit value="stuk"/>
                           <system value="urn:oid:2.16.840.1.113883.2.4.4.1.900.2"/>
                           <code value="245"/>
                        </valueQuantity>
                     </extension>
                     <value value="1"/>
                     <unit value="stuk"/>
                     <system value="http://unitsofmeasure.org"/>
                     <code value="1"/>
                  </doseQuantity>
               </doseAndRate>
            </dosageInstruction>
            <dosageInstruction>
               <sequence value="8"/>
               <timing>
                  <repeat>
                     <boundsDuration>
                        <value value="1"/>
                        <unit value="dag"/>
                        <system value="http://unitsofmeasure.org"/>
                        <code value="d"/>
                     </boundsDuration>
                     <frequency value="1"/>
                     <period value="1"/>
                     <periodUnit value="d"/>
                  </repeat>
               </timing>
               <route>
                  <coding>
                     <system value="urn:oid:2.16.840.1.113883.2.4.4.9"/>
                     <code value="9"/>
                     <display value="Oraal"/>
                  </coding>
               </route>
               <doseAndRate>
                  <doseQuantity>
                     <extension url="http://hl7.org/fhir/StructureDefinition/iso21090-PQ-translation">
                        <valueQuantity>
                           <value value="1"/>
                           <unit value="stuk"/>
                           <system value="urn:oid:2.16.840.1.113883.2.4.4.1.900.2"/>
                           <code value="245"/>
                        </valueQuantity>
                     </extension>
                     <value value="1"/>
                     <unit value="stuk"/>
                     <system value="http://unitsofmeasure.org"/>
                     <code value="1"/>
                  </doseQuantity>
               </doseAndRate>
            </dosageInstruction>
            <dosageInstruction>
               <sequence value="9"/>
               <timing>
                  <repeat>
                     <boundsDuration>
                        <value value="1"/>
                        <unit value="dag"/>
                        <system value="http://unitsofmeasure.org"/>
                        <code value="d"/>
                     </boundsDuration>
                     <frequency value="1"/>
                     <period value="1"/>
                     <periodUnit value="d"/>
                  </repeat>
               </timing>
               <route>
                  <coding>
                     <system value="urn:oid:2.16.840.1.113883.2.4.4.9"/>
                     <code value="9"/>
                     <display value="Oraal"/>
                  </coding>
               </route>
               <doseAndRate>
                  <doseQuantity>
                     <extension url="http://hl7.org/fhir/StructureDefinition/iso21090-PQ-translation">
                        <valueQuantity>
                           <value value="1"/>
                           <unit value="stuk"/>
                           <system value="urn:oid:2.16.840.1.113883.2.4.4.1.900.2"/>
                           <code value="245"/>
                        </valueQuantity>
                     </extension>
                     <value value="1"/>
                     <unit value="stuk"/>
                     <system value="http://unitsofmeasure.org"/>
                     <code value="1"/>
                  </doseQuantity>
               </doseAndRate>
            </dosageInstruction>
            <dosageInstruction>
               <sequence value="10"/>
               <timing>
                  <repeat>
                     <boundsDuration>
                        <value value="1"/>
                        <unit value="dag"/>
                        <system value="http://unitsofmeasure.org"/>
                        <code value="d"/>
                     </boundsDuration>
                     <frequency value="1"/>
                     <period value="1"/>
                     <periodUnit value="d"/>
                  </repeat>
               </timing>
               <route>
                  <coding>
                     <system value="urn:oid:2.16.840.1.113883.2.4.4.9"/>
                     <code value="9"/>
                     <display value="Oraal"/>
                  </coding>
               </route>
               <doseAndRate>
                  <doseQuantity>
                     <extension url="http://hl7.org/fhir/StructureDefinition/iso21090-PQ-translation">
                        <valueQuantity>
                           <value value="1"/>
                           <unit value="stuk"/>
                           <system value="urn:oid:2.16.840.1.113883.2.4.4.1.900.2"/>
                           <code value="245"/>
                        </valueQuantity>
                     </extension>
                     <value value="1"/>
                     <unit value="stuk"/>
                     <system value="http://unitsofmeasure.org"/>
                     <code value="1"/>
                  </doseQuantity>
               </doseAndRate>
            </dosageInstruction>
            <dosageInstruction>
               <sequence value="11"/>
               <timing>
                  <repeat>
                     <boundsDuration>
                        <value value="1"/>
                        <unit value="dag"/>
                        <system value="http://unitsofmeasure.org"/>
                        <code value="d"/>
                     </boundsDuration>
                     <frequency value="1"/>
                     <period value="1"/>
                     <periodUnit value="d"/>
                  </repeat>
               </timing>
               <route>
                  <coding>
                     <system value="urn:oid:2.16.840.1.113883.2.4.4.9"/>
                     <code value="9"/>
                     <display value="Oraal"/>
                  </coding>
               </route>
               <doseAndRate>
                  <doseQuantity>
                     <extension url="http://hl7.org/fhir/StructureDefinition/iso21090-PQ-translation">
                        <valueQuantity>
                           <value value="1"/>
                           <unit value="stuk"/>
                           <system value="urn:oid:2.16.840.1.113883.2.4.4.1.900.2"/>
                           <code value="245"/>
                        </valueQuantity>
                     </extension>
                     <value value="1"/>
                     <unit value="stuk"/>
                     <system value="http://unitsofmeasure.org"/>
                     <code value="1"/>
                  </doseQuantity>
               </doseAndRate>
            </dosageInstruction>
            <dosageInstruction>
               <sequence value="12"/>
               <timing>
                  <repeat>
                     <boundsDuration>
                        <value value="1"/>
                        <unit value="dag"/>
                        <system value="http://unitsofmeasure.org"/>
                        <code value="d"/>
                     </boundsDuration>
                     <frequency value="1"/>
                     <period value="1"/>
                     <periodUnit value="d"/>
                  </repeat>
               </timing>
               <route>
                  <coding>
                     <system value="urn:oid:2.16.840.1.113883.2.4.4.9"/>
                     <code value="9"/>
                     <display value="Oraal"/>
                  </coding>
               </route>
               <doseAndRate>
                  <doseQuantity>
                     <extension url="http://hl7.org/fhir/StructureDefinition/iso21090-PQ-translation">
                        <valueQuantity>
                           <value value="1"/>
                           <unit value="stuk"/>
                           <system value="urn:oid:2.16.840.1.113883.2.4.4.1.900.2"/>
                           <code value="245"/>
                        </valueQuantity>
                     </extension>
                     <value value="1"/>
                     <unit value="stuk"/>
                     <system value="http://unitsofmeasure.org"/>
                     <code value="1"/>
                  </doseQuantity>
               </doseAndRate>
            </dosageInstruction>
            <dosageInstruction>
               <sequence value="13"/>
               <timing>
                  <repeat>
                     <boundsDuration>
                        <value value="1"/>
                        <unit value="dag"/>
                        <system value="http://unitsofmeasure.org"/>
                        <code value="d"/>
                     </boundsDuration>
                     <frequency value="1"/>
                     <period value="1"/>
                     <periodUnit value="d"/>
                  </repeat>
               </timing>
               <route>
                  <coding>
                     <system value="urn:oid:2.16.840.1.113883.2.4.4.9"/>
                     <code value="9"/>
                     <display value="Oraal"/>
                  </coding>
               </route>
               <doseAndRate>
                  <doseQuantity>
                     <extension url="http://hl7.org/fhir/StructureDefinition/iso21090-PQ-translation">
                        <valueQuantity>
                           <value value="1"/>
                           <unit value="stuk"/>
                           <system value="urn:oid:2.16.840.1.113883.2.4.4.1.900.2"/>
                           <code value="245"/>
                        </valueQuantity>
                     </extension>
                     <value value="1"/>
                     <unit value="stuk"/>
                     <system value="http://unitsofmeasure.org"/>
                     <code value="1"/>
                  </doseQuantity>
               </doseAndRate>
            </dosageInstruction>
         </MedicationRequest>
      </resource>
      <search>
         <mode value="match"/>
      </search>
   </entry>
   <entry>
      <fullUrl value="urn:uuid:5a188296-a281-11ef-2018-020000000000"/>
      <resource>
         <MedicationRequest>
            <meta>
               <profile value="http://nictiz.nl/fhir/StructureDefinition/mp-DispenseRequest"/>
            </meta>
            <extension url="http://nictiz.nl/fhir/StructureDefinition/ext-PharmaceuticalTreatment.Identifier">
               <valueIdentifier>
                  <system value="urn:oid:2.16.840.1.113883.2.4.3.11.999.77.1.1"/>
                  <value value="MBH_300_chronisch"/>
               </valueIdentifier>
            </extension>
            <identifier>
               <system value="urn:oid:2.16.840.1.113883.2.4.3.11.999.77.52711000146108.1"/>
               <value value="MBH_300_chronisch_VV"/>
            </identifier>
            <status value="unknown"/>
            <intent value="order"/>
            <category>
               <coding>
                  <system value="http://snomed.info/sct"/>
                  <code value="52711000146108"/>
                  <display value="verstrekkingsverzoek"/>
               </coding>
            </category>
            <medicationReference>
               <reference value="urn:uuid:5a188368-a281-11ef-2018-020000000000"/>
               <type value="Medication"/>
               <display value="ACETYLSALICYLZUUR/PARACETAMOL/COF TAB 250/250/50MG"/>
            </medicationReference>
            <subject>
               <reference value="urn:uuid:5a18a604-a281-11ef-2018-020000000000"/>
               <type value="Patient"/>
               <display value="Patient, D. XXX_Dijks"/>
            </subject>
            <authoredOn value="2022-12-02T11:32:00+01:00"/>
            <requester>
               <reference value="urn:uuid:5a18a62c-a281-11ef-2018-020000000000"/>
               <type value="PractitionerRole"/>
               <display value="Healthcare professional (role), Peter van Pulver, Huisartsen, niet nader gespecificeerd, Huisartsenpraktijk Pulver &amp; Partners"/>
            </requester>
            <performer>
               <reference value="urn:uuid:5a18a6f4-a281-11ef-2018-020000000000"/>
               <type value="Organization"/>
               <display value="Healthcare provider (organization), Apotheek De Gulle Gaper"/>
            </performer>
            <basedOn>
               <type value="MedicationRequest"/>
               <identifier>
                  <system value="urn:oid:2.16.840.1.113883.2.4.3.11.999.77.16076005.1"/>
                  <value value="MBH_300_chronisch_MA"/>
               </identifier>
               <display value="relatie naar medicatieafspraak  met identificatie: MBH_300_chronisch_MA || 2.16.840.1.113883.2.4.3.11.999.77.16076005.1"/>
            </basedOn>
            <dispenseRequest>
               <quantity>
                  <extension url="http://hl7.org/fhir/StructureDefinition/iso21090-PQ-translation">
                     <valueQuantity>
                        <value value="21"/>
                        <unit value="stuk"/>
                        <system value="urn:oid:2.16.840.1.113883.2.4.4.1.900.2"/>
                        <code value="245"/>
                     </valueQuantity>
                  </extension>
                  <value value="21"/>
                  <unit value="stuk"/>
                  <system value="http://unitsofmeasure.org"/>
                  <code value="1"/>
               </quantity>
            </dispenseRequest>
         </MedicationRequest>
      </resource>
      <search>
         <mode value="match"/>
      </search>
   </entry>
   <entry>
      <fullUrl value="urn:uuid:5a1882b4-a281-11ef-2018-020000000000"/>
      <resource>
         <MedicationRequest>
            <meta>
               <profile value="http://nictiz.nl/fhir/StructureDefinition/mp-DispenseRequest"/>
            </meta>
            <extension url="http://nictiz.nl/fhir/StructureDefinition/ext-PharmaceuticalTreatment.Identifier">
               <valueIdentifier>
                  <system value="urn:oid:2.16.840.1.113883.2.4.3.11.999.77.1.1"/>
                  <value value="MBH_300_chronisch"/>
               </valueIdentifier>
            </extension>
            <identifier>
               <system value="urn:oid:2.16.840.1.113883.2.4.3.11.999.77.52711000146108.1"/>
               <value value="MBH_300_chronisch_VV_extraVVbestaandeMA"/>
            </identifier>
            <status value="unknown"/>
            <intent value="order"/>
            <category>
               <coding>
                  <system value="http://snomed.info/sct"/>
                  <code value="52711000146108"/>
                  <display value="verstrekkingsverzoek"/>
               </coding>
            </category>
            <medicationReference>
               <reference value="urn:uuid:5a188368-a281-11ef-2018-020000000000"/>
               <type value="Medication"/>
               <display value="ACETYLSALICYLZUUR/PARACETAMOL/COF TAB 250/250/50MG"/>
            </medicationReference>
            <subject>
               <reference value="urn:uuid:5a18a604-a281-11ef-2018-020000000000"/>
               <type value="Patient"/>
               <display value="Patient, D. XXX_Dijks"/>
            </subject>
            <authoredOn value="2022-12-22T11:35:00+01:00"/>
            <requester>
               <reference value="urn:uuid:5a18a62c-a281-11ef-2018-020000000000"/>
               <type value="PractitionerRole"/>
               <display value="Healthcare professional (role), Peter van Pulver, Huisartsen, niet nader gespecificeerd, Huisartsenpraktijk Pulver &amp; Partners"/>
            </requester>
            <performer>
               <reference value="urn:uuid:5a18a6f4-a281-11ef-2018-020000000000"/>
               <type value="Organization"/>
               <display value="Healthcare provider (organization), Apotheek De Gulle Gaper"/>
            </performer>
            <basedOn>
               <type value="MedicationRequest"/>
               <identifier>
                  <system value="urn:oid:2.16.840.1.113883.2.4.3.11.999.77.16076005.1"/>
                  <value value="MBH_300_chronisch_MA"/>
               </identifier>
               <display value="relatie naar medicatieafspraak  met identificatie: MBH_300_chronisch_MA || 2.16.840.1.113883.2.4.3.11.999.77.16076005.1"/>
            </basedOn>
            <dispenseRequest>
               <quantity>
                  <extension url="http://hl7.org/fhir/StructureDefinition/iso21090-PQ-translation">
                     <valueQuantity>
                        <value value="90"/>
                        <unit value="stuk"/>
                        <system value="urn:oid:2.16.840.1.113883.2.4.4.1.900.2"/>
                        <code value="245"/>
                     </valueQuantity>
                  </extension>
                  <value value="90"/>
                  <unit value="stuk"/>
                  <system value="http://unitsofmeasure.org"/>
                  <code value="1"/>
               </quantity>
            </dispenseRequest>
         </MedicationRequest>
      </resource>
      <search>
         <mode value="match"/>
      </search>
   </entry>
   <entry>
      <fullUrl value="urn:uuid:5a18a87a-a281-11ef-2018-020000000000"/>
      <resource>
         <MedicationDispense>
            <meta>
               <profile value="http://nictiz.nl/fhir/StructureDefinition/mp-AdministrationAgreement"/>
            </meta>
            <extension url="http://nictiz.nl/fhir/StructureDefinition/ext-RegistrationDateTime">
               <valueDateTime value="2022-12-22T12:20:00+01:00"/>
            </extension>
            <f:extension xmlns:f="http://hl7.org/fhir"
                         url="http://nictiz.nl/fhir/StructureDefinition/ext-RenderedDosageInstruction">
               <f:valueString value="Vanaf 22 dec 2022, tot en met 27 dec 2022, 1 maal per dag 1 stuk, Oraal"/>
            </f:extension>
            <extension url="http://nictiz.nl/fhir/StructureDefinition/ext-TimeInterval.Period">
               <valuePeriod>
                  <start value="2022-12-22T00:00:00+01:00"/>
                  <end value="2022-12-27T23:59:59+01:00"/>
               </valuePeriod>
            </extension>
            <extension url="http://nictiz.nl/fhir/StructureDefinition/ext-PharmaceuticalTreatment.Identifier">
               <valueIdentifier>
                  <system value="urn:oid:2.16.840.1.113883.2.4.3.11.999.77.1.1"/>
                  <value value="MBH_300_start_eind"/>
               </valueIdentifier>
            </extension>
            <identifier>
               <system value="urn:oid:2.16.840.1.113883.2.4.3.11.999.77.422037009.1"/>
               <value value="MBH_300_start_eind_TA"/>
            </identifier>
            <status value="unknown"/>
            <category>
               <coding>
                  <system value="http://snomed.info/sct"/>
                  <code value="422037009"/>
                  <display value="toedieningsafspraak"/>
               </coding>
            </category>
            <medicationReference>
               <reference value="urn:uuid:5a188458-a281-11ef-2018-020000000000"/>
               <type value="Medication"/>
               <display value="METOCLOPRAMIDE HCL PCH TABLET 10MG"/>
            </medicationReference>
            <subject>
               <reference value="urn:uuid:5a18a604-a281-11ef-2018-020000000000"/>
               <type value="Patient"/>
               <display value="Patient, D. XXX_Dijks"/>
            </subject>
            <performer>
               <actor>
                  <reference value="urn:uuid:5a18a6f4-a281-11ef-2018-020000000000"/>
                  <type value="Organization"/>
                  <display value="Healthcare provider (organization), Apotheek De Gulle Gaper"/>
               </actor>
            </performer>
            <authorizingPrescription>
               <type value="MedicationRequest"/>
               <identifier>
                  <system value="urn:oid:2.16.840.1.113883.2.4.3.11.999.77.16076005.1"/>
                  <value value="MBH_300_start_eind_MA"/>
               </identifier>
               <display value="relatie naar medicatieafspraak met identificatie: MBH_300_start_eind_MA || 2.16.840.1.113883.2.4.3.11.999.77.16076005.1"/>
            </authorizingPrescription>
            <dosageInstruction>
               <timing>
                  <repeat>
                     <frequency value="1"/>
                     <period value="1"/>
                     <periodUnit value="d"/>
                  </repeat>
               </timing>
               <route>
                  <coding>
                     <system value="urn:oid:2.16.840.1.113883.2.4.4.9"/>
                     <code value="9"/>
                     <display value="Oraal"/>
                  </coding>
               </route>
               <doseAndRate>
                  <doseQuantity>
                     <extension url="http://hl7.org/fhir/StructureDefinition/iso21090-PQ-translation">
                        <valueQuantity>
                           <value value="1"/>
                           <unit value="stuk"/>
                           <system value="urn:oid:2.16.840.1.113883.2.4.4.1.900.2"/>
                           <code value="245"/>
                        </valueQuantity>
                     </extension>
                     <value value="1"/>
                     <unit value="stuk"/>
                     <system value="http://unitsofmeasure.org"/>
                     <code value="1"/>
                  </doseQuantity>
               </doseAndRate>
            </dosageInstruction>
         </MedicationDispense>
      </resource>
      <search>
         <mode value="match"/>
      </search>
   </entry>
   <entry>
      <fullUrl value="urn:uuid:5a18a898-a281-11ef-2018-020000000000"/>
      <resource>
         <MedicationDispense>
            <meta>
               <profile value="http://nictiz.nl/fhir/StructureDefinition/mp-AdministrationAgreement"/>
            </meta>
            <extension url="http://nictiz.nl/fhir/StructureDefinition/ext-RegistrationDateTime">
               <valueDateTime value="2022-12-12T12:30:00+01:00"/>
            </extension>
            <f:extension xmlns:f="http://hl7.org/fhir"
                         url="http://nictiz.nl/fhir/StructureDefinition/ext-RenderedDosageInstruction">
               <f:valueString value="Vanaf 12 dec 2022, gedurende 3 weken, 1 maal per dag 1 stuk, oraal"/>
            </f:extension>
            <extension url="http://nictiz.nl/fhir/StructureDefinition/ext-TimeInterval.Period">
               <valuePeriod>
                  <extension url="http://nictiz.nl/fhir/StructureDefinition/ext-TimeInterval.Duration">
                     <valueDuration>
                        <value value="3"/>
                        <unit value="week"/>
                        <system value="http://unitsofmeasure.org"/>
                        <code value="wk"/>
                     </valueDuration>
                  </extension>
                  <start value="2022-12-12T00:00:00+01:00"/>
               </valuePeriod>
            </extension>
            <extension url="http://nictiz.nl/fhir/StructureDefinition/ext-PharmaceuticalTreatment.Identifier">
               <valueIdentifier>
                  <system value="urn:oid:2.16.840.1.113883.2.4.3.11.999.77.1.1"/>
                  <value value="MBH_300_start_duur"/>
               </valueIdentifier>
            </extension>
            <identifier>
               <system value="urn:oid:2.16.840.1.113883.2.4.3.11.999.77.422037009.1"/>
               <value value="MBH_300_start_duur_TA"/>
            </identifier>
            <status value="unknown"/>
            <category>
               <coding>
                  <system value="http://snomed.info/sct"/>
                  <code value="422037009"/>
                  <display value="toedieningsafspraak"/>
               </coding>
            </category>
            <medicationReference>
               <reference value="urn:uuid:5a18843a-a281-11ef-2018-020000000000"/>
               <type value="Medication"/>
               <display value="LISINOPRIL SANDOZ TABLET 10MG"/>
            </medicationReference>
            <subject>
               <reference value="urn:uuid:5a18a604-a281-11ef-2018-020000000000"/>
               <type value="Patient"/>
               <display value="Patient, D. XXX_Dijks"/>
            </subject>
            <performer>
               <actor>
                  <reference value="urn:uuid:5a18a6f4-a281-11ef-2018-020000000000"/>
                  <type value="Organization"/>
                  <display value="Healthcare provider (organization), Apotheek De Gulle Gaper"/>
               </actor>
            </performer>
            <authorizingPrescription>
               <type value="MedicationRequest"/>
               <identifier>
                  <system value="urn:oid:2.16.840.1.113883.2.4.3.11.999.77.16076005.1"/>
                  <value value="MBH_300_start_duur_MA"/>
               </identifier>
               <display value="relatie naar medicatieafspraak met identificatie: MBH_300_start_duur_MA || 2.16.840.1.113883.2.4.3.11.999.77.16076005.1"/>
            </authorizingPrescription>
            <dosageInstruction>
               <timing>
                  <repeat>
                     <frequency value="1"/>
                     <period value="1"/>
                     <periodUnit value="d"/>
                  </repeat>
               </timing>
               <route>
                  <coding>
                     <system value="urn:oid:2.16.840.1.113883.2.4.4.9"/>
                     <code value="9"/>
                     <display value="oraal"/>
                  </coding>
               </route>
               <doseAndRate>
                  <doseQuantity>
                     <extension url="http://hl7.org/fhir/StructureDefinition/iso21090-PQ-translation">
                        <valueQuantity>
                           <value value="1"/>
                           <unit value="stuk"/>
                           <system value="urn:oid:2.16.840.1.113883.2.4.4.1.900.2"/>
                           <code value="245"/>
                        </valueQuantity>
                     </extension>
                     <value value="1"/>
                     <unit value="stuk"/>
                     <system value="http://unitsofmeasure.org"/>
                     <code value="1"/>
                  </doseQuantity>
               </doseAndRate>
            </dosageInstruction>
         </MedicationDispense>
      </resource>
      <search>
         <mode value="match"/>
      </search>
   </entry>
   <entry>
      <fullUrl value="urn:uuid:5a18a8b6-a281-11ef-2018-020000000000"/>
      <resource>
         <MedicationDispense>
            <meta>
               <profile value="http://nictiz.nl/fhir/StructureDefinition/mp-AdministrationAgreement"/>
            </meta>
            <extension url="http://nictiz.nl/fhir/StructureDefinition/ext-RegistrationDateTime">
               <valueDateTime value="2022-12-02T12:32:00+01:00"/>
            </extension>
            <f:extension xmlns:f="http://hl7.org/fhir"
                         url="http://nictiz.nl/fhir/StructureDefinition/ext-RenderedDosageInstruction">
               <f:valueString value="Vanaf 2 dec 2022, 1 maal per dag 1 stuk, oraal"/>
            </f:extension>
            <extension url="http://nictiz.nl/fhir/StructureDefinition/ext-TimeInterval.Period">
               <valuePeriod>
                  <start value="2022-12-02T00:00:00+01:00"/>
               </valuePeriod>
            </extension>
            <extension url="http://nictiz.nl/fhir/StructureDefinition/ext-PharmaceuticalTreatment.Identifier">
               <valueIdentifier>
                  <system value="urn:oid:2.16.840.1.113883.2.4.3.11.999.77.1.1"/>
                  <value value="MBH_300_chronisch"/>
               </valueIdentifier>
            </extension>
            <identifier>
               <system value="urn:oid:2.16.840.1.113883.2.4.3.11.999.77.422037009.1"/>
               <value value="MBH_300_chronisch_TA"/>
            </identifier>
            <status value="unknown"/>
            <category>
               <coding>
                  <system value="http://snomed.info/sct"/>
                  <code value="422037009"/>
                  <display value="toedieningsafspraak"/>
               </coding>
            </category>
            <medicationReference>
               <reference value="urn:uuid:5a1883e0-a281-11ef-2018-020000000000"/>
               <type value="Medication"/>
               <display value="ROTER APC TABLET"/>
            </medicationReference>
            <subject>
               <reference value="urn:uuid:5a18a604-a281-11ef-2018-020000000000"/>
               <type value="Patient"/>
               <display value="Patient, D. XXX_Dijks"/>
            </subject>
            <performer>
               <actor>
                  <reference value="urn:uuid:5a18a6f4-a281-11ef-2018-020000000000"/>
                  <type value="Organization"/>
                  <display value="Healthcare provider (organization), Apotheek De Gulle Gaper"/>
               </actor>
            </performer>
            <authorizingPrescription>
               <type value="MedicationRequest"/>
               <identifier>
                  <system value="urn:oid:2.16.840.1.113883.2.4.3.11.999.77.16076005.1"/>
                  <value value="MBH_300_chronisch_MA"/>
               </identifier>
               <display value="relatie naar medicatieafspraak met identificatie: MBH_300_chronisch_MA || 2.16.840.1.113883.2.4.3.11.999.77.16076005.1"/>
            </authorizingPrescription>
            <dosageInstruction>
               <timing>
                  <repeat>
                     <frequency value="1"/>
                     <period value="1"/>
                     <periodUnit value="d"/>
                  </repeat>
               </timing>
               <route>
                  <coding>
                     <system value="urn:oid:2.16.840.1.113883.2.4.4.9"/>
                     <code value="9"/>
                     <display value="oraal"/>
                  </coding>
               </route>
               <doseAndRate>
                  <doseQuantity>
                     <extension url="http://hl7.org/fhir/StructureDefinition/iso21090-PQ-translation">
                        <valueQuantity>
                           <value value="1"/>
                           <unit value="stuk"/>
                           <system value="urn:oid:2.16.840.1.113883.2.4.4.1.900.2"/>
                           <code value="245"/>
                        </valueQuantity>
                     </extension>
                     <value value="1"/>
                     <unit value="stuk"/>
                     <system value="http://unitsofmeasure.org"/>
                     <code value="1"/>
                  </doseQuantity>
               </doseAndRate>
            </dosageInstruction>
         </MedicationDispense>
      </resource>
      <search>
         <mode value="match"/>
      </search>
   </entry>
   <entry>
      <fullUrl value="urn:uuid:5a18a8d4-a281-11ef-2018-020000000000"/>
      <resource>
         <MedicationDispense>
            <meta>
               <profile value="http://nictiz.nl/fhir/StructureDefinition/mp-AdministrationAgreement"/>
            </meta>
            <extension url="http://nictiz.nl/fhir/StructureDefinition/ext-RegistrationDateTime">
               <valueDateTime value="2022-11-02T12:30:00+01:00"/>
            </extension>
            <f:extension xmlns:f="http://hl7.org/fhir"
                         url="http://nictiz.nl/fhir/StructureDefinition/ext-RenderedDosageInstruction">
               <f:valueString value="Vanaf 2 nov 2022, gedurende 28 dagen, 1 maal per dag 1 stuk, oraal"/>
            </f:extension>
            <extension url="http://nictiz.nl/fhir/StructureDefinition/ext-TimeInterval.Period">
               <valuePeriod>
                  <extension url="http://nictiz.nl/fhir/StructureDefinition/ext-TimeInterval.Duration">
                     <valueDuration>
                        <value value="28"/>
                        <unit value="dag"/>
                        <system value="http://unitsofmeasure.org"/>
                        <code value="d"/>
                     </valueDuration>
                  </extension>
                  <start value="2022-11-02T00:00:00+01:00"/>
               </valuePeriod>
            </extension>
            <extension url="http://nictiz.nl/fhir/StructureDefinition/ext-PharmaceuticalTreatment.Identifier">
               <valueIdentifier>
                  <system value="urn:oid:2.16.840.1.113883.2.4.3.11.999.77.1.1"/>
                  <value value="MBH_300_start_duur2"/>
               </valueIdentifier>
            </extension>
            <identifier>
               <system value="urn:oid:2.16.840.1.113883.2.4.3.11.999.77.422037009.1"/>
               <value value="MBH_300_start_duur2_TA"/>
            </identifier>
            <status value="unknown"/>
            <category>
               <coding>
                  <system value="http://snomed.info/sct"/>
                  <code value="422037009"/>
                  <display value="toedieningsafspraak"/>
               </coding>
            </category>
            <medicationReference>
               <reference value="urn:uuid:5a188476-a281-11ef-2018-020000000000"/>
               <type value="Medication"/>
               <display value="PANTOZOL TABLET MSR 20MG"/>
            </medicationReference>
            <subject>
               <reference value="urn:uuid:5a18a604-a281-11ef-2018-020000000000"/>
               <type value="Patient"/>
               <display value="Patient, D. XXX_Dijks"/>
            </subject>
            <performer>
               <actor>
                  <reference value="urn:uuid:5a18a6f4-a281-11ef-2018-020000000000"/>
                  <type value="Organization"/>
                  <display value="Healthcare provider (organization), Apotheek De Gulle Gaper"/>
               </actor>
            </performer>
            <authorizingPrescription>
               <type value="MedicationRequest"/>
               <identifier>
                  <system value="urn:oid:2.16.840.1.113883.2.4.3.11.999.77.16076005.1"/>
                  <value value="MBH_300_start_duur2_MA"/>
               </identifier>
               <display value="relatie naar medicatieafspraak met identificatie: MBH_300_start_duur2_MA || 2.16.840.1.113883.2.4.3.11.999.77.16076005.1"/>
            </authorizingPrescription>
            <dosageInstruction>
               <timing>
                  <repeat>
                     <frequency value="1"/>
                     <period value="1"/>
                     <periodUnit value="d"/>
                  </repeat>
               </timing>
               <route>
                  <coding>
                     <system value="urn:oid:2.16.840.1.113883.2.4.4.9"/>
                     <code value="9"/>
                     <display value="oraal"/>
                  </coding>
               </route>
               <doseAndRate>
                  <doseQuantity>
                     <extension url="http://hl7.org/fhir/StructureDefinition/iso21090-PQ-translation">
                        <valueQuantity>
                           <value value="1"/>
                           <unit value="stuk"/>
                           <system value="urn:oid:2.16.840.1.113883.2.4.4.1.900.2"/>
                           <code value="245"/>
                        </valueQuantity>
                     </extension>
                     <value value="1"/>
                     <unit value="stuk"/>
                     <system value="http://unitsofmeasure.org"/>
                     <code value="1"/>
                  </doseQuantity>
               </doseAndRate>
            </dosageInstruction>
         </MedicationDispense>
      </resource>
      <search>
         <mode value="match"/>
      </search>
   </entry>
   <entry>
      <fullUrl value="urn:uuid:5a18a8f2-a281-11ef-2018-020000000000"/>
      <resource>
         <MedicationDispense>
            <meta>
               <profile value="http://nictiz.nl/fhir/StructureDefinition/mp-AdministrationAgreement"/>
            </meta>
            <extension url="http://nictiz.nl/fhir/StructureDefinition/ext-RegistrationDateTime">
               <valueDateTime value="2022-08-24T12:35:00+02:00"/>
            </extension>
            <f:extension xmlns:f="http://hl7.org/fhir"
                         url="http://nictiz.nl/fhir/StructureDefinition/ext-RenderedDosageInstruction">
               <f:valueString value="Vanaf 24 aug 2022, tot en met 22 sep 2022, 2 maal per dag 1 dosis, inhalatie"/>
            </f:extension>
            <extension url="http://nictiz.nl/fhir/StructureDefinition/ext-TimeInterval.Period">
               <valuePeriod>
                  <start value="2022-08-24T00:00:00+02:00"/>
                  <end value="2022-09-22T23:59:59+02:00"/>
               </valuePeriod>
            </extension>
            <extension url="http://nictiz.nl/fhir/StructureDefinition/ext-PharmaceuticalTreatment.Identifier">
               <valueIdentifier>
                  <system value="urn:oid:2.16.840.1.113883.2.4.3.11.999.77.1.1"/>
                  <value value="MBH_300_dosis_stuks"/>
               </valueIdentifier>
            </extension>
            <identifier>
               <system value="urn:oid:2.16.840.1.113883.2.4.3.11.999.77.422037009.1"/>
               <value value="MBH_300_dosis_stuks_TA"/>
            </identifier>
            <status value="unknown"/>
            <category>
               <coding>
                  <system value="http://snomed.info/sct"/>
                  <code value="422037009"/>
                  <display value="toedieningsafspraak"/>
               </coding>
            </category>
            <medicationReference>
               <reference value="urn:uuid:5a18841c-a281-11ef-2018-020000000000"/>
               <type value="Medication"/>
               <display value="FLIXOTIDE DISKUS INHPDR 100MCG 60DO"/>
            </medicationReference>
            <subject>
               <reference value="urn:uuid:5a18a604-a281-11ef-2018-020000000000"/>
               <type value="Patient"/>
               <display value="Patient, D. XXX_Dijks"/>
            </subject>
            <performer>
               <actor>
                  <reference value="urn:uuid:5a18a6f4-a281-11ef-2018-020000000000"/>
                  <type value="Organization"/>
                  <display value="Healthcare provider (organization), Apotheek De Gulle Gaper"/>
               </actor>
            </performer>
            <authorizingPrescription>
               <type value="MedicationRequest"/>
               <identifier>
                  <system value="urn:oid:2.16.840.1.113883.2.4.3.11.999.77.16076005.1"/>
                  <value value="MBH_300_dosis_stuks_MA"/>
               </identifier>
               <display value="relatie naar medicatieafspraak met identificatie: MBH_300_dosis_stuks_MA || 2.16.840.1.113883.2.4.3.11.999.77.16076005.1"/>
            </authorizingPrescription>
            <dosageInstruction>
               <timing>
                  <repeat>
                     <frequency value="2"/>
                     <period value="1"/>
                     <periodUnit value="d"/>
                  </repeat>
               </timing>
               <route>
                  <coding>
                     <system value="urn:oid:2.16.840.1.113883.2.4.4.9"/>
                     <code value="62"/>
                     <display value="inhalatie"/>
                  </coding>
               </route>
               <doseAndRate>
                  <doseQuantity>
                     <extension url="http://hl7.org/fhir/StructureDefinition/iso21090-PQ-translation">
                        <valueQuantity>
                           <value value="1"/>
                           <unit value="dosis"/>
                           <system value="urn:oid:2.16.840.1.113883.2.4.4.1.900.2"/>
                           <code value="208"/>
                        </valueQuantity>
                     </extension>
                     <value value="1"/>
                     <unit value="dosis"/>
                     <system value="http://unitsofmeasure.org"/>
                     <code value="1"/>
                  </doseQuantity>
               </doseAndRate>
            </dosageInstruction>
         </MedicationDispense>
      </resource>
      <search>
         <mode value="match"/>
      </search>
   </entry>
   <entry>
      <fullUrl value="urn:uuid:5a1882d2-a281-11ef-2018-020000000000"/>
      <resource>
         <MedicationDispense>
            <meta>
               <profile value="http://nictiz.nl/fhir/StructureDefinition/mp-MedicationDispense"/>
            </meta>
            <extension url="http://nictiz.nl/fhir/StructureDefinition/ext-PharmaceuticalTreatment.Identifier">
               <valueIdentifier>
                  <system value="urn:oid:2.16.840.1.113883.2.4.3.11.999.77.1.1"/>
                  <value value="MBH_300_chronisch"/>
               </valueIdentifier>
            </extension>
            <identifier>
               <system value="urn:oid:2.16.840.1.113883.2.4.3.11.999.77.373784005.1"/>
               <value value="MBH_300_chronisch_MVE"/>
            </identifier>
            <status value="completed"/>
            <category>
               <coding>
                  <system value="http://snomed.info/sct"/>
                  <code value="373784005"/>
                  <display value="verstrekken van medicatie"/>
               </coding>
            </category>
            <medicationReference>
               <reference value="urn:uuid:5a1883e0-a281-11ef-2018-020000000000"/>
               <type value="Medication"/>
               <display value="ROTER APC TABLET"/>
            </medicationReference>
            <subject>
               <reference value="urn:uuid:5a18a604-a281-11ef-2018-020000000000"/>
               <type value="Patient"/>
               <display value="Patient, D. XXX_Dijks"/>
            </subject>
            <performer>
               <actor>
                  <reference value="urn:uuid:5a18a6f4-a281-11ef-2018-020000000000"/>
                  <type value="Organization"/>
                  <display value="Healthcare provider (organization), Apotheek De Gulle Gaper"/>
               </actor>
            </performer>
            <authorizingPrescription>
               <type value="MedicationRequest"/>
               <identifier>
                  <system value="urn:oid:2.16.840.1.113883.2.4.3.11.999.77.52711000146108.1"/>
                  <value value="MBH_300_chronisch_VV"/>
               </identifier>
               <display value="relatie naar verstrekkingsverzoek met identificatie: MBH_300_chronisch_VV || 2.16.840.1.113883.2.4.3.11.999.77.52711000146108.1"/>
            </authorizingPrescription>
            <quantity>
               <extension url="http://hl7.org/fhir/StructureDefinition/iso21090-PQ-translation">
                  <valueQuantity>
                     <value value="21"/>
                     <unit value="stuk"/>
                     <system value="urn:oid:2.16.840.1.113883.2.4.4.1.900.2"/>
                     <code value="245"/>
                  </valueQuantity>
               </extension>
               <value value="21"/>
               <unit value="stuk"/>
               <system value="http://unitsofmeasure.org"/>
               <code value="1"/>
            </quantity>
            <whenHandedOver value="2022-12-02T12:32:00+01:00"/>
         </MedicationDispense>
      </resource>
      <search>
         <mode value="match"/>
      </search>
   </entry>
   <entry>
      <fullUrl value="urn:uuid:5a1882f0-a281-11ef-2018-020000000000"/>
      <resource>
         <MedicationDispense>
            <meta>
               <profile value="http://nictiz.nl/fhir/StructureDefinition/mp-MedicationDispense"/>
            </meta>
            <extension url="http://nictiz.nl/fhir/StructureDefinition/ext-PharmaceuticalTreatment.Identifier">
               <valueIdentifier>
                  <system value="urn:oid:2.16.840.1.113883.2.4.3.11.999.77.1.1"/>
                  <value value="MBH_300_chronisch"/>
               </valueIdentifier>
            </extension>
            <identifier>
               <system value="urn:oid:2.16.840.1.113883.2.4.3.11.999.77.373784005.1"/>
               <value value="MBH_300_chronisch_MVE_extraMVEbestaandeTA"/>
            </identifier>
            <status value="completed"/>
            <category>
               <coding>
                  <system value="http://snomed.info/sct"/>
                  <code value="373784005"/>
                  <display value="verstrekken van medicatie"/>
               </coding>
            </category>
            <medicationReference>
               <reference value="urn:uuid:5a1883e0-a281-11ef-2018-020000000000"/>
               <type value="Medication"/>
               <display value="ROTER APC TABLET"/>
            </medicationReference>
            <subject>
               <reference value="urn:uuid:5a18a604-a281-11ef-2018-020000000000"/>
               <type value="Patient"/>
               <display value="Patient, D. XXX_Dijks"/>
            </subject>
            <performer>
               <actor>
                  <reference value="urn:uuid:5a18a6f4-a281-11ef-2018-020000000000"/>
                  <type value="Organization"/>
                  <display value="Healthcare provider (organization), Apotheek De Gulle Gaper"/>
               </actor>
            </performer>
            <authorizingPrescription>
               <type value="MedicationRequest"/>
               <identifier>
                  <system value="urn:oid:2.16.840.1.113883.2.4.3.11.999.77.52711000146108.1"/>
                  <value value="MBH_300_chronisch_VV_extraVVbestaandeMA"/>
               </identifier>
               <display value="relatie naar verstrekkingsverzoek met identificatie: MBH_300_chronisch_VV_extraVVbestaandeMA || 2.16.840.1.113883.2.4.3.11.999.77.52711000146108.1"/>
            </authorizingPrescription>
            <quantity>
               <extension url="http://hl7.org/fhir/StructureDefinition/iso21090-PQ-translation">
                  <valueQuantity>
                     <value value="90"/>
                     <unit value="stuk"/>
                     <system value="urn:oid:2.16.840.1.113883.2.4.4.1.900.2"/>
                     <code value="245"/>
                  </valueQuantity>
               </extension>
               <value value="90"/>
               <unit value="stuk"/>
               <system value="http://unitsofmeasure.org"/>
               <code value="1"/>
            </quantity>
            <whenHandedOver value="2022-12-22T12:35:00+01:00"/>
         </MedicationDispense>
      </resource>
      <search>
         <mode value="match"/>
      </search>
   </entry>
   <entry>
      <fullUrl value="urn:uuid:5a18a910-a281-11ef-2018-020000000000"/>
      <resource>
         <MedicationStatement>
            <meta>
               <profile value="http://nictiz.nl/fhir/StructureDefinition/mp-MedicationUse2"/>
            </meta>
            <f:extension xmlns:f="http://hl7.org/fhir"
                         url="http://nictiz.nl/fhir/StructureDefinition/ext-RenderedDosageInstruction">
               <f:valueString value="Vanaf 22 dec 2022, tot en met 27 dec 2022, 1 stuk, oraal"/>
            </f:extension>
            <extension url="http://nictiz.nl/fhir/StructureDefinition/ext-MedicationUse2.Prescriber">
               <valueReference>
                  <reference value="urn:uuid:5a18a62c-a281-11ef-2018-020000000000"/>
                  <type value="PractitionerRole"/>
                  <display value="Healthcare professional (role), Peter van Pulver, Huisartsen, niet nader gespecificeerd, Huisartsenpraktijk Pulver &amp; Partners"/>
               </valueReference>
            </extension>
            <extension url="http://nictiz.nl/fhir/StructureDefinition/ext-AsAgreedIndicator">
               <valueBoolean value="true"/>
            </extension>
            <extension url="http://nictiz.nl/fhir/StructureDefinition/ext-PharmaceuticalTreatment.Identifier">
               <valueIdentifier>
                  <system value="urn:oid:2.16.840.1.113883.2.4.3.11.999.77.1.1"/>
                  <value value="MBH_300_start_eind"/>
               </valueIdentifier>
            </extension>
            <extension url="http://nictiz.nl/fhir/StructureDefinition/ext-MedicationUse2.Author">
               <valueReference>
                  <reference value="urn:uuid:5a18a686-a281-11ef-2018-020000000000"/>
                  <type value="PractitionerRole"/>
                  <display value="Healthcare professional (role), Marcha van Partners, Huisartsen, niet nader gespecificeerd, Huisartsenpraktijk Itis"/>
               </valueReference>
            </extension>
            <identifier>
               <system value="urn:oid:2.16.840.1.113883.2.4.3.11.999.77.6.1"/>
               <value value="MBH_300_start_eind_MGB"/>
            </identifier>
            <status value="active"/>
            <category>
               <coding>
                  <system value="http://snomed.info/sct"/>
                  <code value="422979000"/>
                  <display value="bevinding betreffende gedrag met betrekking tot medicatieregime"/>
               </coding>
            </category>
            <medicationReference>
               <reference value="urn:uuid:5a188458-a281-11ef-2018-020000000000"/>
               <type value="Medication"/>
               <display value="METOCLOPRAMIDE HCL PCH TABLET 10MG"/>
            </medicationReference>
            <subject>
               <reference value="urn:uuid:5a18a604-a281-11ef-2018-020000000000"/>
               <type value="Patient"/>
               <display value="Patient, D. XXX_Dijks"/>
            </subject>
            <effectivePeriod>
               <start value="2022-12-22T00:00:00+01:00"/>
               <end value="2022-12-27T23:59:59+01:00"/>
            </effectivePeriod>
            <dateAsserted value="2022-12-28T10:59:59+01:00"/>
            <informationSource>
               <reference value="urn:uuid:5a18a62c-a281-11ef-2018-020000000000"/>
               <type value="PractitionerRole"/>
               <display value="Healthcare professional (role), Peter van Pulver, Huisartsen, niet nader gespecificeerd, Huisartsenpraktijk Pulver &amp; Partners"/>
            </informationSource>
            <derivedFrom>
               <extension url="http://nictiz.nl/fhir/StructureDefinition/ext-ResourceCategory">
                  <valueCodeableConcept>
                     <coding>
                        <system value="http://snomed.info/sct"/>
                        <code value="422037009"/>
                        <display value="toedieningsafspraak"/>
                     </coding>
                  </valueCodeableConcept>
               </extension>
               <type value="MedicationRequest"/>
               <identifier>
                  <system value="urn:oid:2.16.840.1.113883.2.4.3.11.999.77.422037009.1"/>
                  <value value="MBH_300_start_eind_TA"/>
               </identifier>
               <display value="relatie naar toedieningsafspraak"/>
            </derivedFrom>
            <dosage>
               <route>
                  <coding>
                     <system value="urn:oid:2.16.840.1.113883.2.4.4.9"/>
                     <code value="9"/>
                     <display value="oraal"/>
                  </coding>
               </route>
               <doseAndRate>
                  <doseQuantity>
                     <extension url="http://hl7.org/fhir/StructureDefinition/iso21090-PQ-translation">
                        <valueQuantity>
                           <value value="1"/>
                           <unit value="stuk"/>
                           <system value="urn:oid:2.16.840.1.113883.2.4.4.1.900.2"/>
                           <code value="245"/>
                        </valueQuantity>
                     </extension>
                     <value value="1"/>
                     <unit value="stuk"/>
                     <system value="http://unitsofmeasure.org"/>
                     <code value="1"/>
                  </doseQuantity>
               </doseAndRate>
            </dosage>
         </MedicationStatement>
      </resource>
      <search>
         <mode value="match"/>
      </search>
   </entry>
   <entry>
      <fullUrl value="urn:uuid:5a18a92e-a281-11ef-2018-020000000000"/>
      <resource>
         <MedicationStatement>
            <meta>
               <profile value="http://nictiz.nl/fhir/StructureDefinition/mp-MedicationUse2"/>
            </meta>
            <f:extension xmlns:f="http://hl7.org/fhir"
                         url="http://nictiz.nl/fhir/StructureDefinition/ext-RenderedDosageInstruction">
               <f:valueString value="Vanaf 12 dec 2022, gedurende 3 weken, 1 maal per dag 1 stuk, oraal"/>
            </f:extension>
            <extension url="http://nictiz.nl/fhir/StructureDefinition/ext-MedicationUse2.Prescriber">
               <valueReference>
                  <reference value="urn:uuid:5a18a62c-a281-11ef-2018-020000000000"/>
                  <type value="PractitionerRole"/>
                  <display value="Healthcare professional (role), Peter van Pulver, Huisartsen, niet nader gespecificeerd, Huisartsenpraktijk Pulver &amp; Partners"/>
               </valueReference>
            </extension>
            <extension url="http://nictiz.nl/fhir/StructureDefinition/ext-AsAgreedIndicator">
               <valueBoolean value="true"/>
            </extension>
            <extension url="http://nictiz.nl/fhir/StructureDefinition/ext-PharmaceuticalTreatment.Identifier">
               <valueIdentifier>
                  <system value="urn:oid:2.16.840.1.113883.2.4.3.11.999.77.1.1"/>
                  <value value="MBH_300_start_duur"/>
               </valueIdentifier>
            </extension>
            <extension url="http://nictiz.nl/fhir/StructureDefinition/ext-MedicationUse2.Author">
               <valueReference>
                  <reference value="urn:uuid:5a18a62c-a281-11ef-2018-020000000000"/>
                  <type value="PractitionerRole"/>
                  <display value="Healthcare professional (role), Peter van Pulver, Huisartsen, niet nader gespecificeerd, Huisartsenpraktijk Pulver &amp; Partners"/>
               </valueReference>
            </extension>
            <identifier>
               <system value="urn:oid:2.16.840.1.113883.2.4.3.11.999.77.6.1"/>
               <value value="MBH_300_start_duur_MGB"/>
            </identifier>
            <status value="active"/>
            <category>
               <coding>
                  <system value="http://snomed.info/sct"/>
                  <code value="422979000"/>
                  <display value="bevinding betreffende gedrag met betrekking tot medicatieregime"/>
               </coding>
            </category>
            <medicationReference>
               <reference value="urn:uuid:5a188386-a281-11ef-2018-020000000000"/>
               <type value="Medication"/>
               <display value="LISINOPRIL 10MG TABLET"/>
            </medicationReference>
            <subject>
               <reference value="urn:uuid:5a18a604-a281-11ef-2018-020000000000"/>
               <type value="Patient"/>
               <display value="Patient, D. XXX_Dijks"/>
            </subject>
            <effectivePeriod>
               <extension url="http://nictiz.nl/fhir/StructureDefinition/ext-TimeInterval.Duration">
                  <valueDuration>
                     <value value="3"/>
                     <unit value="week"/>
                     <system value="http://unitsofmeasure.org"/>
                     <code value="wk"/>
                  </valueDuration>
               </extension>
               <start value="2022-12-12T00:00:00+01:00"/>
            </effectivePeriod>
            <dateAsserted value="2022-12-31T12:00:00+01:00"/>
            <informationSource>
               <reference value="urn:uuid:5a18a604-a281-11ef-2018-020000000000"/>
               <type value="Patient"/>
               <display value="Patient, D. XXX_Dijks"/>
            </informationSource>
            <derivedFrom>
               <extension url="http://nictiz.nl/fhir/StructureDefinition/ext-ResourceCategory">
                  <valueCodeableConcept>
                     <coding>
                        <system value="http://snomed.info/sct"/>
                        <code value="33633005"/>
                        <display value="voorschrijven van geneesmiddel"/>
                     </coding>
                  </valueCodeableConcept>
               </extension>
               <type value="MedicationRequest"/>
               <identifier>
                  <system value="urn:oid:2.16.840.1.113883.2.4.3.11.999.77.16076005.1"/>
                  <value value="MBH_300_start_duur_MA"/>
               </identifier>
               <display value="relatie naar medicatieafspraak"/>
            </derivedFrom>
            <dosage>
               <timing>
                  <repeat>
                     <frequency value="1"/>
                     <period value="1"/>
                     <periodUnit value="d"/>
                  </repeat>
               </timing>
               <route>
                  <coding>
                     <system value="urn:oid:2.16.840.1.113883.2.4.4.9"/>
                     <code value="9"/>
                     <display value="oraal"/>
                  </coding>
               </route>
               <doseAndRate>
                  <doseQuantity>
                     <extension url="http://hl7.org/fhir/StructureDefinition/iso21090-PQ-translation">
                        <valueQuantity>
                           <value value="1"/>
                           <unit value="stuk"/>
                           <system value="urn:oid:2.16.840.1.113883.2.4.4.1.900.2"/>
                           <code value="245"/>
                        </valueQuantity>
                     </extension>
                     <value value="1"/>
                     <unit value="stuk"/>
                     <system value="http://unitsofmeasure.org"/>
                     <code value="1"/>
                  </doseQuantity>
               </doseAndRate>
            </dosage>
         </MedicationStatement>
      </resource>
      <search>
         <mode value="match"/>
      </search>
   </entry>
   <entry>
      <fullUrl value="urn:uuid:5a18823c-a281-11ef-2018-020000000000"/>
      <resource>
         <MedicationStatement>
            <meta>
               <profile value="http://nictiz.nl/fhir/StructureDefinition/mp-MedicationUse2"/>
            </meta>
            <f:extension xmlns:f="http://hl7.org/fhir"
                         url="http://nictiz.nl/fhir/StructureDefinition/ext-RenderedDosageInstruction">
               <f:valueString value="Vanaf 2 dec 2022, 1 maal per dag 1 stuk, oraal"/>
            </f:extension>
            <extension url="http://nictiz.nl/fhir/StructureDefinition/ext-MedicationUse2.Prescriber">
               <valueReference>
                  <reference value="urn:uuid:5a18a62c-a281-11ef-2018-020000000000"/>
                  <type value="PractitionerRole"/>
                  <display value="Healthcare professional (role), Peter van Pulver, Huisartsen, niet nader gespecificeerd, Huisartsenpraktijk Pulver &amp; Partners"/>
               </valueReference>
            </extension>
            <extension url="http://nictiz.nl/fhir/StructureDefinition/ext-AsAgreedIndicator">
               <valueBoolean value="true"/>
            </extension>
            <extension url="http://nictiz.nl/fhir/StructureDefinition/ext-PharmaceuticalTreatment.Identifier">
               <valueIdentifier>
                  <system value="urn:oid:2.16.840.1.113883.2.4.3.11.999.77.1.1"/>
                  <value value="MBH_300_chronisch"/>
               </valueIdentifier>
            </extension>
            <extension url="http://nictiz.nl/fhir/StructureDefinition/ext-MedicationUse2.Author">
               <valueReference>
                  <reference value="urn:uuid:5a18a62c-a281-11ef-2018-020000000000"/>
                  <type value="PractitionerRole"/>
                  <display value="Healthcare professional (role), Peter van Pulver, Huisartsen, niet nader gespecificeerd, Huisartsenpraktijk Pulver &amp; Partners"/>
               </valueReference>
            </extension>
            <identifier>
               <system value="urn:oid:2.16.840.1.113883.2.4.3.11.999.77.6.1"/>
               <value value="MBH_300_chronisch_MGB"/>
            </identifier>
            <status value="active"/>
            <category>
               <coding>
                  <system value="http://snomed.info/sct"/>
                  <code value="422979000"/>
                  <display value="bevinding betreffende gedrag met betrekking tot medicatieregime"/>
               </coding>
            </category>
            <medicationReference>
               <reference value="urn:uuid:5a1883e0-a281-11ef-2018-020000000000"/>
               <type value="Medication"/>
               <display value="ROTER APC TABLET"/>
            </medicationReference>
            <subject>
               <reference value="urn:uuid:5a18a604-a281-11ef-2018-020000000000"/>
               <type value="Patient"/>
               <display value="Patient, D. XXX_Dijks"/>
            </subject>
            <effectivePeriod>
               <start value="2022-12-02T00:00:00+01:00"/>
            </effectivePeriod>
            <dateAsserted value="2022-12-12T11:43:12+01:00"/>
            <informationSource>
               <reference value="urn:uuid:5a18a604-a281-11ef-2018-020000000000"/>
               <type value="Patient"/>
               <display value="Patient, D. XXX_Dijks"/>
            </informationSource>
            <derivedFrom>
               <extension url="http://nictiz.nl/fhir/StructureDefinition/ext-ResourceCategory">
                  <valueCodeableConcept>
                     <coding>
                        <system value="http://snomed.info/sct"/>
                        <code value="422037009"/>
                        <display value="toedieningsafspraak"/>
                     </coding>
                  </valueCodeableConcept>
               </extension>
               <type value="MedicationRequest"/>
               <identifier>
                  <system value="urn:oid:2.16.840.1.113883.2.4.3.11.999.77.422037009.1"/>
                  <value value="MBH_300_chronisch_TA"/>
               </identifier>
               <display value="relatie naar toedieningsafspraak"/>
            </derivedFrom>
            <dosage>
               <timing>
                  <repeat>
                     <frequency value="1"/>
                     <period value="1"/>
                     <periodUnit value="d"/>
                  </repeat>
               </timing>
               <route>
                  <coding>
                     <system value="urn:oid:2.16.840.1.113883.2.4.4.9"/>
                     <code value="9"/>
                     <display value="oraal"/>
                  </coding>
               </route>
               <doseAndRate>
                  <doseQuantity>
                     <extension url="http://hl7.org/fhir/StructureDefinition/iso21090-PQ-translation">
                        <valueQuantity>
                           <value value="1"/>
                           <unit value="stuk"/>
                           <system value="urn:oid:2.16.840.1.113883.2.4.4.1.900.2"/>
                           <code value="245"/>
                        </valueQuantity>
                     </extension>
                     <value value="1"/>
                     <unit value="stuk"/>
                     <system value="http://unitsofmeasure.org"/>
                     <code value="1"/>
                  </doseQuantity>
               </doseAndRate>
            </dosage>
         </MedicationStatement>
      </resource>
      <search>
         <mode value="match"/>
      </search>
   </entry>
   <entry>
      <fullUrl value="urn:uuid:5a18825a-a281-11ef-2018-020000000000"/>
      <resource>
         <MedicationStatement>
            <meta>
               <profile value="http://nictiz.nl/fhir/StructureDefinition/mp-MedicationUse2"/>
            </meta>
            <f:extension xmlns:f="http://hl7.org/fhir"
                         url="http://nictiz.nl/fhir/StructureDefinition/ext-RenderedDosageInstruction">
               <f:valueString value="Vanaf 2 nov 2022, gedurende 28 dagen, 1 maal per dag 1 stuk, oraal"/>
            </f:extension>
            <extension url="http://nictiz.nl/fhir/StructureDefinition/ext-MedicationUse2.Prescriber">
               <valueReference>
                  <reference value="urn:uuid:5a18a62c-a281-11ef-2018-020000000000"/>
                  <type value="PractitionerRole"/>
                  <display value="Healthcare professional (role), Peter van Pulver, Huisartsen, niet nader gespecificeerd, Huisartsenpraktijk Pulver &amp; Partners"/>
               </valueReference>
            </extension>
            <extension url="http://nictiz.nl/fhir/StructureDefinition/ext-AsAgreedIndicator">
               <valueBoolean value="true"/>
            </extension>
            <extension url="http://nictiz.nl/fhir/StructureDefinition/ext-PharmaceuticalTreatment.Identifier">
               <valueIdentifier>
                  <system value="urn:oid:2.16.840.1.113883.2.4.3.11.999.77.1.1"/>
                  <value value="MBH_300_start_duur2"/>
               </valueIdentifier>
            </extension>
            <extension url="http://nictiz.nl/fhir/StructureDefinition/ext-MedicationUse2.Author">
               <valueReference>
                  <reference value="urn:uuid:5a18a62c-a281-11ef-2018-020000000000"/>
                  <type value="PractitionerRole"/>
                  <display value="Healthcare professional (role), Peter van Pulver, Huisartsen, niet nader gespecificeerd, Huisartsenpraktijk Pulver &amp; Partners"/>
               </valueReference>
            </extension>
            <identifier>
               <system value="urn:oid:2.16.840.1.113883.2.4.3.11.999.77.6.1"/>
               <value value="MBH_300_start_duur2_MGB"/>
            </identifier>
            <status value="active"/>
            <category>
               <coding>
                  <system value="http://snomed.info/sct"/>
                  <code value="422979000"/>
                  <display value="bevinding betreffende gedrag met betrekking tot medicatieregime"/>
               </coding>
            </category>
            <medicationReference>
               <reference value="urn:uuid:5a1883c2-a281-11ef-2018-020000000000"/>
               <type value="Medication"/>
               <display value="PANTOPRAZOL 20MG TABLET MSR"/>
            </medicationReference>
            <subject>
               <reference value="urn:uuid:5a18a604-a281-11ef-2018-020000000000"/>
               <type value="Patient"/>
               <display value="Patient, D. XXX_Dijks"/>
            </subject>
            <effectivePeriod>
               <extension url="http://nictiz.nl/fhir/StructureDefinition/ext-TimeInterval.Duration">
                  <valueDuration>
                     <value value="28"/>
                     <unit value="dag"/>
                     <system value="http://unitsofmeasure.org"/>
                     <code value="d"/>
                  </valueDuration>
               </extension>
               <start value="2022-11-02T00:00:00+01:00"/>
            </effectivePeriod>
            <dateAsserted value="2022-11-07T15:21:33+01:00"/>
            <informationSource>
               <reference value="urn:uuid:5a18a604-a281-11ef-2018-020000000000"/>
               <type value="Patient"/>
               <display value="Patient, D. XXX_Dijks"/>
            </informationSource>
            <derivedFrom>
               <extension url="http://nictiz.nl/fhir/StructureDefinition/ext-ResourceCategory">
                  <valueCodeableConcept>
                     <coding>
                        <system value="http://snomed.info/sct"/>
                        <code value="33633005"/>
                        <display value="voorschrijven van geneesmiddel"/>
                     </coding>
                  </valueCodeableConcept>
               </extension>
               <type value="MedicationRequest"/>
               <identifier>
                  <system value="urn:oid:2.16.840.1.113883.2.4.3.11.999.77.16076005.1"/>
                  <value value="MBH_300_start_duur2_MA"/>
               </identifier>
               <display value="relatie naar medicatieafspraak"/>
            </derivedFrom>
            <dosage>
               <timing>
                  <repeat>
                     <frequency value="1"/>
                     <period value="1"/>
                     <periodUnit value="d"/>
                  </repeat>
               </timing>
               <route>
                  <coding>
                     <system value="urn:oid:2.16.840.1.113883.2.4.4.9"/>
                     <code value="9"/>
                     <display value="oraal"/>
                  </coding>
               </route>
               <doseAndRate>
                  <doseQuantity>
                     <extension url="http://hl7.org/fhir/StructureDefinition/iso21090-PQ-translation">
                        <valueQuantity>
                           <value value="1"/>
                           <unit value="stuk"/>
                           <system value="urn:oid:2.16.840.1.113883.2.4.4.1.900.2"/>
                           <code value="245"/>
                        </valueQuantity>
                     </extension>
                     <value value="1"/>
                     <unit value="stuk"/>
                     <system value="http://unitsofmeasure.org"/>
                     <code value="1"/>
                  </doseQuantity>
               </doseAndRate>
            </dosage>
         </MedicationStatement>
      </resource>
      <search>
         <mode value="match"/>
      </search>
   </entry>
   <entry>
      <fullUrl value="urn:uuid:5a188278-a281-11ef-2018-020000000000"/>
      <resource>
         <MedicationStatement>
            <meta>
               <profile value="http://nictiz.nl/fhir/StructureDefinition/mp-MedicationUse2"/>
            </meta>
            <f:extension xmlns:f="http://hl7.org/fhir"
                         url="http://nictiz.nl/fhir/StructureDefinition/ext-RenderedDosageInstruction">
               <f:valueString value="Vanaf 24 aug 2022, tot en met 22 sep 2022, 2 maal per dag 1 dosis, inhalatie"/>
            </f:extension>
            <extension url="http://nictiz.nl/fhir/StructureDefinition/ext-MedicationUse2.Prescriber">
               <valueReference>
                  <reference value="urn:uuid:5a18a62c-a281-11ef-2018-020000000000"/>
                  <type value="PractitionerRole"/>
                  <display value="Healthcare professional (role), Peter van Pulver, Huisartsen, niet nader gespecificeerd, Huisartsenpraktijk Pulver &amp; Partners"/>
               </valueReference>
            </extension>
            <extension url="http://nictiz.nl/fhir/StructureDefinition/ext-AsAgreedIndicator">
               <valueBoolean value="true"/>
            </extension>
            <extension url="http://nictiz.nl/fhir/StructureDefinition/ext-PharmaceuticalTreatment.Identifier">
               <valueIdentifier>
                  <system value="urn:oid:2.16.840.1.113883.2.4.3.11.999.77.1.1"/>
                  <value value="MBH_300_dosis_stuks"/>
               </valueIdentifier>
            </extension>
            <extension url="http://nictiz.nl/fhir/StructureDefinition/ext-MedicationUse2.Author">
               <valueReference>
                  <reference value="urn:uuid:5a18a62c-a281-11ef-2018-020000000000"/>
                  <type value="PractitionerRole"/>
                  <display value="Healthcare professional (role), Peter van Pulver, Huisartsen, niet nader gespecificeerd, Huisartsenpraktijk Pulver &amp; Partners"/>
               </valueReference>
            </extension>
            <identifier>
               <system value="urn:oid:2.16.840.1.113883.2.4.3.11.999.77.6.1"/>
               <value value="MBH_300_dosis_stuks_MGB"/>
            </identifier>
            <status value="active"/>
            <category>
               <coding>
                  <system value="http://snomed.info/sct"/>
                  <code value="422979000"/>
                  <display value="bevinding betreffende gedrag met betrekking tot medicatieregime"/>
               </coding>
            </category>
            <medicationReference>
               <reference value="urn:uuid:5a1883fe-a281-11ef-2018-020000000000"/>
               <type value="Medication"/>
               <display value="FLUTICASON INHALATIEPOEDER 100UG/DO 60DO DISKUS"/>
            </medicationReference>
            <subject>
               <reference value="urn:uuid:5a18a604-a281-11ef-2018-020000000000"/>
               <type value="Patient"/>
               <display value="Patient, D. XXX_Dijks"/>
            </subject>
            <effectivePeriod>
               <start value="2022-08-24T00:00:00+02:00"/>
               <end value="2022-09-22T23:59:59+02:00"/>
            </effectivePeriod>
            <dateAsserted value="2022-09-23T07:59:59+02:00"/>
            <informationSource>
               <reference value="urn:uuid:5a18a604-a281-11ef-2018-020000000000"/>
               <type value="Patient"/>
               <display value="Patient, D. XXX_Dijks"/>
            </informationSource>
            <derivedFrom>
               <extension url="http://nictiz.nl/fhir/StructureDefinition/ext-ResourceCategory">
                  <valueCodeableConcept>
                     <coding>
                        <system value="http://snomed.info/sct"/>
                        <code value="33633005"/>
                        <display value="voorschrijven van geneesmiddel"/>
                     </coding>
                  </valueCodeableConcept>
               </extension>
               <type value="MedicationRequest"/>
               <identifier>
                  <system value="urn:oid:2.16.840.1.113883.2.4.3.11.999.77.16076005.1"/>
                  <value value="MBH_300_dosis_stuks_MA"/>
               </identifier>
               <display value="relatie naar medicatieafspraak"/>
            </derivedFrom>
            <dosage>
               <timing>
                  <repeat>
                     <frequency value="2"/>
                     <period value="1"/>
                     <periodUnit value="d"/>
                  </repeat>
               </timing>
               <route>
                  <coding>
                     <system value="urn:oid:2.16.840.1.113883.2.4.4.9"/>
                     <code value="62"/>
                     <display value="inhalatie"/>
                  </coding>
               </route>
               <doseAndRate>
                  <doseQuantity>
                     <extension url="http://hl7.org/fhir/StructureDefinition/iso21090-PQ-translation">
                        <valueQuantity>
                           <value value="1"/>
                           <unit value="dosis"/>
                           <system value="urn:oid:2.16.840.1.113883.2.4.4.1.900.2"/>
                           <code value="208"/>
                        </valueQuantity>
                     </extension>
                     <value value="1"/>
                     <unit value="dosis"/>
                     <system value="http://unitsofmeasure.org"/>
                     <code value="1"/>
                  </doseQuantity>
               </doseAndRate>
            </dosage>
         </MedicationStatement>
      </resource>
      <search>
         <mode value="match"/>
      </search>
   </entry>
   <entry>
      <fullUrl value="urn:uuid:5a18a604-a281-11ef-2018-020000000000"/>
      <resource>
         <Patient>
            <meta>
               <profile value="http://nictiz.nl/fhir/StructureDefinition/nl-core-Patient"/>
            </meta>
            <identifier>
               <system value="http://fhir.nl/fhir/NamingSystem/bsn"/>
               <value value="999900468"/>
            </identifier>
            <name>
               <extension url="http://hl7.org/fhir/StructureDefinition/humanname-assembly-order">
                  <valueCode value="NL1"/>
               </extension>
               <use value="official"/>
               <text value="D. XXX_Dijks"/>
               <family value="XXX_Dijks">
                  <extension url="http://hl7.org/fhir/StructureDefinition/humanname-own-name">
                     <valueString value="XXX_Dijks"/>
                  </extension>
               </family>
               <given value="D.">
                  <extension url="http://hl7.org/fhir/StructureDefinition/iso21090-EN-qualifier">
                     <valueCode value="IN"/>
                  </extension>
               </given>
            </name>
            <gender value="female">
               <extension url="http://nictiz.nl/fhir/StructureDefinition/ext-CodeSpecification">
                  <valueCodeableConcept>
                     <coding>
                        <system value="http://terminology.hl7.org/CodeSystem/v3-AdministrativeGender"/>
                        <code value="F"/>
                        <display value="Vrouw"/>
                     </coding>
                  </valueCodeableConcept>
               </extension>
            </gender>
            <birthDate value="1963-10-21"/>
         </Patient>
      </resource>
      <search>
         <mode value="include"/>
      </search>
   </entry>
   <entry>
      <fullUrl value="urn:uuid:5a18a62c-a281-11ef-2018-020000000000"/>
      <resource>
         <PractitionerRole>
            <meta>
               <profile value="http://nictiz.nl/fhir/StructureDefinition/nl-core-HealthProfessional-PractitionerRole"/>
            </meta>
            <practitioner>
               <reference value="urn:uuid:5a18a654-a281-11ef-2018-020000000000"/>
               <type value="Practitioner"/>
               <display value="Healthcare professional (person), Peter van Pulver"/>
            </practitioner>
            <organization>
               <reference value="urn:uuid:5a18a74e-a281-11ef-2018-020000000000"/>
               <type value="Organization"/>
               <display value="Healthcare provider (organization), Huisartsenpraktijk Pulver &amp; Partners"/>
            </organization>
            <specialty>
               <coding>
                  <system value="urn:oid:2.16.840.1.113883.2.4.6.7"/>
                  <version value="2020-10-23T00:00:00"/>
                  <code value="0100"/>
                  <display value="Huisartsen, niet nader gespecificeerd"/>
               </coding>
            </specialty>
         </PractitionerRole>
      </resource>
      <search>
         <mode value="include"/>
      </search>
   </entry>
   <entry>
      <fullUrl value="urn:uuid:5a18a654-a281-11ef-2018-020000000000"/>
      <resource>
         <Practitioner>
            <meta>
               <profile value="http://nictiz.nl/fhir/StructureDefinition/nl-core-HealthProfessional-Practitioner"/>
            </meta>
            <identifier>
               <system value="http://fhir.nl/fhir/NamingSystem/uzi-nr-pers"/>
               <value value="000001111"/>
            </identifier>
            <name>
               <use value="official"/>
               <text value="Peter van Pulver"/>
               <family value="van Pulver">
                  <extension url="http://hl7.org/fhir/StructureDefinition/humanname-own-prefix">
                     <valueString value="van"/>
                  </extension>
                  <extension url="http://hl7.org/fhir/StructureDefinition/humanname-own-name">
                     <valueString value="Pulver"/>
                  </extension>
               </family>
               <given value="Peter">
                  <extension url="http://hl7.org/fhir/StructureDefinition/iso21090-EN-qualifier">
                     <valueCode value="BR"/>
                  </extension>
               </given>
            </name>
         </Practitioner>
      </resource>
      <search>
         <mode value="include"/>
      </search>
   </entry>
   <entry>
      <fullUrl value="urn:uuid:5a18a686-a281-11ef-2018-020000000000"/>
      <resource>
         <PractitionerRole>
            <meta>
               <profile value="http://nictiz.nl/fhir/StructureDefinition/nl-core-HealthProfessional-PractitionerRole"/>
            </meta>
            <practitioner>
               <reference value="urn:uuid:5a18a6ae-a281-11ef-2018-020000000000"/>
               <type value="Practitioner"/>
               <display value="Healthcare professional (person), Marcha van Partners"/>
            </practitioner>
            <organization>
               <reference value="urn:uuid:5a18a7a8-a281-11ef-2018-020000000000"/>
               <type value="Organization"/>
               <display value="Healthcare provider (organization), Huisartsenpraktijk Itis"/>
            </organization>
            <specialty>
               <coding>
                  <system value="urn:oid:2.16.840.1.113883.2.4.6.7"/>
                  <version value="2020-10-23T00:00:00"/>
                  <code value="0100"/>
                  <display value="Huisartsen, niet nader gespecificeerd"/>
               </coding>
            </specialty>
         </PractitionerRole>
      </resource>
      <search>
         <mode value="include"/>
      </search>
   </entry>
   <entry>
      <fullUrl value="urn:uuid:5a18a6ae-a281-11ef-2018-020000000000"/>
      <resource>
         <Practitioner>
            <meta>
               <profile value="http://nictiz.nl/fhir/StructureDefinition/nl-core-HealthProfessional-Practitioner"/>
            </meta>
            <identifier>
               <system value="http://fhir.nl/fhir/NamingSystem/uzi-nr-pers"/>
               <value value="000001115"/>
            </identifier>
            <name>
               <use value="official"/>
               <text value="Marcha van Partners"/>
               <family value="van Partners">
                  <extension url="http://hl7.org/fhir/StructureDefinition/humanname-own-prefix">
                     <valueString value="van"/>
                  </extension>
                  <extension url="http://hl7.org/fhir/StructureDefinition/humanname-own-name">
                     <valueString value="Partners"/>
                  </extension>
               </family>
               <given value="Marcha">
                  <extension url="http://hl7.org/fhir/StructureDefinition/iso21090-EN-qualifier">
                     <valueCode value="BR"/>
                  </extension>
               </given>
            </name>
         </Practitioner>
      </resource>
      <search>
         <mode value="include"/>
      </search>
   </entry>
   <entry>
      <fullUrl value="urn:uuid:5a18a6f4-a281-11ef-2018-020000000000"/>
      <resource>
         <Organization>
            <meta>
               <profile value="http://nictiz.nl/fhir/StructureDefinition/nl-core-HealthcareProvider-Organization"/>
            </meta>
            <identifier>
               <system value="http://fhir.nl/fhir/NamingSystem/ura"/>
               <value value="01236578"/>
            </identifier>
            <name value="Apotheek De Gulle Gaper"/>
            <address>
               <extension url="http://nictiz.nl/fhir/StructureDefinition/ext-AddressInformation.AddressType">
                  <valueCodeableConcept>
                     <coding>
                        <system value="http://terminology.hl7.org/CodeSystem/v3-AddressUse"/>
                        <code value="WP"/>
                        <display value="Werkadres"/>
                     </coding>
                  </valueCodeableConcept>
               </extension>
               <use value="work"/>
               <line value="Dorpsstraat 12 A">
                  <extension url="http://hl7.org/fhir/StructureDefinition/iso21090-ADXP-streetName">
                     <valueString value="Dorpsstraat"/>
                  </extension>
                  <extension url="http://hl7.org/fhir/StructureDefinition/iso21090-ADXP-houseNumber">
                     <valueString value="12"/>
                  </extension>
                  <extension url="http://hl7.org/fhir/StructureDefinition/iso21090-ADXP-buildingNumberSuffix">
                     <valueString value="A"/>
                  </extension>
               </line>
               <city value="Ons Dorp"/>
               <postalCode value="1234AA"/>
            </address>
         </Organization>
      </resource>
      <search>
         <mode value="include"/>
      </search>
   </entry>
   <entry>
      <fullUrl value="urn:uuid:5a18a74e-a281-11ef-2018-020000000000"/>
      <resource>
         <Organization>
            <meta>
               <profile value="http://nictiz.nl/fhir/StructureDefinition/nl-core-HealthcareProvider-Organization"/>
            </meta>
            <identifier>
               <system value="http://fhir.nl/fhir/NamingSystem/ura"/>
               <value value="00001111"/>
            </identifier>
            <name value="Huisartsenpraktijk Pulver &amp; Partners"/>
            <address>
               <extension url="http://nictiz.nl/fhir/StructureDefinition/ext-AddressInformation.AddressType">
                  <valueCodeableConcept>
                     <coding>
                        <system value="http://terminology.hl7.org/CodeSystem/v3-AddressUse"/>
                        <code value="WP"/>
                        <display value="Werkadres"/>
                     </coding>
                  </valueCodeableConcept>
               </extension>
               <use value="work"/>
               <line value="Dorpsstraat 1">
                  <extension url="http://hl7.org/fhir/StructureDefinition/iso21090-ADXP-streetName">
                     <valueString value="Dorpsstraat"/>
                  </extension>
                  <extension url="http://hl7.org/fhir/StructureDefinition/iso21090-ADXP-houseNumber">
                     <valueString value="1"/>
                  </extension>
               </line>
               <city value="Ons Dorp"/>
               <postalCode value="1234AA"/>
            </address>
         </Organization>
      </resource>
      <search>
         <mode value="include"/>
      </search>
   </entry>
   <entry>
      <fullUrl value="urn:uuid:5a18a7a8-a281-11ef-2018-020000000000"/>
      <resource>
         <Organization>
            <meta>
               <profile value="http://nictiz.nl/fhir/StructureDefinition/nl-core-HealthcareProvider-Organization"/>
            </meta>
            <identifier>
               <system value="http://fhir.nl/fhir/NamingSystem/ura"/>
               <value value="00005111"/>
            </identifier>
            <name value="Huisartsenpraktijk Itis"/>
            <address>
               <extension url="http://nictiz.nl/fhir/StructureDefinition/ext-AddressInformation.AddressType">
                  <valueCodeableConcept>
                     <coding>
                        <system value="http://terminology.hl7.org/CodeSystem/v3-AddressUse"/>
                        <code value="WP"/>
                        <display value="Werkadres"/>
                     </coding>
                  </valueCodeableConcept>
               </extension>
               <use value="work"/>
               <line value="Langelaan 1">
                  <extension url="http://hl7.org/fhir/StructureDefinition/iso21090-ADXP-streetName">
                     <valueString value="Langelaan"/>
                  </extension>
                  <extension url="http://hl7.org/fhir/StructureDefinition/iso21090-ADXP-houseNumber">
                     <valueString value="1"/>
                  </extension>
               </line>
               <city value="Onze Stad"/>
               <postalCode value="1234ZZ"/>
            </address>
         </Organization>
      </resource>
      <search>
         <mode value="include"/>
      </search>
   </entry>
   <entry>
      <fullUrl value="urn:uuid:5a18834a-a281-11ef-2018-020000000000"/>
      <resource>
         <Medication>
            <meta>
               <profile value="http://nictiz.nl/fhir/StructureDefinition/mp-PharmaceuticalProduct"/>
            </meta>
            <code>
               <coding>
                  <system value="urn:oid:2.16.840.1.113883.2.4.4.10"/>
                  <code value="7323"/>
                  <display value="ACENOCOUMAROL TABLET 1MG"/>
                  <userSelected value="true"/>
               </coding>
               <coding>
                  <system value="urn:oid:2.16.840.1.113883.2.4.4.1"/>
                  <code value="20303"/>
                  <display value="ACENOCOUMAROL TABLET 1MG"/>
               </coding>
               <text value="ACENOCOUMAROL TABLET 1MG"/>
            </code>
         </Medication>
      </resource>
      <search>
         <mode value="include"/>
      </search>
   </entry>
   <entry>
      <fullUrl value="urn:uuid:5a188368-a281-11ef-2018-020000000000"/>
      <resource>
         <Medication>
            <meta>
               <profile value="http://nictiz.nl/fhir/StructureDefinition/mp-PharmaceuticalProduct"/>
            </meta>
            <code>
               <coding>
                  <system value="urn:oid:2.16.840.1.113883.2.4.4.10"/>
                  <code value="3891"/>
                  <display value="ACETYLSALICYLZUUR/PARACETAMOL/COF TAB 250/250/50MG"/>
                  <userSelected value="true"/>
               </coding>
               <coding>
                  <system value="urn:oid:2.16.840.1.113883.2.4.4.1"/>
                  <code value="61433"/>
                  <display value="ACETYLSALICYLZUUR/PARACETAMOL/COF TAB 250/250/50MG"/>
               </coding>
               <text value="ACETYLSALICYLZUUR/PARACETAMOL/COF TAB 250/250/50MG"/>
            </code>
         </Medication>
      </resource>
      <search>
         <mode value="include"/>
      </search>
   </entry>
   <entry>
      <fullUrl value="urn:uuid:5a188386-a281-11ef-2018-020000000000"/>
      <resource>
         <Medication>
            <meta>
               <profile value="http://nictiz.nl/fhir/StructureDefinition/mp-PharmaceuticalProduct"/>
            </meta>
            <code>
               <coding>
                  <system value="urn:oid:2.16.840.1.113883.2.4.4.10"/>
                  <code value="26638"/>
                  <display value="LISINOPRIL 10MG TABLET"/>
                  <userSelected value="true"/>
               </coding>
               <coding>
                  <system value="urn:oid:2.16.840.1.113883.2.4.4.1"/>
                  <code value="71587"/>
                  <display value="LISINOPRIL 10MG TABLET"/>
               </coding>
               <text value="LISINOPRIL 10MG TABLET"/>
            </code>
         </Medication>
      </resource>
      <search>
         <mode value="include"/>
      </search>
   </entry>
   <entry>
      <fullUrl value="urn:uuid:5a1883a4-a281-11ef-2018-020000000000"/>
      <resource>
         <Medication>
            <meta>
               <profile value="http://nictiz.nl/fhir/StructureDefinition/mp-PharmaceuticalProduct"/>
            </meta>
            <code>
               <coding>
                  <system value="urn:oid:2.16.840.1.113883.2.4.4.10"/>
                  <code value="6947"/>
                  <display value="METOCLOPRAMIDE TABLET 10MG"/>
                  <userSelected value="true"/>
               </coding>
               <coding>
                  <system value="urn:oid:2.16.840.1.113883.2.4.4.1"/>
                  <code value="19429"/>
                  <display value="METOCLOPRAMIDE TABLET 10MG"/>
               </coding>
               <text value="METOCLOPRAMIDE TABLET 10MG"/>
            </code>
         </Medication>
      </resource>
      <search>
         <mode value="include"/>
      </search>
   </entry>
   <entry>
      <fullUrl value="urn:uuid:5a1883c2-a281-11ef-2018-020000000000"/>
      <resource>
         <Medication>
            <meta>
               <profile value="http://nictiz.nl/fhir/StructureDefinition/mp-PharmaceuticalProduct"/>
            </meta>
            <code>
               <coding>
                  <system value="urn:oid:2.16.840.1.113883.2.4.4.10"/>
                  <code value="52272"/>
                  <display value="PANTOPRAZOL 20MG TABLET MSR"/>
                  <userSelected value="true"/>
               </coding>
               <coding>
                  <system value="urn:oid:2.16.840.1.113883.2.4.4.1"/>
                  <code value="106275"/>
                  <display value="PANTOPRAZOL 20MG TABLET MSR"/>
               </coding>
               <text value="PANTOPRAZOL 20MG TABLET MSR"/>
            </code>
         </Medication>
      </resource>
      <search>
         <mode value="include"/>
      </search>
   </entry>
   <entry>
      <fullUrl value="urn:uuid:5a1883e0-a281-11ef-2018-020000000000"/>
      <resource>
         <Medication>
            <meta>
               <profile value="http://nictiz.nl/fhir/StructureDefinition/mp-PharmaceuticalProduct"/>
            </meta>
            <code>
               <coding>
                  <system value="urn:oid:2.16.840.1.113883.2.4.4.7"/>
                  <code value="202185"/>
                  <display value="ROTER APC TABLET"/>
                  <userSelected value="true"/>
               </coding>
               <coding>
                  <system value="urn:oid:2.16.840.1.113883.2.4.4.10"/>
                  <code value="3891"/>
                  <display value="ACETYLSALICYLZUUR/PARACETAMOL/COF TAB 250/250/50MG"/>
               </coding>
               <coding>
                  <system value="urn:oid:2.16.840.1.113883.2.4.4.1"/>
                  <code value="61433"/>
                  <display value="ACETYLSALICYLZUUR/PARACETAMOL/COF TAB 250/250/50MG"/>
               </coding>
               <text value="ROTER APC TABLET"/>
            </code>
         </Medication>
      </resource>
      <search>
         <mode value="include"/>
      </search>
   </entry>
   <entry>
      <fullUrl value="urn:uuid:5a1883fe-a281-11ef-2018-020000000000"/>
      <resource>
         <Medication>
            <meta>
               <profile value="http://nictiz.nl/fhir/StructureDefinition/mp-PharmaceuticalProduct"/>
            </meta>
            <code>
               <coding>
                  <system value="urn:oid:2.16.840.1.113883.2.4.4.10"/>
                  <code value="45624"/>
                  <display value="FLUTICASON INHALATIEPOEDER 100UG/DO 60DO DISKUS"/>
                  <userSelected value="true"/>
               </coding>
               <coding>
                  <system value="urn:oid:2.16.840.1.113883.2.4.4.1"/>
                  <code value="92487"/>
                  <display value="FLUTICASON INHALATIEPOEDER 100UG/DO"/>
               </coding>
               <text value="FLUTICASON INHALATIEPOEDER 100UG/DO 60DO DISKUS"/>
            </code>
         </Medication>
      </resource>
      <search>
         <mode value="include"/>
      </search>
   </entry>
   <entry>
      <fullUrl value="urn:uuid:5a18841c-a281-11ef-2018-020000000000"/>
      <resource>
         <Medication>
            <meta>
               <profile value="http://nictiz.nl/fhir/StructureDefinition/mp-PharmaceuticalProduct"/>
            </meta>
            <code>
               <coding>
                  <system value="urn:oid:2.16.840.1.113883.2.4.4.7"/>
                  <code value="1029754"/>
                  <display value="FLIXOTIDE DISKUS INHPDR 100MCG 60DO"/>
                  <userSelected value="true"/>
               </coding>
               <coding>
                  <system value="urn:oid:2.16.840.1.113883.2.4.4.10"/>
                  <code value="45624"/>
                  <display value="FLUTICASON INHALATIEPOEDER 100UG/DO 60DO DISKUS"/>
               </coding>
               <coding>
                  <system value="urn:oid:2.16.840.1.113883.2.4.4.1"/>
                  <code value="92487"/>
                  <display value="FLUTICASON INHALATIEPOEDER 100UG/DO"/>
               </coding>
               <text value="FLIXOTIDE DISKUS INHPDR 100MCG 60DO"/>
            </code>
         </Medication>
      </resource>
      <search>
         <mode value="include"/>
      </search>
   </entry>
   <entry>
      <fullUrl value="urn:uuid:5a18843a-a281-11ef-2018-020000000000"/>
      <resource>
         <Medication>
            <meta>
               <profile value="http://nictiz.nl/fhir/StructureDefinition/mp-PharmaceuticalProduct"/>
            </meta>
            <code>
               <coding>
                  <system value="urn:oid:2.16.840.1.113883.2.4.4.7"/>
                  <code value="1506773"/>
                  <display value="LISINOPRIL SANDOZ TABLET 10MG"/>
                  <userSelected value="true"/>
               </coding>
               <coding>
                  <system value="urn:oid:2.16.840.1.113883.2.4.4.10"/>
                  <code value="26638"/>
                  <display value="LISINOPRIL 10MG TABLET"/>
               </coding>
               <coding>
                  <system value="urn:oid:2.16.840.1.113883.2.4.4.1"/>
                  <code value="71587"/>
                  <display value="LISINOPRIL 10MG TABLET"/>
               </coding>
               <text value="LISINOPRIL SANDOZ TABLET 10MG"/>
            </code>
         </Medication>
      </resource>
      <search>
         <mode value="include"/>
      </search>
   </entry>
   <entry>
      <fullUrl value="urn:uuid:5a188458-a281-11ef-2018-020000000000"/>
      <resource>
         <Medication>
            <meta>
               <profile value="http://nictiz.nl/fhir/StructureDefinition/mp-PharmaceuticalProduct"/>
            </meta>
            <code>
               <coding>
                  <system value="urn:oid:2.16.840.1.113883.2.4.4.7"/>
                  <code value="560308"/>
                  <display value="METOCLOPRAMIDE HCL PCH TABLET 10MG"/>
                  <userSelected value="true"/>
               </coding>
               <coding>
                  <system value="urn:oid:2.16.840.1.113883.2.4.4.10"/>
                  <code value="6947"/>
                  <display value="METOCLOPRAMIDE TABLET 10MG"/>
               </coding>
               <coding>
                  <system value="urn:oid:2.16.840.1.113883.2.4.4.1"/>
                  <code value="19429"/>
                  <display value="METOCLOPRAMIDE TABLET 10MG"/>
               </coding>
               <text value="METOCLOPRAMIDE HCL PCH TABLET 10MG"/>
            </code>
         </Medication>
      </resource>
      <search>
         <mode value="include"/>
      </search>
   </entry>
   <entry>
      <fullUrl value="urn:uuid:5a188476-a281-11ef-2018-020000000000"/>
      <resource>
         <Medication>
            <meta>
               <profile value="http://nictiz.nl/fhir/StructureDefinition/mp-PharmaceuticalProduct"/>
            </meta>
            <code>
               <coding>
                  <system value="urn:oid:2.16.840.1.113883.2.4.4.7"/>
                  <code value="1163094"/>
                  <display value="PANTOZOL TABLET MSR 20MG"/>
                  <userSelected value="true"/>
               </coding>
               <coding>
                  <system value="urn:oid:2.16.840.1.113883.2.4.4.10"/>
                  <code value="52272"/>
                  <display value="PANTOPRAZOL TABLET MSR 20MG"/>
               </coding>
               <coding>
                  <system value="urn:oid:2.16.840.1.113883.2.4.4.1"/>
                  <code value="106275"/>
                  <display value="PANTOPRAZOL TABLET MSR 20MG"/>
               </coding>
               <text value="PANTOZOL TABLET MSR 20MG"/>
            </code>
         </Medication>
      </resource>
      <search>
         <mode value="include"/>
      </search>
   </entry>
</Bundle>
