<?xml-model href="http://hl7.org/fhir/STU3/bundle.sch" type="application/xml" schematypens="http://purl.oclc.org/dsdl/schematron"?><Bundle xmlns="http://hl7.org/fhir"
        xmlns:xsi="http://www.w3.org/2001/XMLSchema-instance"
        xsi:schemaLocation="http://hl7.org/fhir http://hl7.org/fhir/STU3/fhir-all.xsd">
   <id value="a751ae41-3828-11ed-1334-020000000000"/>
   <type value="searchset"/>
   <total value="3"/>
   <entry>
      <fullUrl value="urn:uuid:a751ae44-3828-11ed-1334-020000000000"/>
      <resource>
         <Encounter>
            <meta>
               <profile value="http://nictiz.nl/fhir/StructureDefinition/zib-Encounter"/>
            </meta>
            <text>
               <status value="extensions"/>
               <div xmlns="http://www.w3.org/1999/xhtml">
                  <table>
                     <caption>Contact. Subject: Dennis D. Dennis Janse. Status: gepland</caption>
                     <tbody>
                        <tr>
                           <th>Type contact</th>
                           <td>
                              <div>
                                 <span title="Emergency (EMER - v3/ActCode)">Emergency</span>
                              </div>
                           </td>
                        </tr>
                        <tr>
                           <th>Periode</th>
                           <td>${DATE, T, D, +1}T11:00:00+02:00 - ${DATE, T, D, +1}T13:30:00+02:00</td>
                        </tr>
                     </tbody>
                  </table>
               </div>
            </text>
            <status value="planned"/>
            <class>
               <extension url="http://nictiz.nl/fhir/StructureDefinition/code-specification">
                  <valueCodeableConcept>
                     <coding>
                        <system value="http://hl7.org/fhir/v3/ActCode"/>
                        <code value="EMER"/>
                        <display value="Emergency"/>
                     </coding>
                  </valueCodeableConcept>
               </extension>
               <system value="http://hl7.org/fhir/v3/ActCode"/>
               <code value="EMER"/>
               <display value="Emergency"/>
            </class>
            <subject>
               <reference value="urn:uuid:a751c2ae-3828-11ed-1334-020000000000"/>
               <display value="Dennis D. Dennis Janse"/>
            </subject>
            <period>
               <start value="${DATE, T, D, +1}T11:00:00+02:00"/>
               <end value="${DATE, T, D, +1}T13:30:00+02:00"/>
            </period>
            <hospitalization>
               <admitSource>
                  <coding>
                     <system value="http://snomed.info/sct"/>
                     <code value="264362003"/>
                     <display value="Home"/>
                  </coding>
               </admitSource>
            </hospitalization>
         </Encounter>
      </resource>
      <search>
         <mode value="match"/>
      </search>
   </entry>
   <entry>
      <fullUrl value="urn:uuid:a751cbac-3828-11ed-1334-020000000000"/>
      <resource>
         <Encounter>
            <meta>
               <profile value="http://nictiz.nl/fhir/StructureDefinition/zib-Encounter"/>
            </meta>
            <text>
               <status value="extensions"/>
               <div xmlns="http://www.w3.org/1999/xhtml">
                  <table>
                     <caption>Contact. Subject: Dennis D. Dennis Janse. Status: gepland</caption>
                     <tbody>
                        <tr>
                           <th>Type contact</th>
                           <td>
                              <div>
                                 <span title="Inpatient (IMP - v3/ActCode)">Inpatient</span>
                              </div>
                           </td>
                        </tr>
                        <tr>
                           <th>Periode</th>
                           <td>${DATE, T, D, +1}T13:30:00+02:00 - ${DATE, T, D, +2}T12:00:00+02:00</td>
                        </tr>
                     </tbody>
                  </table>
               </div>
            </text>
            <status value="planned"/>
            <class>
               <extension url="http://nictiz.nl/fhir/StructureDefinition/code-specification">
                  <valueCodeableConcept>
                     <coding>
                        <system value="http://hl7.org/fhir/v3/ActCode"/>
                        <code value="IMP"/>
                        <display value="Inpatient"/>
                     </coding>
                  </valueCodeableConcept>
               </extension>
               <system value="http://hl7.org/fhir/v3/ActCode"/>
               <code value="IMP"/>
               <display value="Inpatient"/>
            </class>
            <subject>
               <reference value="urn:uuid:a751c2ae-3828-11ed-1334-020000000000"/>
               <display value="Dennis D. Dennis Janse"/>
            </subject>
            <period>
               <start value="${DATE, T, D, +1}T13:30:00+02:00"/>
               <end value="${DATE, T, D, +2}T12:00:00+02:00"/>
            </period>
            <hospitalization>
               <dischargeDisposition>
                  <coding>
                     <system value="http://snomed.info/sct"/>
                     <code value="80522000"/>
                     <display value="Rehabilitation hospital"/>
                  </coding>
               </dischargeDisposition>
            </hospitalization>
         </Encounter>
      </resource>
      <search>
         <mode value="match"/>
      </search>
   </entry>
   <entry>
      <fullUrl value="urn:uuid:a751cc1d-3828-11ed-1334-020000000000"/>
      <resource>
         <Encounter>
            <meta>
               <profile value="http://nictiz.nl/fhir/StructureDefinition/zib-Encounter"/>
            </meta>
            <text>
               <status value="extensions"/>
               <div xmlns="http://www.w3.org/1999/xhtml">
                  <table>
                     <caption>Contact. Subject: Dennis D. Dennis Janse. Status: gepland</caption>
                     <tbody>
                        <tr>
                           <th>Type contact</th>
                           <td>
                              <div>
                                 <span title="Ambulatory (AMB - v3/ActCode)">Ambulatory</span>
                              </div>
                           </td>
                        </tr>
                        <tr>
                           <th>Periode</th>
                           <td>Vanaf ${DATE, T, D, +44}T09:00:00+02:00</td>
                        </tr>
                     </tbody>
                  </table>
               </div>
            </text>
            <status value="planned"/>
            <class>
               <extension url="http://nictiz.nl/fhir/StructureDefinition/code-specification">
                  <valueCodeableConcept>
                     <coding>
                        <system value="http://hl7.org/fhir/v3/ActCode"/>
                        <code value="AMB"/>
                        <display value="Ambulatory"/>
                     </coding>
                  </valueCodeableConcept>
               </extension>
               <system value="http://hl7.org/fhir/v3/ActCode"/>
               <code value="AMB"/>
               <display value="Ambulatory"/>
            </class>
            <subject>
               <reference value="urn:uuid:a751c2ae-3828-11ed-1334-020000000000"/>
               <display value="Dennis D. Dennis Janse"/>
            </subject>
            <period>
               <start value="${DATE, T, D, +44}T09:00:00+02:00"/>
            </period>
         </Encounter>
      </resource>
      <search>
         <mode value="match"/>
      </search>
   </entry>
   <entry>
      <fullUrl value="urn:uuid:a751ae47-3828-11ed-1334-020000000000"/>
      <resource>
         <Patient>
            <meta>
               <profile value="http://fhir.nl/fhir/StructureDefinition/nl-core-patient"/>
            </meta>
            <text>
               <status value="extensions"/>
               <div xmlns="http://www.w3.org/1999/xhtml">
                  <div/>
               </div>
            </text>
         </Patient>
      </resource>
      <search>
         <mode value="include"/>
      </search>
   </entry>
   <entry>
      <fullUrl value="urn:uuid:a751c2ae-3828-11ed-1334-020000000000"/>
      <resource>
         <Patient>
            <meta>
               <profile value="http://fhir.nl/fhir/StructureDefinition/nl-core-patient"/>
            </meta>
            <text>
               <status value="extensions"/>
               <div xmlns="http://www.w3.org/1999/xhtml">
                  <div>Id 999999151 (BSN), Dennis D. Janse (Dennis), Man, 2 februari 1950, <span title="Married (M - MaritalStatus)">Married</span>
                  </div>
                  <div>
                     <a href="tel:+316-11122233">+316-11122233</a> (Tel Mobiel), <a href="mailto:djanse@test.nl">djanse@test.nl</a> (E-mail Privé)</div>
                  <div>Huweelstraat 15 Tijdelijk adres to, 1248CC Barendrecht, NL (TMP)</div>
               </div>
            </text>
            <identifier>
               <system value="http://fhir.nl/fhir/NamingSystem/bsn"/>
               <value value="999999151"/>
            </identifier>
            <name>
               <extension url="http://hl7.org/fhir/StructureDefinition/humanname-assembly-order">
                  <valueCode value="NL1"/>
               </extension>
               <family value="Janse">
                  <extension url="http://hl7.org/fhir/StructureDefinition/humanname-own-name">
                     <valueString value="Janse"/>
                  </extension>
               </family>
               <given value="Dennis">
                  <extension url="http://hl7.org/fhir/StructureDefinition/iso21090-EN-qualifier">
                     <valueCode value="BR"/>
                  </extension>
               </given>
               <given value="D.">
                  <extension url="http://hl7.org/fhir/StructureDefinition/iso21090-EN-qualifier">
                     <valueCode value="IN"/>
                  </extension>
               </given>
               <given value="Dennis">
                  <extension url="http://hl7.org/fhir/StructureDefinition/iso21090-EN-qualifier">
                     <valueCode value="CL"/>
                  </extension>
               </given>
            </name>
            <telecom>
               <extension url="http://nictiz.nl/fhir/StructureDefinition/zib-ContactInformation-TelecomType">
                  <valueCodeableConcept>
                     <coding>
                        <system value="http://hl7.org/fhir/v3/AddressUse"/>
                        <code value="MC"/>
                        <display value="Mobile Phone"/>
                     </coding>
                  </valueCodeableConcept>
               </extension>
               <system value="phone"/>
               <value value="+316-11122233"/>
               <use value="mobile"/>
            </telecom>
            <telecom>
               <system value="email"/>
               <value value="djanse@test.nl"/>
               <use value="home"/>
            </telecom>
            <gender value="male">
               <extension url="http://nictiz.nl/fhir/StructureDefinition/code-specification">
                  <valueCodeableConcept>
                     <coding>
                        <system value="http://hl7.org/fhir/v3/AdministrativeGender"/>
                        <code value="M"/>
                        <display value="Male"/>
                     </coding>
                  </valueCodeableConcept>
               </extension>
            </gender>
            <birthDate value="1950-02-02"/>
            <deceasedBoolean value="false"/>
            <address>
               <extension url="http://nictiz.nl/fhir/StructureDefinition/zib-AddressInformation-AddressType">
                  <valueCodeableConcept>
                     <coding>
                        <system value="http://hl7.org/fhir/v3/AddressUse"/>
                        <code value="TMP"/>
                        <display value="Tijdelijk adres"/>
                     </coding>
                  </valueCodeableConcept>
               </extension>
               <use value="temp"/>
               <line value="Huweelstraat 15 Tijdelijk adres to">
                  <extension url="http://hl7.org/fhir/StructureDefinition/iso21090-ADXP-streetName">
                     <valueString value="Huweelstraat"/>
                  </extension>
                  <extension url="http://hl7.org/fhir/StructureDefinition/iso21090-ADXP-houseNumber">
                     <valueString value="15"/>
                  </extension>
                  <extension url="http://hl7.org/fhir/StructureDefinition/iso21090-ADXP-unitID">
                     <valueString value="Tijdelijk adres"/>
                  </extension>
                  <extension url="http://hl7.org/fhir/StructureDefinition/iso21090-ADXP-additionalLocator">
                     <valueString value="to"/>
                  </extension>
               </line>
               <city value="Barendrecht"/>
               <postalCode value="1248CC"/>
               <country value="NL">
                  <extension url="http://nictiz.nl/fhir/StructureDefinition/code-specification">
                     <valueCodeableConcept>
                        <coding>
                           <system value="urn:iso:std:iso:3166"/>
                           <code value="NL"/>
                           <display value="Nederland"/>
                        </coding>
                     </valueCodeableConcept>
                  </extension>
               </country>
            </address>
            <maritalStatus>
               <coding>
                  <system value="urn:oid:2.16.840.1.113883.5.2"/>
                  <code value="M"/>
                  <display value="Married"/>
               </coding>
            </maritalStatus>
            <multipleBirthBoolean value="false"/>
         </Patient>
      </resource>
      <search>
         <mode value="include"/>
      </search>
   </entry>
   <entry>
      <fullUrl value="urn:oid:2.16.840.1.113883.2.4.6.1.45678912"/>
      <resource>
         <Practitioner>
            <meta>
               <profile value="http://fhir.nl/fhir/StructureDefinition/nl-core-practitioner"/>
            </meta>
            <text>
               <status value="extensions"/>
               <div xmlns="http://www.w3.org/1999/xhtml">
                  <div>Id 45678912 (AGB-Z), Jeroen Hendrik Robert J.H.R. Peters (Jeroen)</div>
                  <div/>
               </div>
            </text>
            <identifier>
               <system value="http://fhir.nl/fhir/NamingSystem/agb-z"/>
               <value value="45678912"/>
            </identifier>
            <name>
               <extension url="http://hl7.org/fhir/StructureDefinition/humanname-assembly-order">
                  <valueCode value="NL1"/>
               </extension>
               <family value="Peters">
                  <extension url="http://hl7.org/fhir/StructureDefinition/humanname-own-name">
                     <valueString value="Peters"/>
                  </extension>
               </family>
               <given value="Jeroen Hendrik Robert">
                  <extension url="http://hl7.org/fhir/StructureDefinition/iso21090-EN-qualifier">
                     <valueCode value="BR"/>
                  </extension>
               </given>
               <given value="J.H.R.">
                  <extension url="http://hl7.org/fhir/StructureDefinition/iso21090-EN-qualifier">
                     <valueCode value="IN"/>
                  </extension>
               </given>
               <given value="Jeroen">
                  <extension url="http://hl7.org/fhir/StructureDefinition/iso21090-EN-qualifier">
                     <valueCode value="CL"/>
                  </extension>
               </given>
            </name>
            <address/>
         </Practitioner>
      </resource>
      <search>
         <mode value="include"/>
      </search>
   </entry>
   <entry>
      <fullUrl value="urn:oid:2.16.840.1.113883.2.4.6.1.12345678"/>
      <resource>
         <Practitioner>
            <meta>
               <profile value="http://fhir.nl/fhir/StructureDefinition/nl-core-practitioner"/>
            </meta>
            <text>
               <status value="extensions"/>
               <div xmlns="http://www.w3.org/1999/xhtml">
                  <div>Id 12345678 (AGB-Z), Alfred Bart A.B. Bakker (Alfred)</div>
                  <div/>
               </div>
            </text>
            <identifier>
               <system value="http://fhir.nl/fhir/NamingSystem/agb-z"/>
               <value value="12345678"/>
            </identifier>
            <name>
               <extension url="http://hl7.org/fhir/StructureDefinition/humanname-assembly-order">
                  <valueCode value="NL1"/>
               </extension>
               <family value="Bakker">
                  <extension url="http://hl7.org/fhir/StructureDefinition/humanname-own-name">
                     <valueString value="Bakker"/>
                  </extension>
               </family>
               <given value="Alfred Bart">
                  <extension url="http://hl7.org/fhir/StructureDefinition/iso21090-EN-qualifier">
                     <valueCode value="BR"/>
                  </extension>
               </given>
               <given value="A.B.">
                  <extension url="http://hl7.org/fhir/StructureDefinition/iso21090-EN-qualifier">
                     <valueCode value="IN"/>
                  </extension>
               </given>
               <given value="Alfred">
                  <extension url="http://hl7.org/fhir/StructureDefinition/iso21090-EN-qualifier">
                     <valueCode value="CL"/>
                  </extension>
               </given>
            </name>
            <address/>
         </Practitioner>
      </resource>
      <search>
         <mode value="include"/>
      </search>
   </entry>
   <entry>
      <fullUrl value="urn:uuid:a751b782-3828-11ed-1334-020000000000"/>
      <resource>
         <Practitioner>
            <meta>
               <profile value="http://fhir.nl/fhir/StructureDefinition/nl-core-practitioner"/>
            </meta>
            <text>
               <status value="extensions"/>
               <div xmlns="http://www.w3.org/1999/xhtml">
                  <div/>
               </div>
            </text>
         </Practitioner>
      </resource>
      <search>
         <mode value="include"/>
      </search>
   </entry>
   <entry>
      <fullUrl value="urn:uuid:a751b7aa-3828-11ed-1334-020000000000"/>
      <resource>
         <Practitioner>
            <meta>
               <profile value="http://fhir.nl/fhir/StructureDefinition/nl-core-practitioner"/>
            </meta>
            <text>
               <status value="extensions"/>
               <div xmlns="http://www.w3.org/1999/xhtml">
                  <div/>
               </div>
            </text>
         </Practitioner>
      </resource>
      <search>
         <mode value="include"/>
      </search>
   </entry>
   <entry>
      <fullUrl value="urn:uuid:a751c2f8-3828-11ed-1334-020000000000"/>
      <resource>
         <Organization>
            <meta>
               <profile value="http://fhir.nl/fhir/StructureDefinition/nl-core-organization"/>
            </meta>
            <text>
               <status value="extensions"/>
               <div xmlns="http://www.w3.org/1999/xhtml">
                  <table>
                     <caption>Organisatie. </caption>
                     <tbody>
                        <tr>
                           <th>Naam</th>
                           <td/>
                        </tr>
                     </tbody>
                  </table>
               </div>
            </text>
         </Organization>
      </resource>
      <search>
         <mode value="include"/>
      </search>
   </entry>
   <entry>
      <fullUrl value="urn:uuid:a751c2d2-3828-11ed-1334-020000000000"/>
      <resource>
         <PractitionerRole>
            <meta>
               <profile value="http://fhir.nl/fhir/StructureDefinition/nl-core-practitionerrole"/>
            </meta>
            <text>
               <status value="extensions"/>
               <div xmlns="http://www.w3.org/1999/xhtml">
                  <table>
                     <caption>Zorgverlenerrol. </caption>
                     <tbody>
                        <tr>
                           <th>Zorgverlener</th>
                           <td>
                              <div>Jeroen Hendrik Robert J.H.R. Jeroen Peters</div>
                              <div>Organisatie informatie: naam eigen ziekenhuis</div>
                           </td>
                        </tr>
                        <tr>
                           <th>Specialisme</th>
                           <td>
                              <span title="Orthopedisch chirurg (01.032 - http://fhir.nl/fhir/NamingSystem/uzi-rolcode)">Orthopedisch chirurg</span>
                           </td>
                        </tr>
                     </tbody>
                  </table>
               </div>
            </text>
            <practitioner>
               <reference value="urn:oid:2.16.840.1.113883.2.4.6.1.45678912"/>
               <display value="Jeroen Hendrik Robert J.H.R. Jeroen Peters"/>
            </practitioner>
            <organization>
               <reference value="urn:uuid:a751c2f8-3828-11ed-1334-020000000000"/>
               <display value="Organisatie informatie: naam eigen ziekenhuis"/>
            </organization>
            <specialty>
               <coding>
                  <system value="http://fhir.nl/fhir/NamingSystem/uzi-rolcode"/>
                  <code value="01.032"/>
                  <display value="Orthopedisch chirurg"/>
               </coding>
            </specialty>
         </PractitionerRole>
      </resource>
      <search>
         <mode value="include"/>
      </search>
   </entry>
   <entry>
      <fullUrl value="urn:uuid:a751cbd6-3828-11ed-1334-020000000000"/>
      <resource>
         <PractitionerRole>
            <meta>
               <profile value="http://fhir.nl/fhir/StructureDefinition/nl-core-practitionerrole"/>
            </meta>
            <text>
               <status value="extensions"/>
               <div xmlns="http://www.w3.org/1999/xhtml">
                  <table>
                     <caption>Zorgverlenerrol. </caption>
                     <tbody>
                        <tr>
                           <th>Zorgverlener</th>
                           <td>
                              <div>Alfred Bart A.B. Alfred Bakker</div>
                              <div>Organisatie informatie: naam eigen ziekenhuis</div>
                           </td>
                        </tr>
                        <tr>
                           <th>Specialisme</th>
                           <td>
                              <span title="Spoedeisende hulp arts (01.071 - http://fhir.nl/fhir/NamingSystem/uzi-rolcode)">Spoedeisende hulp arts</span>
                           </td>
                        </tr>
                     </tbody>
                  </table>
               </div>
            </text>
            <practitioner>
               <reference value="urn:oid:2.16.840.1.113883.2.4.6.1.12345678"/>
               <display value="Alfred Bart A.B. Alfred Bakker"/>
            </practitioner>
            <organization>
               <reference value="urn:uuid:a751c2f8-3828-11ed-1334-020000000000"/>
               <display value="Organisatie informatie: naam eigen ziekenhuis"/>
            </organization>
            <specialty>
               <coding>
                  <system value="http://fhir.nl/fhir/NamingSystem/uzi-rolcode"/>
                  <code value="01.071"/>
                  <display value="Spoedeisende hulp arts"/>
               </coding>
            </specialty>
         </PractitionerRole>
      </resource>
      <search>
         <mode value="include"/>
      </search>
   </entry>
   <entry>
      <fullUrl value="urn:uuid:a751cc17-3828-11ed-1334-020000000000"/>
      <resource>
         <PractitionerRole>
            <meta>
               <profile value="http://fhir.nl/fhir/StructureDefinition/nl-core-practitionerrole"/>
            </meta>
            <text>
               <status value="extensions"/>
               <div xmlns="http://www.w3.org/1999/xhtml">
                  <table>
                     <caption>Zorgverlenerrol. </caption>
                     <tbody>
                        <tr>
                           <th>Zorgverlener</th>
                           <td>
                              <div>urn:uuid:a751b782-3828-11ed-1334-020000000000</div>
                           </td>
                        </tr>
                     </tbody>
                  </table>
               </div>
            </text>
            <practitioner>
               <reference value="urn:uuid:a751b782-3828-11ed-1334-020000000000"/>
            </practitioner>
         </PractitionerRole>
      </resource>
      <search>
         <mode value="include"/>
      </search>
   </entry>
   <entry>
      <fullUrl value="urn:uuid:a751cc19-3828-11ed-1334-020000000000"/>
      <resource>
         <PractitionerRole>
            <meta>
               <profile value="http://fhir.nl/fhir/StructureDefinition/nl-core-practitionerrole"/>
            </meta>
            <text>
               <status value="extensions"/>
               <div xmlns="http://www.w3.org/1999/xhtml">
                  <table>
                     <caption>Zorgverlenerrol. </caption>
                     <tbody>
                        <tr>
                           <th>Zorgverlener</th>
                           <td>
                              <div>urn:uuid:a751b7aa-3828-11ed-1334-020000000000</div>
                           </td>
                        </tr>
                     </tbody>
                  </table>
               </div>
            </text>
            <practitioner>
               <reference value="urn:uuid:a751b7aa-3828-11ed-1334-020000000000"/>
            </practitioner>
         </PractitionerRole>
      </resource>
      <search>
         <mode value="include"/>
      </search>
   </entry>
</Bundle>
