<?xml-model href="http://hl7.org/fhir/STU3/bundle.sch" type="application/xml" schematypens="http://purl.oclc.org/dsdl/schematron"?><Bundle xmlns="http://hl7.org/fhir"
        xmlns:xsi="http://www.w3.org/2001/XMLSchema-instance"
        xsi:schemaLocation="http://hl7.org/fhir http://hl7.org/fhir/STU3/fhir-all.xsd">
   <id value="a1385647-3da8-11ed-1919-020000000000"/>
   <type value="searchset"/>
   <total value="3"/>
   <entry>
      <fullUrl value="urn:uuid:a138564a-3da8-11ed-1919-020000000000"/>
      <resource>
         <Observation>
            <meta>
               <profile value="http://nictiz.nl/fhir/StructureDefinition/zib-FunctionalOrMentalStatus"/>
            </meta>
            <text>
               <status value="extensions"/>
               <div xmlns="http://www.w3.org/1999/xhtml">
                  <table>
                     <caption>Observatie/bepaling. Subject: Dennis D. Dennis Janse. Categorie: <span title="bevinding betreffende functioneren (118228005 - SNOMED CT)">bevinding betreffende functioneren</span>, Status: definitief</caption>
                     <tfoot>
                        <tr>
                           <td colspan="2">Licht beperkend</td>
                        </tr>
                     </tfoot>
                     <tbody>
                        <tr>
                           <th>Bepalingdatum/tijd</th>
                           <td>Vanaf 1 februari 2012</td>
                        </tr>
                        <tr>
                           <th>Code</th>
                           <th>Waarde</th>
                        </tr>
                        <tr>
                           <td>
                              <span title="gehoorverlies (15188001 - SNOMED CT)">gehoorverlies</span>
                           </td>
                           <td>
                              <span title="licht (255604002 - SNOMED CT)">licht</span>
                           </td>
                        </tr>
                     </tbody>
                  </table>
               </div>
            </text>
            <extension url="http://nictiz.nl/fhir/StructureDefinition/zib-FunctionalOrMentalStatus-MedicalDevice">
               <valueReference>
                  <reference value="urn:uuid:a1386a81-3da8-11ed-1919-020000000000"/>
                  <display value="Gehoorapparaat Inwendig gehoorapparaat"/>
               </valueReference>
            </extension>
            <status value="final"/>
            <category>
               <coding>
                  <system value="http://snomed.info/sct"/>
                  <code value="118228005"/>
                  <display value="bevinding betreffende functioneren"/>
               </coding>
            </category>
            <code>
               <coding>
                  <system value="http://snomed.info/sct"/>
                  <code value="15188001"/>
                  <display value="gehoorverlies"/>
               </coding>
            </code>
            <subject>
               <reference value="urn:uuid:a1386a5a-3da8-11ed-1919-020000000000"/>
               <display value="Dennis D. Dennis Janse"/>
            </subject>
            <effectivePeriod>
               <start value="2012-02-01"/>
            </effectivePeriod>
            <valueCodeableConcept>
               <coding>
                  <system value="http://snomed.info/sct"/>
                  <code value="255604002"/>
                  <display value="licht"/>
               </coding>
            </valueCodeableConcept>
            <comment value="Licht beperkend"/>
         </Observation>
      </resource>
      <search>
         <mode value="match"/>
      </search>
   </entry>
   <entry>
      <fullUrl value="urn:uuid:a1387048-3da8-11ed-1919-020000000000"/>
      <resource>
         <Observation>
            <meta>
               <profile value="http://nictiz.nl/fhir/StructureDefinition/zib-FunctionalOrMentalStatus"/>
            </meta>
            <text>
               <status value="extensions"/>
               <div xmlns="http://www.w3.org/1999/xhtml">
                  <table>
                     <caption>Observatie/bepaling. Subject: Dennis D. Dennis Janse. Categorie: <span title="bevinding betreffende functioneren (118228005 - SNOMED CT)">bevinding betreffende functioneren</span>, Status: definitief</caption>
                     <tfoot>
                        <tr>
                           <td colspan="2">Mag nog niet op loopgips steunen</td>
                        </tr>
                     </tfoot>
                     <tbody>
                        <tr>
                           <th>Bepalingdatum/tijd</th>
                           <td>Vanaf ${DATE, T, D, +1}</td>
                        </tr>
                        <tr>
                           <th>Code</th>
                           <th>Waarde</th>
                        </tr>
                        <tr>
                           <td>
                              <span title="vermogen om zich te verplaatsen (301438001 - SNOMED CT)">vermogen om zich te verplaatsen</span>
                           </td>
                           <td>
                              <span title="ernstig (24484000 - SNOMED CT)">ernstig</span>
                           </td>
                        </tr>
                     </tbody>
                  </table>
               </div>
            </text>
            <status value="final"/>
            <category>
               <coding>
                  <system value="http://snomed.info/sct"/>
                  <code value="118228005"/>
                  <display value="bevinding betreffende functioneren"/>
               </coding>
            </category>
            <code>
               <coding>
                  <system value="http://snomed.info/sct"/>
                  <code value="301438001"/>
                  <display value="vermogen om zich te verplaatsen"/>
               </coding>
            </code>
            <subject>
               <reference value="urn:uuid:a1386a5a-3da8-11ed-1919-020000000000"/>
               <display value="Dennis D. Dennis Janse"/>
            </subject>
            <effectivePeriod>
               <start value="${DATE, T, D, +1}"/>
            </effectivePeriod>
            <valueCodeableConcept>
               <coding>
                  <system value="http://snomed.info/sct"/>
                  <code value="24484000"/>
                  <display value="ernstig"/>
               </coding>
            </valueCodeableConcept>
            <comment value="Mag nog niet op loopgips steunen"/>
         </Observation>
      </resource>
      <search>
         <mode value="match"/>
      </search>
   </entry>
   <entry>
      <fullUrl value="urn:uuid:a1387076-3da8-11ed-1919-020000000000"/>
      <resource>
         <Observation>
            <meta>
               <profile value="http://nictiz.nl/fhir/StructureDefinition/zib-FunctionalOrMentalStatus"/>
            </meta>
            <text>
               <status value="extensions"/>
               <div xmlns="http://www.w3.org/1999/xhtml">
                  <table>
                     <caption>Observatie/bepaling. Subject: Dennis D. Dennis Janse. Categorie: <span title="bevinding betreffende mentale toestand, gedrag en/of psychosociaal functioneren (384821006 - SNOMED CT)">bevinding betreffende mentale toestand, gedrag en/of psychosociaal functioneren</span>, Status: definitief</caption>
                     <tfoot>
                        <tr>
                           <td colspan="2">Met name in wintermaanden</td>
                        </tr>
                     </tfoot>
                     <tbody>
                        <tr>
                           <th>Bepalingdatum/tijd</th>
                           <td>Vanaf 2010</td>
                        </tr>
                        <tr>
                           <th>Code</th>
                           <th>Waarde</th>
                        </tr>
                        <tr>
                           <td>
                              <span title="sombere stemming (366979004 - SNOMED CT)">sombere stemming</span>
                           </td>
                           <td>
                              <span title="ernstig (24484000 - SNOMED CT)">ernstig</span>
                           </td>
                        </tr>
                     </tbody>
                  </table>
               </div>
            </text>
            <status value="final"/>
            <category>
               <coding>
                  <system value="http://snomed.info/sct"/>
                  <code value="384821006"/>
                  <display value="bevinding betreffende mentale toestand, gedrag en/of psychosociaal functioneren"/>
               </coding>
            </category>
            <code>
               <coding>
                  <system value="http://snomed.info/sct"/>
                  <code value="366979004"/>
                  <display value="sombere stemming"/>
               </coding>
            </code>
            <subject>
               <reference value="urn:uuid:a1386a5a-3da8-11ed-1919-020000000000"/>
               <display value="Dennis D. Dennis Janse"/>
            </subject>
            <effectivePeriod>
               <start value="2010"/>
            </effectivePeriod>
            <valueCodeableConcept>
               <coding>
                  <system value="http://snomed.info/sct"/>
                  <code value="24484000"/>
                  <display value="ernstig"/>
               </coding>
            </valueCodeableConcept>
            <comment value="Met name in wintermaanden"/>
         </Observation>
      </resource>
      <search>
         <mode value="match"/>
      </search>
   </entry>
   <entry>
      <fullUrl value="urn:uuid:a1386a5a-3da8-11ed-1919-020000000000"/>
      <resource>
         <Patient>
            <meta>
               <profile value="http://fhir.nl/fhir/StructureDefinition/nl-core-patient"/>
            </meta>
            <text>
               <status value="extensions"/>
               <div xmlns="http://www.w3.org/1999/xhtml">
                  <div>Id 999999151 (BSN), Dennis D. Janse (Dennis), Man, 2 februari 1950, <span title="Married (M - MaritalStatus)">Married</span>
                  </div>
                  <div>
                     <a href="tel:+316-11122233">+316-11122233</a> (Tel Mobiel), <a href="mailto:djanse@test.nl">djanse@test.nl</a> (E-mail Privé)</div>
                  <div>Huweelstraat 15 Tijdelijk adres to, 1248CC Barendrecht, NL (TMP)</div>
               </div>
            </text>
            <identifier>
               <system value="http://fhir.nl/fhir/NamingSystem/bsn"/>
               <value value="999999151"/>
            </identifier>
            <name>
               <extension url="http://hl7.org/fhir/StructureDefinition/humanname-assembly-order">
                  <valueCode value="NL1"/>
               </extension>
               <family value="Janse">
                  <extension url="http://hl7.org/fhir/StructureDefinition/humanname-own-name">
                     <valueString value="Janse"/>
                  </extension>
               </family>
               <given value="Dennis">
                  <extension url="http://hl7.org/fhir/StructureDefinition/iso21090-EN-qualifier">
                     <valueCode value="BR"/>
                  </extension>
               </given>
               <given value="D.">
                  <extension url="http://hl7.org/fhir/StructureDefinition/iso21090-EN-qualifier">
                     <valueCode value="IN"/>
                  </extension>
               </given>
               <given value="Dennis">
                  <extension url="http://hl7.org/fhir/StructureDefinition/iso21090-EN-qualifier">
                     <valueCode value="CL"/>
                  </extension>
               </given>
            </name>
            <telecom>
               <extension url="http://nictiz.nl/fhir/StructureDefinition/zib-ContactInformation-TelecomType">
                  <valueCodeableConcept>
                     <coding>
                        <system value="http://hl7.org/fhir/v3/AddressUse"/>
                        <code value="MC"/>
                        <display value="Mobile Phone"/>
                     </coding>
                  </valueCodeableConcept>
               </extension>
               <system value="phone"/>
               <value value="+316-11122233"/>
               <use value="mobile"/>
            </telecom>
            <telecom>
               <system value="email"/>
               <value value="djanse@test.nl"/>
               <use value="home"/>
            </telecom>
            <gender value="male">
               <extension url="http://nictiz.nl/fhir/StructureDefinition/code-specification">
                  <valueCodeableConcept>
                     <coding>
                        <system value="http://hl7.org/fhir/v3/AdministrativeGender"/>
                        <code value="M"/>
                        <display value="Male"/>
                     </coding>
                  </valueCodeableConcept>
               </extension>
            </gender>
            <birthDate value="1950-02-02"/>
            <deceasedBoolean value="false"/>
            <address>
               <extension url="http://nictiz.nl/fhir/StructureDefinition/zib-AddressInformation-AddressType">
                  <valueCodeableConcept>
                     <coding>
                        <system value="http://hl7.org/fhir/v3/AddressUse"/>
                        <code value="TMP"/>
                        <display value="Tijdelijk adres"/>
                     </coding>
                  </valueCodeableConcept>
               </extension>
               <use value="temp"/>
               <line value="Huweelstraat 15 Tijdelijk adres to">
                  <extension url="http://hl7.org/fhir/StructureDefinition/iso21090-ADXP-streetName">
                     <valueString value="Huweelstraat"/>
                  </extension>
                  <extension url="http://hl7.org/fhir/StructureDefinition/iso21090-ADXP-houseNumber">
                     <valueString value="15"/>
                  </extension>
                  <extension url="http://hl7.org/fhir/StructureDefinition/iso21090-ADXP-unitID">
                     <valueString value="Tijdelijk adres"/>
                  </extension>
                  <extension url="http://hl7.org/fhir/StructureDefinition/iso21090-ADXP-additionalLocator">
                     <valueString value="to"/>
                  </extension>
               </line>
               <city value="Barendrecht"/>
               <postalCode value="1248CC"/>
               <country value="NL">
                  <extension url="http://nictiz.nl/fhir/StructureDefinition/code-specification">
                     <valueCodeableConcept>
                        <coding>
                           <system value="urn:iso:std:iso:3166"/>
                           <code value="NL"/>
                           <display value="Nederland"/>
                        </coding>
                     </valueCodeableConcept>
                  </extension>
               </country>
            </address>
            <maritalStatus>
               <coding>
                  <system value="urn:oid:2.16.840.1.113883.5.2"/>
                  <code value="M"/>
                  <display value="Married"/>
               </coding>
            </maritalStatus>
            <multipleBirthBoolean value="false"/>
         </Patient>
      </resource>
      <search>
         <mode value="include"/>
      </search>
   </entry>
   <entry>
      <fullUrl value="urn:oid:2.16.840.1.113883.2.4.6.1.88776655"/>
      <resource>
         <Practitioner>
            <meta>
               <profile value="http://fhir.nl/fhir/StructureDefinition/nl-core-practitioner"/>
            </meta>
            <text>
               <status value="extensions"/>
               <div xmlns="http://www.w3.org/1999/xhtml">
                  <div>Id 88776655 (AGB-Z), Ria Alexandra R.A. Slot (Ria)</div>
                  <div>
                     <a href="tel:06-12345767">06-12345767</a> (Tel Mobiel), <a href="mailto:r.a.slot@huisarts.nl">r.a.slot@huisarts.nl</a> (E-mail Werk)</div>
                  <div>Talmastraat 84 B, 3071AS Rotterdam Rotterdam, NL (WP)</div>
               </div>
            </text>
            <identifier>
               <system value="http://fhir.nl/fhir/NamingSystem/agb-z"/>
               <value value="88776655"/>
            </identifier>
            <name>
               <extension url="http://hl7.org/fhir/StructureDefinition/humanname-assembly-order">
                  <valueCode value="NL1"/>
               </extension>
               <family value="Slot">
                  <extension url="http://hl7.org/fhir/StructureDefinition/humanname-own-name">
                     <valueString value="Slot"/>
                  </extension>
               </family>
               <given value="Ria Alexandra">
                  <extension url="http://hl7.org/fhir/StructureDefinition/iso21090-EN-qualifier">
                     <valueCode value="BR"/>
                  </extension>
               </given>
               <given value="R.A.">
                  <extension url="http://hl7.org/fhir/StructureDefinition/iso21090-EN-qualifier">
                     <valueCode value="IN"/>
                  </extension>
               </given>
               <given value="Ria">
                  <extension url="http://hl7.org/fhir/StructureDefinition/iso21090-EN-qualifier">
                     <valueCode value="CL"/>
                  </extension>
               </given>
            </name>
            <telecom>
               <extension url="http://nictiz.nl/fhir/StructureDefinition/zib-ContactInformation-TelecomType">
                  <valueCodeableConcept>
                     <coding>
                        <system value="http://hl7.org/fhir/v3/AddressUse"/>
                        <code value="MC"/>
                        <display value="Mobile Phone"/>
                     </coding>
                  </valueCodeableConcept>
               </extension>
               <system value="phone"/>
               <value value="06-12345767"/>
               <use value="mobile"/>
            </telecom>
            <telecom>
               <system value="email"/>
               <value value="r.a.slot@huisarts.nl"/>
               <use value="work"/>
            </telecom>
            <address>
               <extension url="http://nictiz.nl/fhir/StructureDefinition/zib-AddressInformation-AddressType">
                  <valueCodeableConcept>
                     <coding>
                        <system value="http://hl7.org/fhir/v3/AddressUse"/>
                        <code value="WP"/>
                        <display value="Werkadres"/>
                     </coding>
                  </valueCodeableConcept>
               </extension>
               <use value="work"/>
               <line value="Talmastraat 84 B">
                  <extension url="http://hl7.org/fhir/StructureDefinition/iso21090-ADXP-streetName">
                     <valueString value="Talmastraat"/>
                  </extension>
                  <extension url="http://hl7.org/fhir/StructureDefinition/iso21090-ADXP-houseNumber">
                     <valueString value="84"/>
                  </extension>
                  <extension url="http://hl7.org/fhir/StructureDefinition/iso21090-ADXP-buildingNumberSuffix">
                     <valueString value="B"/>
                  </extension>
               </line>
               <city value="Rotterdam"/>
               <district value="Rotterdam"/>
               <postalCode value="3071AS"/>
               <country value="NL">
                  <extension url="http://nictiz.nl/fhir/StructureDefinition/code-specification">
                     <valueCodeableConcept>
                        <coding>
                           <system value="urn:iso:std:iso:3166"/>
                           <code value="NL"/>
                           <display value="Nederland"/>
                        </coding>
                     </valueCodeableConcept>
                  </extension>
               </country>
            </address>
         </Practitioner>
      </resource>
      <search>
         <mode value="include"/>
      </search>
   </entry>
   <entry>
      <fullUrl value="urn:uuid:a1386ffb-3da8-11ed-1919-020000000000"/>
      <resource>
         <Organization>
            <meta>
               <profile value="http://fhir.nl/fhir/StructureDefinition/nl-core-organization"/>
            </meta>
            <text>
               <status value="extensions"/>
               <div xmlns="http://www.w3.org/1999/xhtml">
                  <table>
                     <caption>Organisatie. </caption>
                     <tbody>
                        <tr>
                           <th>Naam</th>
                           <td/>
                        </tr>
                     </tbody>
                  </table>
               </div>
            </text>
         </Organization>
      </resource>
      <search>
         <mode value="include"/>
      </search>
   </entry>
   <entry>
      <fullUrl value="urn:uuid:a1386ffd-3da8-11ed-1919-020000000000"/>
      <resource>
         <PractitionerRole>
            <meta>
               <profile value="http://fhir.nl/fhir/StructureDefinition/nl-core-practitionerrole"/>
            </meta>
            <text>
               <status value="extensions"/>
               <div xmlns="http://www.w3.org/1999/xhtml">
                  <table>
                     <caption>Zorgverlenerrol. </caption>
                     <tbody>
                        <tr>
                           <th>Zorgverlener</th>
                           <td>
                              <div>Dennis D. Dennis Janse Ria Alexandra R.A. Ria Slot</div>
                              <div>Organisatie informatie: Huisartsenpraktijk Rotterdam</div>
                           </td>
                        </tr>
                        <tr>
                           <th>Specialisme</th>
                           <td>
                              <span title="Huisarts (01.015 - http://fhir.nl/fhir/NamingSystem/uzi-rolcode)">Huisarts</span>
                           </td>
                        </tr>
                        <tr>
                           <th>Contactgegevens</th>
                           <td>
                              <div>
                                 <a href="tel:06-12345767">06-12345767</a> (Tel Mobiel)</div>
                              <div>
                                 <a href="mailto:r.a.slot@huisarts.nl">r.a.slot@huisarts.nl</a> (E-mail Werk)</div>
                           </td>
                        </tr>
                     </tbody>
                  </table>
               </div>
            </text>
            <practitioner>
               <reference value="urn:oid:2.16.840.1.113883.2.4.6.1.88776655"/>
               <display value="Dennis D. Dennis Janse Ria Alexandra R.A. Ria Slot"/>
            </practitioner>
            <organization>
               <reference value="urn:uuid:a1386ffb-3da8-11ed-1919-020000000000"/>
               <display value="Organisatie informatie: Huisartsenpraktijk Rotterdam"/>
            </organization>
            <specialty>
               <coding>
                  <system value="http://fhir.nl/fhir/NamingSystem/uzi-rolcode"/>
                  <code value="01.015"/>
                  <display value="Huisarts"/>
               </coding>
            </specialty>
            <telecom>
               <extension url="http://nictiz.nl/fhir/StructureDefinition/zib-ContactInformation-TelecomType">
                  <valueCodeableConcept>
                     <coding>
                        <system value="http://hl7.org/fhir/v3/AddressUse"/>
                        <code value="MC"/>
                        <display value="Mobile Phone"/>
                     </coding>
                  </valueCodeableConcept>
               </extension>
               <system value="phone"/>
               <value value="06-12345767"/>
               <use value="mobile"/>
            </telecom>
            <telecom>
               <system value="email"/>
               <value value="r.a.slot@huisarts.nl"/>
               <use value="work"/>
            </telecom>
         </PractitionerRole>
      </resource>
      <search>
         <mode value="include"/>
      </search>
   </entry>
   <entry>
      <fullUrl value="urn:uuid:a1386ab3-3da8-11ed-1919-020000000000"/>
      <resource>
         <Condition>
            <meta>
               <profile value="http://nictiz.nl/fhir/StructureDefinition/zib-Problem"/>
            </meta>
            <text>
               <status value="extensions"/>
               <div xmlns="http://www.w3.org/1999/xhtml">
                  <table>
                     <caption>Aandoening. Subject: Dennis D. Dennis Janse. Categorie: <span title="Functional Limitation (248536006 - SNOMED CT)">Functional Limitation</span>, Status: actief / bevestigd</caption>
                     <tfoot>
                        <tr>
                           <td colspan="2">Slechthorend door harde muziek</td>
                        </tr>
                     </tfoot>
                     <tbody>
                        <tr>
                           <th>Code</th>
                           <td>
                              <span title="gehoorverlies (15188001 - SNOMED CT)">gehoorverlies</span>
                           </td>
                        </tr>
                        <tr>
                           <th>Eerste symptomen</th>
                           <td>8 maart 2012</td>
                        </tr>
                     </tbody>
                  </table>
               </div>
            </text>
            <clinicalStatus value="active">
               <extension url="http://nictiz.nl/fhir/StructureDefinition/code-specification">
                  <valueCodeableConcept>
                     <coding>
                        <system value="http://snomed.info/sct"/>
                        <code value="55561003"/>
                        <display value="Active"/>
                     </coding>
                  </valueCodeableConcept>
               </extension>
            </clinicalStatus>
            <verificationStatus value="confirmed">
               <extension url="http://nictiz.nl/fhir/StructureDefinition/code-specification">
                  <valueCodeableConcept>
                     <coding>
                        <system value="http://snomed.info/sct"/>
                        <code value="410605003"/>
                        <display value="Confirmed present"/>
                     </coding>
                  </valueCodeableConcept>
               </extension>
            </verificationStatus>
            <category>
               <coding>
                  <system value="http://snomed.info/sct"/>
                  <code value="248536006"/>
                  <display value="Functional Limitation"/>
               </coding>
            </category>
            <code>
               <coding>
                  <system value="http://snomed.info/sct"/>
                  <code value="15188001"/>
                  <display value="gehoorverlies"/>
               </coding>
            </code>
            <bodySite>
               <extension url="http://nictiz.nl/fhir/StructureDefinition/BodySite-Qualifier">
                  <valueCodeableConcept>
                     <coding>
                        <system value="http://snomed.info/sct"/>
                        <code value="24028007"/>
                        <display value="Right"/>
                     </coding>
                  </valueCodeableConcept>
               </extension>
               <coding>
                  <system value="http://snomed.info/sct"/>
                  <code value="368567003"/>
                  <display value="oor"/>
               </coding>
            </bodySite>
            <subject>
               <reference value="urn:uuid:a1386a5a-3da8-11ed-1919-020000000000"/>
               <display value="Dennis D. Dennis Janse"/>
            </subject>
            <onsetDateTime value="2012-03-08"/>
            <note>
               <text value="Slechthorend door harde muziek"/>
            </note>
         </Condition>
      </resource>
      <search>
         <mode value="include"/>
      </search>
   </entry>
   <entry>
      <fullUrl value="urn:uuid:a1386a81-3da8-11ed-1919-020000000000"/>
      <resource>
         <DeviceUseStatement>
            <meta>
               <profile value="http://nictiz.nl/fhir/StructureDefinition/zib-MedicalDevice"/>
            </meta>
            <text>
               <status value="extensions"/>
               <div xmlns="http://www.w3.org/1999/xhtml">
                  <table>
                     <caption>Beschrijving apparaatgebruik. Subject: Dennis D. Dennis Janse. Status: actief</caption>
                     <tfoot>
                        <tr>
                           <td colspan="2">Apparaat niet zichtbaar</td>
                        </tr>
                     </tfoot>
                     <tbody>
                        <tr>
                           <th>Apparaat/Systeem</th>
                           <td>Gehoorapparaat Inwendig gehoorapparaat</td>
                        </tr>
                        <tr>
                           <th>Deel van lichaam</th>
                           <td>
                              <span title="Oor (368567003 - SNOMED CT)">Oor</span>
                              <span title="Right (24028007 - SNOMED CT)">Right</span>
                           </td>
                        </tr>
                        <tr>
                           <th>Gebruiksperiode</th>
                           <td>Vanaf 8 maart 2012</td>
                        </tr>
                        <tr>
                           <th>Indicatie</th>
                           <td>
                              <div>gehoorverlies</div>
                           </td>
                        </tr>
                     </tbody>
                  </table>
               </div>
            </text>
            <extension url="http://nictiz.nl/fhir/StructureDefinition/zib-MedicalDevice-Practitioner">
               <valueReference>
                  <reference value="urn:oid:2.16.840.1.113883.2.4.6.1.88776655"/>
                  <display value="Dennis D. Dennis Janse Ria Alexandra R.A. Ria Slot"/>
               </valueReference>
            </extension>
            <status value="active"/>
            <subject>
               <reference value="urn:uuid:a1386a5a-3da8-11ed-1919-020000000000"/>
               <display value="Dennis D. Dennis Janse"/>
            </subject>
            <whenUsed>
               <start value="2012-03-08"/>
            </whenUsed>
            <device>
               <reference value="urn:uuid:a1386a81-3da8-11ed-1919-020000000000"/>
               <display value="Gehoorapparaat Inwendig gehoorapparaat"/>
            </device>
            <indication>
               <extension url="http://nictiz.nl/fhir/StructureDefinition/zib-MedicalDevice-Problem">
                  <valueReference>
                     <reference value="urn:uuid:a1386ab3-3da8-11ed-1919-020000000000"/>
                     <display value="gehoorverlies"/>
                  </valueReference>
               </extension>
            </indication>
            <bodySite>
               <extension url="http://nictiz.nl/fhir/StructureDefinition/BodySite-Qualifier">
                  <valueCodeableConcept>
                     <coding>
                        <system value="http://snomed.info/sct"/>
                        <code value="24028007"/>
                        <display value="Right"/>
                     </coding>
                  </valueCodeableConcept>
               </extension>
               <coding>
                  <system value="http://snomed.info/sct"/>
                  <code value="368567003"/>
                  <display value="Oor"/>
               </coding>
            </bodySite>
            <note>
               <text value="Apparaat niet zichtbaar"/>
            </note>
         </DeviceUseStatement>
      </resource>
      <search>
         <mode value="include"/>
      </search>
   </entry>
   <entry>
      <fullUrl value="urn:uuid:a1386a81-3da8-11ed-1919-020000000000"/>
      <resource>
         <Device>
            <meta>
               <profile value="http://nictiz.nl/fhir/StructureDefinition/zib-MedicalDeviceProduct"/>
            </meta>
            <text>
               <status value="extensions"/>
               <div xmlns="http://www.w3.org/1999/xhtml">
                  <table>
                     <caption>Apparaat/Systeem. Patiënt: Dennis D. Dennis Janse. Status: actief</caption>
                     <tfoot>
                        <tr>
                           <td colspan="2">Inwendig gehoorapparaat</td>
                        </tr>
                     </tfoot>
                     <tbody>
                        <tr>
                           <th>Type</th>
                           <td/>
                        </tr>
                     </tbody>
                  </table>
               </div>
            </text>
            <status value="active"/>
            <patient>
               <reference value="urn:uuid:a1386a5a-3da8-11ed-1919-020000000000"/>
               <display value="Dennis D. Dennis Janse"/>
            </patient>
            <note>
               <text value="Inwendig gehoorapparaat"/>
            </note>
         </Device>
      </resource>
      <search>
         <mode value="include"/>
      </search>
   </entry>
</Bundle>
