<?xml-model href="http://hl7.org/fhir/STU3/bundle.sch" type="application/xml" schematypens="http://purl.oclc.org/dsdl/schematron"?><Bundle xmlns="http://hl7.org/fhir"
        xmlns:xsi="http://www.w3.org/2001/XMLSchema-instance"
        xsi:schemaLocation="http://hl7.org/fhir http://hl7.org/fhir/STU3/fhir-all.xsd">
   <id value="9e7da9e9-3e38-11ed-4130-020000000000"/>
   <type value="searchset"/>
   <total value="3"/>
   <entry>
      <fullUrl value="urn:uuid:9e7da9ec-3e38-11ed-4130-020000000000"/>
      <resource>
         <Encounter>
            <meta>
               <profile value="http://nictiz.nl/fhir/StructureDefinition/zib-Encounter"/>
            </meta>
            <text>
               <status value="extensions"/>
               <div xmlns="http://www.w3.org/1999/xhtml">
                  <table>
                     <caption>Contact. Subject: Maria Francisca M.F. Maria van 't Hoen Verheul. Status: gepland</caption>
                     <tbody>
                        <tr>
                           <th>Type contact</th>
                           <td>
                              <div>
                                 <span title="Inpatient (IMP - v3/ActCode)">Inpatient</span>
                              </div>
                           </td>
                        </tr>
                        <tr>
                           <th>Periode</th>
                           <td>${DATE, T, D, +1}T07:00:00+02:00 - ${DATE, T, D, +2}T09:00:00+02:00</td>
                        </tr>
                        <tr>
                           <th>Problem/Procedure</th>
                           <td>mastectomie met huidreductie</td>
                        </tr>
                     </tbody>
                  </table>
               </div>
            </text>
            <status value="planned"/>
            <class>
               <extension url="http://nictiz.nl/fhir/StructureDefinition/code-specification">
                  <valueCodeableConcept>
                     <coding>
                        <system value="http://hl7.org/fhir/v3/ActCode"/>
                        <code value="IMP"/>
                        <display value="Inpatient"/>
                     </coding>
                  </valueCodeableConcept>
               </extension>
               <system value="http://hl7.org/fhir/v3/ActCode"/>
               <code value="IMP"/>
               <display value="Inpatient"/>
            </class>
            <subject>
               <reference value="urn:uuid:9e657b16-3e38-11ed-4130-020000000000"/>
               <display value="Maria Francisca M.F. Maria van 't Hoen Verheul"/>
            </subject>
            <period>
               <start value="${DATE, T, D, +1}T07:00:00+02:00"/>
               <end value="${DATE, T, D, +2}T09:00:00+02:00"/>
            </period>
            <diagnosis>
               <condition>
                  <reference value="urn:uuid:9e657b45-3e38-11ed-4130-020000000000"/>
                  <display value="mastectomie met huidreductie"/>
               </condition>
            </diagnosis>
            <hospitalization>
               <admitSource>
                  <coding>
                     <system value="http://snomed.info/sct"/>
                     <code value="264362003"/>
                     <display value="Home"/>
                  </coding>
               </admitSource>
               <dischargeDisposition>
                  <coding>
                     <system value="http://snomed.info/sct"/>
                     <code value="264362003"/>
                     <display value="Home"/>
                  </coding>
               </dischargeDisposition>
            </hospitalization>
         </Encounter>
      </resource>
      <search>
         <mode value="match"/>
      </search>
   </entry>
   <entry>
      <fullUrl value="urn:uuid:9e7dc435-3e38-11ed-4130-020000000000"/>
      <resource>
         <Encounter>
            <meta>
               <profile value="http://nictiz.nl/fhir/StructureDefinition/zib-Encounter"/>
            </meta>
            <text>
               <status value="extensions"/>
               <div xmlns="http://www.w3.org/1999/xhtml">
                  <table>
                     <caption>Contact. Subject: Maria Francisca M.F. Maria van 't Hoen Verheul. Status: gepland</caption>
                     <tbody>
                        <tr>
                           <th>Type contact</th>
                           <td>
                              <div>
                                 <span title="Emergency (EMER - v3/ActCode)">Emergency</span>
                              </div>
                           </td>
                        </tr>
                        <tr>
                           <th>Periode</th>
                           <td>${DATE, T, D, +2}T16:00:00+02:00 - ${DATE, T, D, +2}T17:00:00+02:00</td>
                        </tr>
                        <tr>
                           <th>Problem/Procedure</th>
                           <td>postoperatieve wondinfectie</td>
                        </tr>
                     </tbody>
                  </table>
               </div>
            </text>
            <status value="planned"/>
            <class>
               <extension url="http://nictiz.nl/fhir/StructureDefinition/code-specification">
                  <valueCodeableConcept>
                     <coding>
                        <system value="http://hl7.org/fhir/v3/ActCode"/>
                        <code value="EMER"/>
                        <display value="Emergency"/>
                     </coding>
                  </valueCodeableConcept>
               </extension>
               <system value="http://hl7.org/fhir/v3/ActCode"/>
               <code value="EMER"/>
               <display value="Emergency"/>
            </class>
            <subject>
               <reference value="urn:uuid:9e657b16-3e38-11ed-4130-020000000000"/>
               <display value="Maria Francisca M.F. Maria van 't Hoen Verheul"/>
            </subject>
            <period>
               <start value="${DATE, T, D, +2}T16:00:00+02:00"/>
               <end value="${DATE, T, D, +2}T17:00:00+02:00"/>
            </period>
            <diagnosis>
               <condition>
                  <reference value="urn:uuid:9e658182-3e38-11ed-4130-020000000000"/>
                  <display value="postoperatieve wondinfectie"/>
               </condition>
            </diagnosis>
            <hospitalization>
               <admitSource>
                  <coding>
                     <system value="http://snomed.info/sct"/>
                     <code value="264362003"/>
                     <display value="Home"/>
                  </coding>
               </admitSource>
            </hospitalization>
         </Encounter>
      </resource>
      <search>
         <mode value="match"/>
      </search>
   </entry>
   <entry>
      <fullUrl value="urn:uuid:9e7dc4a0-3e38-11ed-4130-020000000000"/>
      <resource>
         <Encounter>
            <meta>
               <profile value="http://nictiz.nl/fhir/StructureDefinition/zib-Encounter"/>
            </meta>
            <text>
               <status value="extensions"/>
               <div xmlns="http://www.w3.org/1999/xhtml">
                  <table>
                     <caption>Contact. Subject: Maria Francisca M.F. Maria van 't Hoen Verheul. Status: gepland</caption>
                     <tbody>
                        <tr>
                           <th>Type contact</th>
                           <td>
                              <div>
                                 <span title="Inpatient (IMP - v3/ActCode)">Inpatient</span>
                              </div>
                           </td>
                        </tr>
                        <tr>
                           <th>Periode</th>
                           <td>${DATE, T, D, +2}T17:00:00+02:00 - ${DATE, T, D, +3}T10:00:00+02:00</td>
                        </tr>
                        <tr>
                           <th>Problem/Procedure</th>
                           <td>incisie en drainage van diep abces</td>
                        </tr>
                        <tr>
                           <th>Participant</th>
                           <td>
                              <div>Antonius Franciscus A.F. Ton Zoomers || Chirurg</div>
                           </td>
                        </tr>
                     </tbody>
                  </table>
               </div>
            </text>
            <status value="planned"/>
            <class>
               <extension url="http://nictiz.nl/fhir/StructureDefinition/code-specification">
                  <valueCodeableConcept>
                     <coding>
                        <system value="http://hl7.org/fhir/v3/ActCode"/>
                        <code value="IMP"/>
                        <display value="Inpatient"/>
                     </coding>
                  </valueCodeableConcept>
               </extension>
               <system value="http://hl7.org/fhir/v3/ActCode"/>
               <code value="IMP"/>
               <display value="Inpatient"/>
            </class>
            <subject>
               <reference value="urn:uuid:9e657b16-3e38-11ed-4130-020000000000"/>
               <display value="Maria Francisca M.F. Maria van 't Hoen Verheul"/>
            </subject>
            <participant>
               <individual>
                  <extension url="http://nictiz.nl/fhir/StructureDefinition/practitionerrole-reference">
                     <valueReference>
                        <reference value="urn:uuid:9e6580c5-3e38-11ed-4130-020000000000"/>
                        <display value="Antonius Franciscus A.F. Ton Zoomers || Chirurg"/>
                     </valueReference>
                  </extension>
                  <reference value="urn:oid:2.16.840.1.113883.2.4.6.1.151515"/>
                  <display value="Antonius Franciscus A.F. Ton Zoomers"/>
               </individual>
            </participant>
            <period>
               <start value="${DATE, T, D, +2}T17:00:00+02:00"/>
               <end value="${DATE, T, D, +3}T10:00:00+02:00"/>
            </period>
            <diagnosis>
               <condition>
                  <reference value="urn:uuid:9e65822e-3e38-11ed-4130-020000000000"/>
                  <display value="incisie en drainage van diep abces"/>
               </condition>
            </diagnosis>
            <hospitalization>
               <dischargeDisposition>
                  <coding>
                     <system value="http://snomed.info/sct"/>
                     <code value="264362003"/>
                     <display value="Home"/>
                  </coding>
               </dischargeDisposition>
            </hospitalization>
         </Encounter>
      </resource>
      <search>
         <mode value="match"/>
      </search>
   </entry>
   <entry>
      <fullUrl value="urn:uuid:9e657b16-3e38-11ed-4130-020000000000"/>
      <resource>
         <Patient>
            <meta>
               <profile value="http://fhir.nl/fhir/StructureDefinition/nl-core-patient"/>
            </meta>
            <text>
               <status value="extensions"/>
               <div xmlns="http://www.w3.org/1999/xhtml">
                  <div>Id 999999072 (BSN), Maria Francisca M.F. van 't Hoen-Verheul (Maria), Vrouw, 16 april 1956, Meerling, <span title="Domestic partner (T - MaritalStatus)">Domestic partner</span>
                  </div>
                  <div>
                     <a href="tel:+316-10101010">+316-10101010</a> (Tel Mobiel), <a href="mailto:francisca@maria.org">francisca@maria.org</a> (E-mail Privé)</div>
                  <div>Steenstraat 143 A II, 6584YZ Molenhoek Mook en Middelaar, NL (officieel Privé (hoofd) Bezoek)</div>
               </div>
            </text>
            <identifier>
               <system value="http://fhir.nl/fhir/NamingSystem/bsn"/>
               <value value="999999072"/>
            </identifier>
            <name>
               <extension url="http://hl7.org/fhir/StructureDefinition/humanname-assembly-order">
                  <valueCode value="NL4"/>
               </extension>
               <family value="van 't Hoen-Verheul">
                  <extension url="http://hl7.org/fhir/StructureDefinition/humanname-own-prefix">
                     <valueString value="van 't"/>
                  </extension>
                  <extension url="http://hl7.org/fhir/StructureDefinition/humanname-own-name">
                     <valueString value="Hoen"/>
                  </extension>
                  <extension url="http://hl7.org/fhir/StructureDefinition/humanname-partner-name">
                     <valueString value="Verheul"/>
                  </extension>
               </family>
               <given value="Maria Francisca">
                  <extension url="http://hl7.org/fhir/StructureDefinition/iso21090-EN-qualifier">
                     <valueCode value="BR"/>
                  </extension>
               </given>
               <given value="M.F.">
                  <extension url="http://hl7.org/fhir/StructureDefinition/iso21090-EN-qualifier">
                     <valueCode value="IN"/>
                  </extension>
               </given>
               <given value="Maria">
                  <extension url="http://hl7.org/fhir/StructureDefinition/iso21090-EN-qualifier">
                     <valueCode value="CL"/>
                  </extension>
               </given>
            </name>
            <telecom>
               <extension url="http://nictiz.nl/fhir/StructureDefinition/zib-ContactInformation-TelecomType">
                  <valueCodeableConcept>
                     <coding>
                        <system value="http://hl7.org/fhir/v3/AddressUse"/>
                        <code value="MC"/>
                        <display value="Mobile Phone"/>
                     </coding>
                  </valueCodeableConcept>
               </extension>
               <system value="phone"/>
               <value value="+316-10101010"/>
               <use value="mobile"/>
            </telecom>
            <telecom>
               <system value="email"/>
               <value value="francisca@maria.org"/>
               <use value="home"/>
            </telecom>
            <gender value="female">
               <extension url="http://nictiz.nl/fhir/StructureDefinition/code-specification">
                  <valueCodeableConcept>
                     <coding>
                        <system value="http://hl7.org/fhir/v3/AdministrativeGender"/>
                        <code value="F"/>
                        <display value="Female"/>
                     </coding>
                  </valueCodeableConcept>
               </extension>
            </gender>
            <birthDate value="1956-04-16"/>
            <deceasedBoolean value="false"/>
            <address>
               <extension url="http://nictiz.nl/fhir/StructureDefinition/zib-AddressInformation-AddressType">
                  <valueCodeableConcept>
                     <coding>
                        <system value="http://hl7.org/fhir/v3/AddressUse"/>
                        <code value="HP"/>
                        <display value="Officieel adres"/>
                     </coding>
                  </valueCodeableConcept>
               </extension>
               <extension url="http://fhir.nl/fhir/StructureDefinition/nl-core-address-official">
                  <valueBoolean value="true"/>
               </extension>
               <use value="home"/>
               <type value="physical"/>
               <line value="Steenstraat 143 A II">
                  <extension url="http://hl7.org/fhir/StructureDefinition/iso21090-ADXP-streetName">
                     <valueString value="Steenstraat"/>
                  </extension>
                  <extension url="http://hl7.org/fhir/StructureDefinition/iso21090-ADXP-houseNumber">
                     <valueString value="143"/>
                  </extension>
                  <extension url="http://hl7.org/fhir/StructureDefinition/iso21090-ADXP-buildingNumberSuffix">
                     <valueString value="A"/>
                  </extension>
                  <extension url="http://hl7.org/fhir/StructureDefinition/iso21090-ADXP-buildingNumberSuffix">
                     <valueString value="II"/>
                  </extension>
               </line>
               <city value="Molenhoek"/>
               <district value="Mook en Middelaar"/>
               <postalCode value="6584YZ"/>
               <country value="NL">
                  <extension url="http://nictiz.nl/fhir/StructureDefinition/code-specification">
                     <valueCodeableConcept>
                        <coding>
                           <system value="urn:iso:std:iso:3166"/>
                           <code value="NL"/>
                           <display value="Nederland"/>
                        </coding>
                     </valueCodeableConcept>
                  </extension>
               </country>
            </address>
            <maritalStatus>
               <coding>
                  <system value="urn:oid:2.16.840.1.113883.5.2"/>
                  <code value="T"/>
                  <display value="Domestic partner"/>
               </coding>
            </maritalStatus>
            <multipleBirthBoolean value="true"/>
         </Patient>
      </resource>
      <search>
         <mode value="include"/>
      </search>
   </entry>
   <entry>
      <fullUrl value="urn:uuid:9e656d24-3e38-11ed-4130-020000000000"/>
      <resource>
         <Practitioner>
            <meta>
               <profile value="http://fhir.nl/fhir/StructureDefinition/nl-core-practitioner"/>
            </meta>
            <text>
               <status value="extensions"/>
               <div xmlns="http://www.w3.org/1999/xhtml">
                  <div/>
               </div>
            </text>
         </Practitioner>
      </resource>
      <search>
         <mode value="include"/>
      </search>
   </entry>
   <entry>
      <fullUrl value="urn:oid:2.16.840.1.113883.2.4.6.1.151515"/>
      <resource>
         <Practitioner>
            <meta>
               <profile value="http://fhir.nl/fhir/StructureDefinition/nl-core-practitioner"/>
            </meta>
            <text>
               <status value="extensions"/>
               <div xmlns="http://www.w3.org/1999/xhtml">
                  <div>Id 00151515 (AGB-Z), Antonius Franciscus A.F. Zoomers (Ton)</div>
                  <div>
                     <a href="tel:2769">2769</a> (Pager)</div>
               </div>
            </text>
            <identifier>
               <system value="http://fhir.nl/fhir/NamingSystem/agb-z"/>
               <value value="00151515"/>
            </identifier>
            <name>
               <extension url="http://hl7.org/fhir/StructureDefinition/humanname-assembly-order">
                  <valueCode value="NL1"/>
               </extension>
               <family value="Zoomers">
                  <extension url="http://hl7.org/fhir/StructureDefinition/humanname-own-name">
                     <valueString value="Zoomers"/>
                  </extension>
               </family>
               <given value="Antonius Franciscus">
                  <extension url="http://hl7.org/fhir/StructureDefinition/iso21090-EN-qualifier">
                     <valueCode value="BR"/>
                  </extension>
               </given>
               <given value="A.F.">
                  <extension url="http://hl7.org/fhir/StructureDefinition/iso21090-EN-qualifier">
                     <valueCode value="IN"/>
                  </extension>
               </given>
               <given value="Ton">
                  <extension url="http://hl7.org/fhir/StructureDefinition/iso21090-EN-qualifier">
                     <valueCode value="CL"/>
                  </extension>
               </given>
            </name>
            <telecom>
               <extension url="http://nictiz.nl/fhir/StructureDefinition/zib-ContactInformation-TelecomType">
                  <valueCodeableConcept>
                     <coding>
                        <system value="http://hl7.org/fhir/v3/AddressUse"/>
                        <code value="PG"/>
                        <display value="Pager"/>
                     </coding>
                  </valueCodeableConcept>
               </extension>
               <system value="pager"/>
               <value value="2769"/>
            </telecom>
         </Practitioner>
      </resource>
      <search>
         <mode value="include"/>
      </search>
   </entry>
   <entry>
      <fullUrl value="urn:oid:2.16.840.1.113883.2.4.6.1.141414"/>
      <resource>
         <Practitioner>
            <meta>
               <profile value="http://fhir.nl/fhir/StructureDefinition/nl-core-practitioner"/>
            </meta>
            <text>
               <status value="extensions"/>
               <div xmlns="http://www.w3.org/1999/xhtml">
                  <div>Id 00141414 (AGB-Z), Johanna J. de Bruin (Joke)</div>
                  <div>
                     <a href="tel:2768">2768</a> (Pager)</div>
                  <div>, NL (WP)</div>
               </div>
            </text>
            <identifier>
               <system value="http://fhir.nl/fhir/NamingSystem/agb-z"/>
               <value value="00141414"/>
            </identifier>
            <name>
               <extension url="http://hl7.org/fhir/StructureDefinition/humanname-assembly-order">
                  <valueCode value="UNK"/>
               </extension>
               <family value="de Bruin">
                  <extension url="http://hl7.org/fhir/StructureDefinition/humanname-own-prefix">
                     <valueString value="de"/>
                  </extension>
                  <extension url="http://hl7.org/fhir/StructureDefinition/humanname-own-name">
                     <valueString value="Bruin"/>
                  </extension>
               </family>
               <given value="Johanna">
                  <extension url="http://hl7.org/fhir/StructureDefinition/iso21090-EN-qualifier">
                     <valueCode value="BR"/>
                  </extension>
               </given>
               <given value="J.">
                  <extension url="http://hl7.org/fhir/StructureDefinition/iso21090-EN-qualifier">
                     <valueCode value="IN"/>
                  </extension>
               </given>
               <given value="Joke">
                  <extension url="http://hl7.org/fhir/StructureDefinition/iso21090-EN-qualifier">
                     <valueCode value="CL"/>
                  </extension>
               </given>
            </name>
            <telecom>
               <extension url="http://nictiz.nl/fhir/StructureDefinition/zib-ContactInformation-TelecomType">
                  <valueCodeableConcept>
                     <coding>
                        <system value="http://hl7.org/fhir/v3/AddressUse"/>
                        <code value="PG"/>
                        <display value="Pager"/>
                     </coding>
                  </valueCodeableConcept>
               </extension>
               <system value="pager"/>
               <value value="2768"/>
            </telecom>
            <address>
               <extension url="http://nictiz.nl/fhir/StructureDefinition/zib-AddressInformation-AddressType">
                  <valueCodeableConcept>
                     <coding>
                        <system value="http://hl7.org/fhir/v3/AddressUse"/>
                        <code value="WP"/>
                        <display value="Werkadres"/>
                     </coding>
                  </valueCodeableConcept>
               </extension>
               <use value="work"/>
               <country value="NL">
                  <extension url="http://nictiz.nl/fhir/StructureDefinition/code-specification">
                     <valueCodeableConcept>
                        <coding>
                           <system value="urn:iso:std:iso:3166"/>
                           <code value="NL"/>
                           <display value="Nederland"/>
                        </coding>
                     </valueCodeableConcept>
                  </extension>
               </country>
            </address>
         </Practitioner>
      </resource>
      <search>
         <mode value="include"/>
      </search>
   </entry>
   <entry>
      <fullUrl value="urn:uuid:9e657b40-3e38-11ed-4130-020000000000"/>
      <resource>
         <Organization>
            <meta>
               <profile value="http://fhir.nl/fhir/StructureDefinition/nl-core-organization"/>
            </meta>
            <text>
               <status value="extensions"/>
               <div xmlns="http://www.w3.org/1999/xhtml">
                  <table>
                     <caption>Organisatie. </caption>
                     <tbody>
                        <tr>
                           <th>Naam</th>
                           <td/>
                        </tr>
                     </tbody>
                  </table>
               </div>
            </text>
         </Organization>
      </resource>
      <search>
         <mode value="include"/>
      </search>
   </entry>
   <entry>
      <fullUrl value="urn:uuid:9e6580c3-3e38-11ed-4130-020000000000"/>
      <resource>
         <Organization>
            <meta>
               <profile value="http://fhir.nl/fhir/StructureDefinition/nl-core-organization"/>
            </meta>
            <text>
               <status value="extensions"/>
               <div xmlns="http://www.w3.org/1999/xhtml">
                  <table>
                     <caption>Organisatie. </caption>
                     <tbody>
                        <tr>
                           <th>Naam</th>
                           <td/>
                        </tr>
                     </tbody>
                  </table>
               </div>
            </text>
         </Organization>
      </resource>
      <search>
         <mode value="include"/>
      </search>
   </entry>
   <entry>
      <fullUrl value="urn:uuid:9e657b3e-3e38-11ed-4130-020000000000"/>
      <resource>
         <PractitionerRole>
            <meta>
               <profile value="http://fhir.nl/fhir/StructureDefinition/nl-core-practitionerrole"/>
            </meta>
            <text>
               <status value="extensions"/>
               <div xmlns="http://www.w3.org/1999/xhtml">
                  <table>
                     <caption>Zorgverlenerrol. </caption>
                     <tbody>
                        <tr>
                           <th>Zorgverlener</th>
                           <td>
                              <div>urn:uuid:9e656d24-3e38-11ed-4130-020000000000</div>
                           </td>
                        </tr>
                     </tbody>
                  </table>
               </div>
            </text>
            <practitioner>
               <reference value="urn:uuid:9e656d24-3e38-11ed-4130-020000000000"/>
            </practitioner>
         </PractitionerRole>
      </resource>
      <search>
         <mode value="include"/>
      </search>
   </entry>
   <entry>
      <fullUrl value="urn:uuid:9e6580c5-3e38-11ed-4130-020000000000"/>
      <resource>
         <PractitionerRole>
            <meta>
               <profile value="http://fhir.nl/fhir/StructureDefinition/nl-core-practitionerrole"/>
            </meta>
            <text>
               <status value="extensions"/>
               <div xmlns="http://www.w3.org/1999/xhtml">
                  <table>
                     <caption>Zorgverlenerrol. </caption>
                     <tbody>
                        <tr>
                           <th>Zorgverlener</th>
                           <td>
                              <div>Antonius Franciscus A.F. Ton Zoomers</div>
                              <div>Organisatie informatie: naam eigen ziekenhuis</div>
                           </td>
                        </tr>
                        <tr>
                           <th>Specialisme</th>
                           <td>
                              <span title="Chirurg (01.014 - http://fhir.nl/fhir/NamingSystem/uzi-rolcode)">Chirurg</span>
                           </td>
                        </tr>
                        <tr>
                           <th>Contactgegevens</th>
                           <td>
                              <a href="tel:2769">2769</a> (Pager)</td>
                        </tr>
                     </tbody>
                  </table>
               </div>
            </text>
            <practitioner>
               <reference value="urn:oid:2.16.840.1.113883.2.4.6.1.151515"/>
               <display value="Antonius Franciscus A.F. Ton Zoomers"/>
            </practitioner>
            <organization>
               <reference value="urn:uuid:9e6580c3-3e38-11ed-4130-020000000000"/>
               <display value="Organisatie informatie: naam eigen ziekenhuis"/>
            </organization>
            <specialty>
               <coding>
                  <system value="http://fhir.nl/fhir/NamingSystem/uzi-rolcode"/>
                  <code value="01.014"/>
                  <display value="Chirurg"/>
               </coding>
            </specialty>
            <telecom>
               <extension url="http://nictiz.nl/fhir/StructureDefinition/zib-ContactInformation-TelecomType">
                  <valueCodeableConcept>
                     <coding>
                        <system value="http://hl7.org/fhir/v3/AddressUse"/>
                        <code value="PG"/>
                        <display value="Pager"/>
                     </coding>
                  </valueCodeableConcept>
               </extension>
               <system value="pager"/>
               <value value="2769"/>
            </telecom>
         </PractitionerRole>
      </resource>
      <search>
         <mode value="include"/>
      </search>
   </entry>
   <entry>
      <fullUrl value="urn:uuid:9e658106-3e38-11ed-4130-020000000000"/>
      <resource>
         <PractitionerRole>
            <meta>
               <profile value="http://fhir.nl/fhir/StructureDefinition/nl-core-practitionerrole"/>
            </meta>
            <text>
               <status value="extensions"/>
               <div xmlns="http://www.w3.org/1999/xhtml">
                  <table>
                     <caption>Zorgverlenerrol. </caption>
                     <tbody>
                        <tr>
                           <th>Zorgverlener</th>
                           <td>
                              <div>Johanna J. Joke de Bruin</div>
                              <div>Organisatie informatie: naam eigen ziekenhuis</div>
                           </td>
                        </tr>
                        <tr>
                           <th>Specialisme</th>
                           <td>
                              <span title="Internist (01.016 - http://fhir.nl/fhir/NamingSystem/uzi-rolcode)">Internist</span>
                           </td>
                        </tr>
                        <tr>
                           <th>Contactgegevens</th>
                           <td>
                              <a href="tel:2768">2768</a> (Pager)</td>
                        </tr>
                     </tbody>
                  </table>
               </div>
            </text>
            <practitioner>
               <reference value="urn:oid:2.16.840.1.113883.2.4.6.1.141414"/>
               <display value="Johanna J. Joke de Bruin"/>
            </practitioner>
            <organization>
               <reference value="urn:uuid:9e6580c3-3e38-11ed-4130-020000000000"/>
               <display value="Organisatie informatie: naam eigen ziekenhuis"/>
            </organization>
            <specialty>
               <coding>
                  <system value="http://fhir.nl/fhir/NamingSystem/uzi-rolcode"/>
                  <code value="01.016"/>
                  <display value="Internist"/>
               </coding>
            </specialty>
            <telecom>
               <extension url="http://nictiz.nl/fhir/StructureDefinition/zib-ContactInformation-TelecomType">
                  <valueCodeableConcept>
                     <coding>
                        <system value="http://hl7.org/fhir/v3/AddressUse"/>
                        <code value="PG"/>
                        <display value="Pager"/>
                     </coding>
                  </valueCodeableConcept>
               </extension>
               <system value="pager"/>
               <value value="2768"/>
            </telecom>
         </PractitionerRole>
      </resource>
      <search>
         <mode value="include"/>
      </search>
   </entry>
   <entry>
      <fullUrl value="urn:uuid:9e65808e-3e38-11ed-4130-020000000000"/>
      <resource>
         <Condition>
            <meta>
               <profile value="http://nictiz.nl/fhir/StructureDefinition/zib-Problem"/>
            </meta>
            <text>
               <status value="extensions"/>
               <div xmlns="http://www.w3.org/1999/xhtml">
                  <table>
                     <caption>Aandoening. Subject: Maria Francisca M.F. Maria van 't Hoen Verheul. Categorie: <span title="Diagnosis (282291009 - SNOMED CT)">Diagnosis</span>, Status: actief / bevestigd</caption>
                     <tbody>
                        <tr>
                           <th>Code</th>
                           <td>
                              <span title="maligne neoplasma van mamma (254837009 - SNOMED CT)">maligne neoplasma van mamma</span>
                           </td>
                        </tr>
                        <tr>
                           <th>Eerste symptomen</th>
                           <td>28 maart 2019</td>
                        </tr>
                     </tbody>
                  </table>
               </div>
            </text>
            <clinicalStatus value="active">
               <extension url="http://nictiz.nl/fhir/StructureDefinition/code-specification">
                  <valueCodeableConcept>
                     <coding>
                        <system value="http://snomed.info/sct"/>
                        <code value="55561003"/>
                        <display value="Active"/>
                     </coding>
                  </valueCodeableConcept>
               </extension>
            </clinicalStatus>
            <verificationStatus value="confirmed">
               <extension url="http://nictiz.nl/fhir/StructureDefinition/code-specification">
                  <valueCodeableConcept>
                     <coding>
                        <system value="http://snomed.info/sct"/>
                        <code value="410605003"/>
                        <display value="Confirmed present"/>
                     </coding>
                  </valueCodeableConcept>
               </extension>
            </verificationStatus>
            <category>
               <coding>
                  <system value="http://snomed.info/sct"/>
                  <code value="282291009"/>
                  <display value="Diagnosis"/>
               </coding>
            </category>
            <code>
               <coding>
                  <system value="http://snomed.info/sct"/>
                  <code value="254837009"/>
                  <display value="maligne neoplasma van mamma"/>
               </coding>
            </code>
            <bodySite>
               <extension url="http://nictiz.nl/fhir/StructureDefinition/BodySite-Qualifier">
                  <valueCodeableConcept>
                     <coding>
                        <system value="http://snomed.info/sct"/>
                        <code value="24028007"/>
                        <display value="Right"/>
                     </coding>
                  </valueCodeableConcept>
               </extension>
               <coding>
                  <system value="http://snomed.info/sct"/>
                  <code value="73056007"/>
                  <display value="structuur van rechter mamma (lichaamsstructuur)"/>
               </coding>
            </bodySite>
            <subject>
               <reference value="urn:uuid:9e657b16-3e38-11ed-4130-020000000000"/>
               <display value="Maria Francisca M.F. Maria van 't Hoen Verheul"/>
            </subject>
            <onsetDateTime value="2019-03-28"/>
         </Condition>
      </resource>
      <search>
         <mode value="include"/>
      </search>
   </entry>
   <entry>
      <fullUrl value="urn:uuid:9e658182-3e38-11ed-4130-020000000000"/>
      <resource>
         <Condition>
            <meta>
               <profile value="http://nictiz.nl/fhir/StructureDefinition/zib-Problem"/>
            </meta>
            <text>
               <status value="extensions"/>
               <div xmlns="http://www.w3.org/1999/xhtml">
                  <table>
                     <caption>Aandoening. Subject: Maria Francisca M.F. Maria van 't Hoen Verheul. Categorie: <span title="Complication (116223007 - SNOMED CT)">Complication</span>, Status: inactief</caption>
                     <tbody>
                        <tr>
                           <th>Code</th>
                           <td>
                              <span title="postoperatieve wondinfectie (58126003 - SNOMED CT)">postoperatieve wondinfectie</span>
                           </td>
                        </tr>
                        <tr>
                           <th>Eerste symptomen</th>
                           <td>${DATE, T, D, +2}</td>
                        </tr>
                        <tr>
                           <th>Oplossing/remissie</th>
                           <td>${DATE, T, D, +3}</td>
                        </tr>
                     </tbody>
                  </table>
               </div>
            </text>
            <clinicalStatus value="inactive">
               <extension url="http://nictiz.nl/fhir/StructureDefinition/code-specification">
                  <valueCodeableConcept>
                     <coding>
                        <system value="http://snomed.info/sct"/>
                        <code value="73425007"/>
                        <display value="Inactive"/>
                     </coding>
                  </valueCodeableConcept>
               </extension>
            </clinicalStatus>
            <category>
               <coding>
                  <system value="http://snomed.info/sct"/>
                  <code value="116223007"/>
                  <display value="Complication"/>
               </coding>
            </category>
            <code>
               <coding>
                  <system value="http://snomed.info/sct"/>
                  <code value="58126003"/>
                  <display value="postoperatieve wondinfectie"/>
               </coding>
            </code>
            <bodySite>
               <extension url="http://nictiz.nl/fhir/StructureDefinition/BodySite-Qualifier">
                  <valueCodeableConcept>
                     <coding>
                        <system value="http://snomed.info/sct"/>
                        <code value="24028007"/>
                        <display value="Right"/>
                     </coding>
                  </valueCodeableConcept>
               </extension>
               <coding>
                  <system value="http://snomed.info/sct"/>
                  <code value="73056007"/>
                  <display value="structuur van rechter mamma (lichaamsstructuur)"/>
               </coding>
            </bodySite>
            <subject>
               <reference value="urn:uuid:9e657b16-3e38-11ed-4130-020000000000"/>
               <display value="Maria Francisca M.F. Maria van 't Hoen Verheul"/>
            </subject>
            <onsetDateTime value="${DATE, T, D, +2}"/>
            <abatementDateTime value="${DATE, T, D, +3}"/>
         </Condition>
      </resource>
      <search>
         <mode value="include"/>
      </search>
   </entry>
   <entry>
      <fullUrl value="urn:uuid:9e657b45-3e38-11ed-4130-020000000000"/>
      <resource>
         <Procedure>
            <meta>
               <profile value="http://nictiz.nl/fhir/StructureDefinition/zib-Procedure"/>
            </meta>
            <text>
               <status value="extensions"/>
               <div xmlns="http://www.w3.org/1999/xhtml">
                  <table>
                     <caption>Verrichting. Subject: Maria Francisca M.F. Maria van 't Hoen Verheul. Categorie: , Status: is bezig<span style="display: block;">Uitvoerende: Antonius Franciscus A.F. Ton Zoomers || Chirurg</span>
                     </caption>
                     <tbody>
                        <tr>
                           <td>
                              <span title="mastectomie met huidreductie (172043006 - SNOMED CT)">mastectomie met huidreductie</span>
                           </td>
                           <td>
                              <div>Uitgevoerd: ${DATE, T, D, +1}T10:00:00+02:00 - ${DATE, T, D, +1}T12:00:00+02:00</div>
                           </td>
                        </tr>
                        <tr>
                           <th>Deel van lichaam</th>
                           <td>
                              <span title="structuur van mamma (76752008 - SNOMED CT)">structuur van mamma</span>
                              <span title="Right (24028007 - SNOMED CT)">Right</span>
                           </td>
                        </tr>
                        <tr>
                           <th>Reden</th>
                           <td>maligne neoplasma van mamma</td>
                        </tr>
                     </tbody>
                  </table>
               </div>
            </text>
            <basedOn>
               <reference value="urn:uuid:9e657b45-3e38-11ed-4130-020000000000"/>
               <display value="mastectomie met huidreductie"/>
            </basedOn>
            <status value="in-progress"/>
            <category>
               <extension url="http://hl7.org/fhir/StructureDefinition/data-absent-reason">
                  <valueCode value="unknown"/>
               </extension>
            </category>
            <code>
               <coding>
                  <system value="http://snomed.info/sct"/>
                  <code value="172043006"/>
                  <display value="mastectomie met huidreductie"/>
               </coding>
            </code>
            <subject>
               <reference value="urn:uuid:9e657b16-3e38-11ed-4130-020000000000"/>
               <display value="Maria Francisca M.F. Maria van 't Hoen Verheul"/>
            </subject>
            <performedPeriod>
               <start value="${DATE, T, D, +1}T10:00:00+02:00"/>
               <end value="${DATE, T, D, +1}T12:00:00+02:00"/>
            </performedPeriod>
            <performer>
               <actor>
                  <extension url="http://nictiz.nl/fhir/StructureDefinition/practitionerrole-reference">
                     <valueReference>
                        <reference value="urn:uuid:9e6580c5-3e38-11ed-4130-020000000000"/>
                        <display value="Antonius Franciscus A.F. Ton Zoomers || Chirurg"/>
                     </valueReference>
                  </extension>
                  <reference value="urn:oid:2.16.840.1.113883.2.4.6.1.151515"/>
                  <display value="Antonius Franciscus A.F. Ton Zoomers"/>
               </actor>
            </performer>
            <reasonReference>
               <reference value="urn:uuid:9e65808e-3e38-11ed-4130-020000000000"/>
               <display value="maligne neoplasma van mamma"/>
            </reasonReference>
            <bodySite>
               <extension url="http://nictiz.nl/fhir/StructureDefinition/BodySite-Qualifier">
                  <valueCodeableConcept>
                     <coding>
                        <system value="http://snomed.info/sct"/>
                        <code value="24028007"/>
                        <display value="Right"/>
                     </coding>
                  </valueCodeableConcept>
               </extension>
               <coding>
                  <system value="http://snomed.info/sct"/>
                  <code value="76752008"/>
                  <display value="structuur van mamma"/>
               </coding>
            </bodySite>
         </Procedure>
      </resource>
      <search>
         <mode value="include"/>
      </search>
   </entry>
   <entry>
      <fullUrl value="urn:uuid:9e65822e-3e38-11ed-4130-020000000000"/>
      <resource>
         <Procedure>
            <meta>
               <profile value="http://nictiz.nl/fhir/StructureDefinition/zib-Procedure"/>
            </meta>
            <text>
               <status value="extensions"/>
               <div xmlns="http://www.w3.org/1999/xhtml">
                  <table>
                     <caption>Verrichting. Subject: Maria Francisca M.F. Maria van 't Hoen Verheul. Categorie: , Status: is bezig</caption>
                     <tbody>
                        <tr>
                           <td>
                              <span title="incisie en drainage van diep abces (103751000146104 - SNOMED CT)">incisie en drainage van diep abces</span>
                           </td>
                           <td>
                              <div>Uitgevoerd: Vanaf ${DATE, T, D, +2}T17:45:00+02:00</div>
                           </td>
                        </tr>
                        <tr>
                           <th>Deel van lichaam</th>
                           <td>
                              <span title="structuur van mamma (76752008 - SNOMED CT)">structuur van mamma</span>
                              <span title="Right (24028007 - SNOMED CT)">Right</span>
                           </td>
                        </tr>
                        <tr>
                           <th>Reden</th>
                           <td>postoperatieve wondinfectie</td>
                        </tr>
                     </tbody>
                  </table>
               </div>
            </text>
            <status value="in-progress"/>
            <category>
               <extension url="http://hl7.org/fhir/StructureDefinition/data-absent-reason">
                  <valueCode value="unknown"/>
               </extension>
            </category>
            <code>
               <coding>
                  <system value="http://snomed.info/sct"/>
                  <code value="103751000146104"/>
                  <display value="incisie en drainage van diep abces"/>
               </coding>
            </code>
            <subject>
               <reference value="urn:uuid:9e657b16-3e38-11ed-4130-020000000000"/>
               <display value="Maria Francisca M.F. Maria van 't Hoen Verheul"/>
            </subject>
            <performedPeriod>
               <start value="${DATE, T, D, +2}T17:45:00+02:00"/>
            </performedPeriod>
            <reasonReference>
               <reference value="urn:uuid:9e658182-3e38-11ed-4130-020000000000"/>
               <display value="postoperatieve wondinfectie"/>
            </reasonReference>
            <bodySite>
               <extension url="http://nictiz.nl/fhir/StructureDefinition/BodySite-Qualifier">
                  <valueCodeableConcept>
                     <coding>
                        <system value="http://snomed.info/sct"/>
                        <code value="24028007"/>
                        <display value="Right"/>
                     </coding>
                  </valueCodeableConcept>
               </extension>
               <coding>
                  <system value="http://snomed.info/sct"/>
                  <code value="76752008"/>
                  <display value="structuur van mamma"/>
               </coding>
            </bodySite>
         </Procedure>
      </resource>
      <search>
         <mode value="include"/>
      </search>
   </entry>
   <entry>
      <fullUrl value="urn:uuid:9e657b45-3e38-11ed-4130-020000000000"/>
      <resource>
         <ProcedureRequest>
            <meta>
               <profile value="http://nictiz.nl/fhir/StructureDefinition/zib-ProcedureRequest"/>
            </meta>
            <text>
               <status value="extensions"/>
               <div xmlns="http://www.w3.org/1999/xhtml">
                  <table>
                     <caption>Verrichtingaanvraag. Subject: Maria Francisca M.F. Maria van 't Hoen Verheul. Status: actief<span style="display: block;">Intentie: plan</span>
                        <span style="display: block;">Aangevraagd door: Johanna J. Joke de Bruin || Internist</span>
                     </caption>
                     <tbody>
                        <tr>
                           <td>
                              <span title="mastectomie met huidreductie (172043006 - SNOMED CT)">mastectomie met huidreductie</span>
                           </td>
                           <td>
                              <div>Wanneer: ${DATE, T, D, +1}T10:00:00+02:00 - ${DATE, T, D, +1}T12:00:00+02:00</div>
                           </td>
                        </tr>
                        <tr>
                           <th>Beoogde uitvoerende</th>
                           <td>
                              <div>Antonius Franciscus A.F. Ton Zoomers || Chirurg</div>
                           </td>
                        </tr>
                        <tr>
                           <th>Reden</th>
                           <td>maligne neoplasma van mamma</td>
                        </tr>
                        <tr>
                           <td>Deel van lichaam</td>
                           <td>
                              <span title="structuur van mamma (76752008 - SNOMED CT)">structuur van mamma</span>
                              <span title="Right (24028007 - SNOMED CT)">Right</span>
                           </td>
                        </tr>
                     </tbody>
                  </table>
               </div>
            </text>
            <status value="active"/>
            <intent value="plan"/>
            <code>
               <coding>
                  <system value="http://snomed.info/sct"/>
                  <code value="172043006"/>
                  <display value="mastectomie met huidreductie"/>
               </coding>
            </code>
            <subject>
               <reference value="urn:uuid:9e657b16-3e38-11ed-4130-020000000000"/>
               <display value="Maria Francisca M.F. Maria van 't Hoen Verheul"/>
            </subject>
            <occurrencePeriod>
               <start value="${DATE, T, D, +1}T10:00:00+02:00"/>
               <end value="${DATE, T, D, +1}T12:00:00+02:00"/>
            </occurrencePeriod>
            <requester>
               <agent>
                  <extension url="http://nictiz.nl/fhir/StructureDefinition/practitionerrole-reference">
                     <valueReference>
                        <reference value="urn:uuid:9e658106-3e38-11ed-4130-020000000000"/>
                        <display value="Johanna J. Joke de Bruin || Internist"/>
                     </valueReference>
                  </extension>
                  <reference value="urn:oid:2.16.840.1.113883.2.4.6.1.141414"/>
                  <display value="Johanna J. Joke de Bruin"/>
               </agent>
            </requester>
            <performer>
               <extension url="http://nictiz.nl/fhir/StructureDefinition/practitionerrole-reference">
                  <valueReference>
                     <reference value="urn:uuid:9e6580c5-3e38-11ed-4130-020000000000"/>
                     <display value="Antonius Franciscus A.F. Ton Zoomers || Chirurg"/>
                  </valueReference>
               </extension>
               <reference value="urn:oid:2.16.840.1.113883.2.4.6.1.151515"/>
               <display value="Antonius Franciscus A.F. Ton Zoomers"/>
            </performer>
            <reasonReference>
               <reference value="urn:uuid:9e65808e-3e38-11ed-4130-020000000000"/>
               <display value="maligne neoplasma van mamma"/>
            </reasonReference>
            <bodySite>
               <extension url="http://nictiz.nl/fhir/StructureDefinition/BodySite-Qualifier">
                  <valueCodeableConcept>
                     <coding>
                        <system value="http://snomed.info/sct"/>
                        <code value="24028007"/>
                        <display value="Right"/>
                     </coding>
                  </valueCodeableConcept>
               </extension>
               <coding>
                  <system value="http://snomed.info/sct"/>
                  <code value="76752008"/>
                  <display value="structuur van mamma"/>
               </coding>
            </bodySite>
         </ProcedureRequest>
      </resource>
      <search>
         <mode value="include"/>
      </search>
   </entry>
   <entry>
      <fullUrl value="urn:uuid:9e65822e-3e38-11ed-4130-020000000000"/>
      <resource>
         <ProcedureRequest>
            <meta>
               <profile value="http://nictiz.nl/fhir/StructureDefinition/zib-ProcedureRequest"/>
            </meta>
            <text>
               <status value="extensions"/>
               <div xmlns="http://www.w3.org/1999/xhtml">
                  <table>
                     <caption>Verrichtingaanvraag. Subject: Maria Francisca M.F. Maria van 't Hoen Verheul. Status: actief<span style="display: block;">Intentie: plan</span>
                     </caption>
                     <tbody>
                        <tr>
                           <td>
                              <span title="incisie en drainage van diep abces (103751000146104 - SNOMED CT)">incisie en drainage van diep abces</span>
                           </td>
                           <td>
                              <div>Wanneer: Vanaf ${DATE, T, D, +2}T17:45:00+02:00</div>
                           </td>
                        </tr>
                        <tr>
                           <th>Reden</th>
                           <td>postoperatieve wondinfectie</td>
                        </tr>
                        <tr>
                           <td>Deel van lichaam</td>
                           <td>
                              <span title="structuur van mamma (76752008 - SNOMED CT)">structuur van mamma</span>
                              <span title="Right (24028007 - SNOMED CT)">Right</span>
                           </td>
                        </tr>
                     </tbody>
                  </table>
               </div>
            </text>
            <status value="active"/>
            <intent value="plan"/>
            <code>
               <coding>
                  <system value="http://snomed.info/sct"/>
                  <code value="103751000146104"/>
                  <display value="incisie en drainage van diep abces"/>
               </coding>
            </code>
            <subject>
               <reference value="urn:uuid:9e657b16-3e38-11ed-4130-020000000000"/>
               <display value="Maria Francisca M.F. Maria van 't Hoen Verheul"/>
            </subject>
            <occurrencePeriod>
               <start value="${DATE, T, D, +2}T17:45:00+02:00"/>
            </occurrencePeriod>
            <reasonReference>
               <reference value="urn:uuid:9e658182-3e38-11ed-4130-020000000000"/>
               <display value="postoperatieve wondinfectie"/>
            </reasonReference>
            <bodySite>
               <extension url="http://nictiz.nl/fhir/StructureDefinition/BodySite-Qualifier">
                  <valueCodeableConcept>
                     <coding>
                        <system value="http://snomed.info/sct"/>
                        <code value="24028007"/>
                        <display value="Right"/>
                     </coding>
                  </valueCodeableConcept>
               </extension>
               <coding>
                  <system value="http://snomed.info/sct"/>
                  <code value="76752008"/>
                  <display value="structuur van mamma"/>
               </coding>
            </bodySite>
         </ProcedureRequest>
      </resource>
      <search>
         <mode value="include"/>
      </search>
   </entry>
</Bundle>
