<?xml-model href="http://hl7.org/fhir/STU3/bundle.sch" type="application/xml" schematypens="http://purl.oclc.org/dsdl/schematron"?><Bundle xmlns="http://hl7.org/fhir"
        xmlns:xsi="http://www.w3.org/2001/XMLSchema-instance"
        xsi:schemaLocation="http://hl7.org/fhir http://hl7.org/fhir/STU3/fhir-all.xsd">
   <id value="64716123-37e4-11ed-1855-020000000000"/>
   <type value="searchset"/>
   <total value="4"/>
   <entry>
      <fullUrl value="urn:uuid:64716126-37e4-11ed-1855-020000000000"/>
      <resource>
         <Immunization>
            <meta>
               <profile value="http://nictiz.nl/fhir/StructureDefinition/zib-Vaccination"/>
            </meta>
            <text>
               <status value="extensions"/>
               <div xmlns="http://www.w3.org/1999/xhtml">
                  <table>
                     <caption>Vaccinatie. Patiënt: Dennis D. Dennis Janse. Status: voltooid</caption>
                     <tfoot>
                        <tr>
                           <td colspan="2">Gebeten door een hond</td>
                        </tr>
                     </tfoot>
                     <tbody>
                        <tr>
                           <th>
                              <span title="Tetanusvaccin (J07AM01 - WHO ATC)">Tetanusvaccin</span>
                           </th>
                           <td>
                              <div>Toegediend: ja (3 april 2019)</div>
                              <div>Gemeld door uitvoerende: nee</div>
                           </td>
                        </tr>
                        <tr>
                           <th>Vaccine Details</th>
                           <td>
                              <div>Dosering: 2 ml</div>
                           </td>
                        </tr>
                     </tbody>
                  </table>
               </div>
            </text>
            <status value="completed"/>
            <notGiven value="false"/>
            <vaccineCode>
               <coding>
                  <system value="urn:oid:2.16.840.1.113883.6.73"/>
                  <code value="J07AM01"/>
                  <display value="Tetanusvaccin"/>
               </coding>
            </vaccineCode>
            <patient>
               <reference value="urn:uuid:64717536-37e4-11ed-1855-020000000000"/>
               <display value="Dennis D. Dennis Janse"/>
            </patient>
            <date value="2019-04-03"/>
            <primarySource value="false"/>
            <doseQuantity>
               <value value="2"/>
               <unit value="ml"/>
               <system value="http://unitsofmeasure.org"/>
               <code value="ml"/>
            </doseQuantity>
            <note>
               <text value="Gebeten door een hond"/>
            </note>
         </Immunization>
      </resource>
      <search>
         <mode value="match"/>
      </search>
   </entry>
   <entry>
      <fullUrl value="urn:uuid:64716126-37e4-11ed-1855-020000000000"/>
      <resource>
         <ImmunizationRecommendation>
            <meta>
               <profile value="http://nictiz.nl/fhir/StructureDefinition/zib-VaccinationRecommendation"/>
            </meta>
            <text>
               <status value="extensions"/>
               <div xmlns="http://www.w3.org/1999/xhtml">
                  <table>
                     <caption>Vaccinatieschema. Patiënt: Dennis D. Dennis Janse. </caption>
                     <tbody>
                        <tr>
                           <th>Gemaakt: 3 april 2020. Status: <span title="Due (due - immunization-recommendation-status)">Due</span>
                              <div>
                                 <span title="Tetanusvaccin (J07AM01 - WHO ATC)">Tetanusvaccin</span>
                              </div>
                           </th>
                           <td/>
                        </tr>
                     </tbody>
                  </table>
               </div>
            </text>
            <patient>
               <reference value="urn:uuid:64717536-37e4-11ed-1855-020000000000"/>
               <display value="Dennis D. Dennis Janse"/>
            </patient>
            <recommendation>
               <date value="2020-04-03"/>
               <vaccineCode>
                  <coding>
                     <system value="urn:oid:2.16.840.1.113883.6.73"/>
                     <code value="J07AM01"/>
                     <display value="Tetanusvaccin"/>
                  </coding>
               </vaccineCode>
               <forecastStatus>
                  <coding>
                     <system value="http://hl7.org/fhir/immunization-recommendation-status"/>
                     <code value="due"/>
                     <display value="Due"/>
                  </coding>
               </forecastStatus>
            </recommendation>
         </ImmunizationRecommendation>
      </resource>
      <search>
         <mode value="match"/>
      </search>
   </entry>
   <entry>
      <fullUrl value="urn:uuid:64717587-37e4-11ed-1855-020000000000"/>
      <resource>
         <Immunization>
            <meta>
               <profile value="http://nictiz.nl/fhir/StructureDefinition/zib-Vaccination"/>
            </meta>
            <text>
               <status value="extensions"/>
               <div xmlns="http://www.w3.org/1999/xhtml">
                  <table>
                     <caption>Vaccinatie. Patiënt: Dennis D. Dennis Janse. Status: voltooid</caption>
                     <tfoot>
                        <tr>
                           <td colspan="2">Reis door Indonesië</td>
                        </tr>
                     </tfoot>
                     <tbody>
                        <tr>
                           <th>
                              <span title="Hepatitis A+B-vaccin (J07BC20 - WHO ATC)">Hepatitis A+B-vaccin</span>
                           </th>
                           <td>
                              <div>Toegediend: ja (2 maart 2015)</div>
                              <div>Gemeld door uitvoerende: nee</div>
                           </td>
                        </tr>
                        <tr>
                           <th>Vaccine Details</th>
                           <td>
                              <div>Dosering: 1 ml</div>
                           </td>
                        </tr>
                     </tbody>
                  </table>
               </div>
            </text>
            <status value="completed"/>
            <notGiven value="false"/>
            <vaccineCode>
               <coding>
                  <system value="urn:oid:2.16.840.1.113883.6.73"/>
                  <code value="J07BC20"/>
                  <display value="Hepatitis A+B-vaccin"/>
               </coding>
            </vaccineCode>
            <patient>
               <reference value="urn:uuid:64717536-37e4-11ed-1855-020000000000"/>
               <display value="Dennis D. Dennis Janse"/>
            </patient>
            <date value="2015-03-02"/>
            <primarySource value="false"/>
            <doseQuantity>
               <value value="1"/>
               <unit value="ml"/>
               <system value="http://unitsofmeasure.org"/>
               <code value="ml"/>
            </doseQuantity>
            <note>
               <text value="Reis door Indonesië"/>
            </note>
         </Immunization>
      </resource>
      <search>
         <mode value="match"/>
      </search>
   </entry>
   <entry>
      <fullUrl value="urn:uuid:64717587-37e4-11ed-1855-020000000000"/>
      <resource>
         <ImmunizationRecommendation>
            <meta>
               <profile value="http://nictiz.nl/fhir/StructureDefinition/zib-VaccinationRecommendation"/>
            </meta>
            <text>
               <status value="extensions"/>
               <div xmlns="http://www.w3.org/1999/xhtml">
                  <table>
                     <caption>Vaccinatieschema. Patiënt: Dennis D. Dennis Janse. </caption>
                     <tbody>
                        <tr>
                           <th>Gemaakt: 2 april 2015. Status: <span title="Due (due - immunization-recommendation-status)">Due</span>
                              <div>
                                 <span title="Hepatitis A+B-vaccin (J07BC20 - WHO ATC)">Hepatitis A+B-vaccin</span>
                              </div>
                           </th>
                           <td/>
                        </tr>
                     </tbody>
                  </table>
               </div>
            </text>
            <patient>
               <reference value="urn:uuid:64717536-37e4-11ed-1855-020000000000"/>
               <display value="Dennis D. Dennis Janse"/>
            </patient>
            <recommendation>
               <date value="2015-04-02"/>
               <vaccineCode>
                  <coding>
                     <system value="urn:oid:2.16.840.1.113883.6.73"/>
                     <code value="J07BC20"/>
                     <display value="Hepatitis A+B-vaccin"/>
                  </coding>
               </vaccineCode>
               <forecastStatus>
                  <coding>
                     <system value="http://hl7.org/fhir/immunization-recommendation-status"/>
                     <code value="due"/>
                     <display value="Due"/>
                  </coding>
               </forecastStatus>
            </recommendation>
         </ImmunizationRecommendation>
      </resource>
      <search>
         <mode value="match"/>
      </search>
   </entry>
   <entry>
      <fullUrl value="urn:uuid:64716129-37e4-11ed-1855-020000000000"/>
      <resource>
         <Patient>
            <meta>
               <profile value="http://fhir.nl/fhir/StructureDefinition/nl-core-patient"/>
            </meta>
            <text>
               <status value="extensions"/>
               <div xmlns="http://www.w3.org/1999/xhtml">
                  <div/>
               </div>
            </text>
         </Patient>
      </resource>
      <search>
         <mode value="include"/>
      </search>
   </entry>
   <entry>
      <fullUrl value="urn:uuid:64717536-37e4-11ed-1855-020000000000"/>
      <resource>
         <Patient>
            <meta>
               <profile value="http://fhir.nl/fhir/StructureDefinition/nl-core-patient"/>
            </meta>
            <text>
               <status value="extensions"/>
               <div xmlns="http://www.w3.org/1999/xhtml">
                  <div>Id 999999151 (BSN), Dennis D. Janse (Dennis), Man, 2 februari 1950</div>
                  <div>
                     <a href="tel:+316-11122233">+316-11122233</a> (Tel Mobiel), <a href="mailto:djanse@test.nl">djanse@test.nl</a> (E-mail Privé)</div>
                  <div>Huweelstraat 15 Tijdelijk adres 1, 1248CC Barendrecht (TMP)</div>
               </div>
            </text>
            <identifier>
               <system value="http://fhir.nl/fhir/NamingSystem/bsn"/>
               <value value="999999151"/>
            </identifier>
            <name>
               <extension url="http://hl7.org/fhir/StructureDefinition/humanname-assembly-order">
                  <valueCode value="NL1"/>
               </extension>
               <family value="Janse">
                  <extension url="http://hl7.org/fhir/StructureDefinition/humanname-own-name">
                     <valueString value="Janse"/>
                  </extension>
               </family>
               <given value="Dennis">
                  <extension url="http://hl7.org/fhir/StructureDefinition/iso21090-EN-qualifier">
                     <valueCode value="BR"/>
                  </extension>
               </given>
               <given value="D.">
                  <extension url="http://hl7.org/fhir/StructureDefinition/iso21090-EN-qualifier">
                     <valueCode value="IN"/>
                  </extension>
               </given>
               <given value="Dennis">
                  <extension url="http://hl7.org/fhir/StructureDefinition/iso21090-EN-qualifier">
                     <valueCode value="CL"/>
                  </extension>
               </given>
            </name>
            <telecom>
               <extension url="http://nictiz.nl/fhir/StructureDefinition/zib-ContactInformation-TelecomType">
                  <valueCodeableConcept>
                     <coding>
                        <system value="http://hl7.org/fhir/v3/AddressUse"/>
                        <code value="MC"/>
                        <display value="Mobile Phone"/>
                     </coding>
                  </valueCodeableConcept>
               </extension>
               <system value="phone"/>
               <value value="+316-11122233"/>
               <use value="mobile"/>
            </telecom>
            <telecom>
               <system value="email"/>
               <value value="djanse@test.nl"/>
               <use value="home"/>
            </telecom>
            <gender value="male">
               <extension url="http://nictiz.nl/fhir/StructureDefinition/code-specification">
                  <valueCodeableConcept>
                     <coding>
                        <system value="http://hl7.org/fhir/v3/AdministrativeGender"/>
                        <code value="M"/>
                        <display value="Male"/>
                     </coding>
                  </valueCodeableConcept>
               </extension>
            </gender>
            <birthDate value="1950-02-02"/>
            <deceasedBoolean value="false"/>
            <address>
               <extension url="http://nictiz.nl/fhir/StructureDefinition/zib-AddressInformation-AddressType">
                  <valueCodeableConcept>
                     <coding>
                        <system value="http://hl7.org/fhir/v3/AddressUse"/>
                        <code value="TMP"/>
                        <display value="Tijdelijk adres"/>
                     </coding>
                  </valueCodeableConcept>
               </extension>
               <use value="temp"/>
               <line value="Huweelstraat 15 Tijdelijk adres 1">
                  <extension url="http://hl7.org/fhir/StructureDefinition/iso21090-ADXP-streetName">
                     <valueString value="Huweelstraat"/>
                  </extension>
                  <extension url="http://hl7.org/fhir/StructureDefinition/iso21090-ADXP-houseNumber">
                     <valueString value="15"/>
                  </extension>
                  <extension url="http://hl7.org/fhir/StructureDefinition/iso21090-ADXP-unitID">
                     <valueString value="Tijdelijk adres"/>
                  </extension>
                  <extension url="http://hl7.org/fhir/StructureDefinition/iso21090-ADXP-additionalLocator">
                     <valueString value="1"/>
                  </extension>
               </line>
               <city value="Barendrecht"/>
               <postalCode value="1248CC"/>
            </address>
            <multipleBirthBoolean value="false"/>
         </Patient>
      </resource>
      <search>
         <mode value="include"/>
      </search>
   </entry>
   <entry>
      <fullUrl value="urn:oid:2.16.840.1.113883.2.4.6.1.88776655"/>
      <resource>
         <Practitioner>
            <meta>
               <profile value="http://fhir.nl/fhir/StructureDefinition/nl-core-practitioner"/>
            </meta>
            <text>
               <status value="extensions"/>
               <div xmlns="http://www.w3.org/1999/xhtml">
                  <div>Id 88776655 (AGB-Z), Ria Alexandra R.A. Slot (Ria)</div>
                  <div/>
               </div>
            </text>
            <identifier>
               <system value="http://fhir.nl/fhir/NamingSystem/agb-z"/>
               <value value="88776655"/>
            </identifier>
            <name>
               <extension url="http://hl7.org/fhir/StructureDefinition/humanname-assembly-order">
                  <valueCode value="NL1"/>
               </extension>
               <family value="Slot">
                  <extension url="http://hl7.org/fhir/StructureDefinition/humanname-own-name">
                     <valueString value="Slot"/>
                  </extension>
               </family>
               <given value="Ria Alexandra">
                  <extension url="http://hl7.org/fhir/StructureDefinition/iso21090-EN-qualifier">
                     <valueCode value="BR"/>
                  </extension>
               </given>
               <given value="R.A.">
                  <extension url="http://hl7.org/fhir/StructureDefinition/iso21090-EN-qualifier">
                     <valueCode value="IN"/>
                  </extension>
               </given>
               <given value="Ria">
                  <extension url="http://hl7.org/fhir/StructureDefinition/iso21090-EN-qualifier">
                     <valueCode value="CL"/>
                  </extension>
               </given>
            </name>
            <address/>
         </Practitioner>
      </resource>
      <search>
         <mode value="include"/>
      </search>
   </entry>
   <entry>
      <fullUrl value="urn:uuid:64717583-37e4-11ed-1855-020000000000"/>
      <resource>
         <Organization>
            <meta>
               <profile value="http://fhir.nl/fhir/StructureDefinition/nl-core-organization"/>
            </meta>
            <text>
               <status value="extensions"/>
               <div xmlns="http://www.w3.org/1999/xhtml">
                  <table>
                     <caption>Organisatie. </caption>
                     <tbody>
                        <tr>
                           <th>Naam</th>
                           <td/>
                        </tr>
                     </tbody>
                  </table>
               </div>
            </text>
         </Organization>
      </resource>
      <search>
         <mode value="include"/>
      </search>
   </entry>
   <entry>
      <fullUrl value="urn:uuid:6471755c-37e4-11ed-1855-020000000000"/>
      <resource>
         <PractitionerRole>
            <meta>
               <profile value="http://fhir.nl/fhir/StructureDefinition/nl-core-practitionerrole"/>
            </meta>
            <text>
               <status value="extensions"/>
               <div xmlns="http://www.w3.org/1999/xhtml">
                  <table>
                     <caption>Zorgverlenerrol. </caption>
                     <tbody>
                        <tr>
                           <th>Zorgverlener</th>
                           <td>
                              <div>Ria Alexandra R.A. Ria Slot</div>
                              <div>Organisatie informatie: Huisartsenpraktijk Rotterdam</div>
                           </td>
                        </tr>
                        <tr>
                           <th>Specialisme</th>
                           <td>
                              <span title="Huisarts (01.015 - http://fhir.nl/fhir/NamingSystem/uzi-rolcode)">Huisarts</span>
                           </td>
                        </tr>
                     </tbody>
                  </table>
               </div>
            </text>
            <practitioner>
               <reference value="urn:oid:2.16.840.1.113883.2.4.6.1.88776655"/>
               <display value="Ria Alexandra R.A. Ria Slot"/>
            </practitioner>
            <organization>
               <reference value="urn:uuid:64717583-37e4-11ed-1855-020000000000"/>
               <display value="Organisatie informatie: Huisartsenpraktijk Rotterdam"/>
            </organization>
            <specialty>
               <coding>
                  <system value="http://fhir.nl/fhir/NamingSystem/uzi-rolcode"/>
                  <code value="01.015"/>
                  <display value="Huisarts"/>
               </coding>
            </specialty>
         </PractitionerRole>
      </resource>
      <search>
         <mode value="include"/>
      </search>
   </entry>
</Bundle>
