<?xml-model href="http://hl7.org/fhir/STU3/bundle.sch" type="application/xml" schematypens="http://purl.oclc.org/dsdl/schematron"?><Bundle xmlns="http://hl7.org/fhir"
        xmlns:xsi="http://www.w3.org/2001/XMLSchema-instance"
        xsi:schemaLocation="http://hl7.org/fhir http://hl7.org/fhir/STU3/fhir-all.xsd">
   <id value="eeb03721-3828-11ed-1334-020000000000"/>
   <type value="searchset"/>
   <total value="1"/>
   <entry>
      <fullUrl value="urn:uuid:eeb03724-3828-11ed-1334-020000000000"/>
      <resource>
         <Observation>
            <meta>
               <profile value="http://nictiz.nl/fhir/StructureDefinition/zib-FunctionalOrMentalStatus"/>
            </meta>
            <text>
               <status value="extensions"/>
               <div xmlns="http://www.w3.org/1999/xhtml">
                  <table>
                     <caption>Observatie/bepaling. Subject: Maria Francisca M.F. Maria van 't Hoen Verheul. Categorie: <span title="bevinding betreffende functioneren (118228005 - SNOMED CT)">bevinding betreffende functioneren</span>, Status: definitief</caption>
                     <tfoot>
                        <tr>
                           <td colspan="2">krachtsvermindering rechterarm na CVA</td>
                        </tr>
                     </tfoot>
                     <tbody>
                        <tr>
                           <th>Bepalingdatum/tijd</th>
                           <td>Vanaf 2010</td>
                        </tr>
                        <tr>
                           <th>Code</th>
                           <th>Waarde</th>
                        </tr>
                        <tr>
                           <td>
                              <span title="Muscle weakness of upper limb (finding) (713512009 - SNOMED CT)">Muscle weakness of upper limb (finding)</span>
                           </td>
                           <td>
                              <span title="matig (6736007 - SNOMED CT)">matig</span>
                           </td>
                        </tr>
                     </tbody>
                  </table>
               </div>
            </text>
            <status value="final"/>
            <category>
               <coding>
                  <system value="http://snomed.info/sct"/>
                  <code value="118228005"/>
                  <display value="bevinding betreffende functioneren"/>
               </coding>
            </category>
            <code>
               <coding>
                  <system value="http://snomed.info/sct"/>
                  <code value="713512009"/>
                  <display value="Muscle weakness of upper limb (finding)"/>
               </coding>
            </code>
            <subject>
               <reference value="urn:uuid:eeb04b8e-3828-11ed-1334-020000000000"/>
               <display value="Maria Francisca M.F. Maria van 't Hoen Verheul"/>
            </subject>
            <effectivePeriod>
               <start value="2010"/>
            </effectivePeriod>
            <valueCodeableConcept>
               <coding>
                  <system value="http://snomed.info/sct"/>
                  <code value="6736007"/>
                  <display value="matig"/>
               </coding>
            </valueCodeableConcept>
            <comment value="krachtsvermindering rechterarm na CVA"/>
         </Observation>
      </resource>
      <search>
         <mode value="match"/>
      </search>
   </entry>
   <entry>
      <fullUrl value="urn:uuid:eeb03727-3828-11ed-1334-020000000000"/>
      <resource>
         <Patient>
            <meta>
               <profile value="http://fhir.nl/fhir/StructureDefinition/nl-core-patient"/>
            </meta>
            <text>
               <status value="extensions"/>
               <div xmlns="http://www.w3.org/1999/xhtml">
                  <div/>
               </div>
            </text>
         </Patient>
      </resource>
      <search>
         <mode value="include"/>
      </search>
   </entry>
   <entry>
      <fullUrl value="urn:uuid:eeb04b8e-3828-11ed-1334-020000000000"/>
      <resource>
         <Patient>
            <meta>
               <profile value="http://fhir.nl/fhir/StructureDefinition/nl-core-patient"/>
            </meta>
            <text>
               <status value="extensions"/>
               <div xmlns="http://www.w3.org/1999/xhtml">
                  <div>Id 999999072 (BSN), Maria Francisca M.F. van 't Hoen-Verheul (Maria), Vrouw, 16 april 1956, Meerling, <span title="Domestic partner (T - MaritalStatus)">Domestic partner</span>
                  </div>
                  <div>
                     <a href="tel:+316-10101010">+316-10101010</a> (Tel Mobiel), <a href="mailto:francisca@maria.org">francisca@maria.org</a> (E-mail Privé)</div>
                  <div>Steenstraat 143 A II, 6584YZ Molenhoek Mook en Middelaar, NL (officieel Privé (hoofd) Bezoek)</div>
               </div>
            </text>
            <identifier>
               <system value="http://fhir.nl/fhir/NamingSystem/bsn"/>
               <value value="999999072"/>
            </identifier>
            <name>
               <extension url="http://hl7.org/fhir/StructureDefinition/humanname-assembly-order">
                  <valueCode value="NL4"/>
               </extension>
               <family value="van 't Hoen-Verheul">
                  <extension url="http://hl7.org/fhir/StructureDefinition/humanname-own-prefix">
                     <valueString value="van 't"/>
                  </extension>
                  <extension url="http://hl7.org/fhir/StructureDefinition/humanname-own-name">
                     <valueString value="Hoen"/>
                  </extension>
                  <extension url="http://hl7.org/fhir/StructureDefinition/humanname-partner-name">
                     <valueString value="Verheul"/>
                  </extension>
               </family>
               <given value="Maria Francisca">
                  <extension url="http://hl7.org/fhir/StructureDefinition/iso21090-EN-qualifier">
                     <valueCode value="BR"/>
                  </extension>
               </given>
               <given value="M.F.">
                  <extension url="http://hl7.org/fhir/StructureDefinition/iso21090-EN-qualifier">
                     <valueCode value="IN"/>
                  </extension>
               </given>
               <given value="Maria">
                  <extension url="http://hl7.org/fhir/StructureDefinition/iso21090-EN-qualifier">
                     <valueCode value="CL"/>
                  </extension>
               </given>
            </name>
            <telecom>
               <extension url="http://nictiz.nl/fhir/StructureDefinition/zib-ContactInformation-TelecomType">
                  <valueCodeableConcept>
                     <coding>
                        <system value="http://hl7.org/fhir/v3/AddressUse"/>
                        <code value="MC"/>
                        <display value="Mobile Phone"/>
                     </coding>
                  </valueCodeableConcept>
               </extension>
               <system value="phone"/>
               <value value="+316-10101010"/>
               <use value="mobile"/>
            </telecom>
            <telecom>
               <system value="email"/>
               <value value="francisca@maria.org"/>
               <use value="home"/>
            </telecom>
            <gender value="female">
               <extension url="http://nictiz.nl/fhir/StructureDefinition/code-specification">
                  <valueCodeableConcept>
                     <coding>
                        <system value="http://hl7.org/fhir/v3/AdministrativeGender"/>
                        <code value="F"/>
                        <display value="Female"/>
                     </coding>
                  </valueCodeableConcept>
               </extension>
            </gender>
            <birthDate value="1956-04-16"/>
            <deceasedBoolean value="false"/>
            <address>
               <extension url="http://nictiz.nl/fhir/StructureDefinition/zib-AddressInformation-AddressType">
                  <valueCodeableConcept>
                     <coding>
                        <system value="http://hl7.org/fhir/v3/AddressUse"/>
                        <code value="HP"/>
                        <display value="Officieel adres"/>
                     </coding>
                  </valueCodeableConcept>
               </extension>
               <extension url="http://fhir.nl/fhir/StructureDefinition/nl-core-address-official">
                  <valueBoolean value="true"/>
               </extension>
               <use value="home"/>
               <type value="physical"/>
               <line value="Steenstraat 143 A II">
                  <extension url="http://hl7.org/fhir/StructureDefinition/iso21090-ADXP-streetName">
                     <valueString value="Steenstraat"/>
                  </extension>
                  <extension url="http://hl7.org/fhir/StructureDefinition/iso21090-ADXP-houseNumber">
                     <valueString value="143"/>
                  </extension>
                  <extension url="http://hl7.org/fhir/StructureDefinition/iso21090-ADXP-buildingNumberSuffix">
                     <valueString value="A"/>
                  </extension>
                  <extension url="http://hl7.org/fhir/StructureDefinition/iso21090-ADXP-buildingNumberSuffix">
                     <valueString value="II"/>
                  </extension>
               </line>
               <city value="Molenhoek"/>
               <district value="Mook en Middelaar"/>
               <postalCode value="6584YZ"/>
               <country value="NL">
                  <extension url="http://nictiz.nl/fhir/StructureDefinition/code-specification">
                     <valueCodeableConcept>
                        <coding>
                           <system value="urn:iso:std:iso:3166"/>
                           <code value="NL"/>
                           <display value="Nederland"/>
                        </coding>
                     </valueCodeableConcept>
                  </extension>
               </country>
            </address>
            <maritalStatus>
               <coding>
                  <system value="urn:oid:2.16.840.1.113883.5.2"/>
                  <code value="T"/>
                  <display value="Domestic partner"/>
               </coding>
            </maritalStatus>
            <multipleBirthBoolean value="true"/>
         </Patient>
      </resource>
      <search>
         <mode value="include"/>
      </search>
   </entry>
   <entry>
      <fullUrl value="urn:uuid:eeb03dce-3828-11ed-1334-020000000000"/>
      <resource>
         <Practitioner>
            <meta>
               <profile value="http://fhir.nl/fhir/StructureDefinition/nl-core-practitioner"/>
            </meta>
            <text>
               <status value="extensions"/>
               <div xmlns="http://www.w3.org/1999/xhtml">
                  <div/>
               </div>
            </text>
         </Practitioner>
      </resource>
      <search>
         <mode value="include"/>
      </search>
   </entry>
   <entry>
      <fullUrl value="urn:uuid:eeb04bcb-3828-11ed-1334-020000000000"/>
      <resource>
         <Organization>
            <meta>
               <profile value="http://fhir.nl/fhir/StructureDefinition/nl-core-organization"/>
            </meta>
            <text>
               <status value="extensions"/>
               <div xmlns="http://www.w3.org/1999/xhtml">
                  <table>
                     <caption>Organisatie. </caption>
                     <tbody>
                        <tr>
                           <th>Naam</th>
                           <td/>
                        </tr>
                     </tbody>
                  </table>
               </div>
            </text>
         </Organization>
      </resource>
      <search>
         <mode value="include"/>
      </search>
   </entry>
   <entry>
      <fullUrl value="urn:uuid:eeb04bcd-3828-11ed-1334-020000000000"/>
      <resource>
         <PractitionerRole>
            <meta>
               <profile value="http://fhir.nl/fhir/StructureDefinition/nl-core-practitionerrole"/>
            </meta>
            <text>
               <status value="extensions"/>
               <div xmlns="http://www.w3.org/1999/xhtml">
                  <table>
                     <caption>Zorgverlenerrol. </caption>
                     <tbody>
                        <tr>
                           <th>Zorgverlener</th>
                           <td>
                              <div>urn:uuid:eeb03dce-3828-11ed-1334-020000000000</div>
                           </td>
                        </tr>
                     </tbody>
                  </table>
               </div>
            </text>
            <practitioner>
               <reference value="urn:uuid:eeb03dce-3828-11ed-1334-020000000000"/>
            </practitioner>
         </PractitionerRole>
      </resource>
      <search>
         <mode value="include"/>
      </search>
   </entry>
</Bundle>
