<?xml-model href="http://hl7.org/fhir/STU3/bundle.sch" type="application/xml" schematypens="http://purl.oclc.org/dsdl/schematron"?><Bundle xmlns="http://hl7.org/fhir"
        xmlns:xsi="http://www.w3.org/2001/XMLSchema-instance"
        xsi:schemaLocation="http://hl7.org/fhir http://hl7.org/fhir/STU3/fhir-all.xsd">
   <id value="7d6c9f3d-37f0-11ed-5318-020000000000"/>
   <type value="searchset"/>
   <total value="4"/>
   <entry>
      <fullUrl value="urn:uuid:7d6c9f40-37f0-11ed-5318-020000000000"/>
      <resource>
         <DeviceUseStatement>
            <meta>
               <profile value="http://nictiz.nl/fhir/StructureDefinition/zib-MedicalDevice"/>
            </meta>
            <text>
               <status value="extensions"/>
               <div xmlns="http://www.w3.org/1999/xhtml">
                  <table>
                     <caption>Beschrijving apparaatgebruik. Subject: Dennis D. Dennis Janse. Status: actief</caption>
                     <tfoot>
                        <tr>
                           <td colspan="2">Apparaat niet zichtbaar</td>
                        </tr>
                     </tfoot>
                     <tbody>
                        <tr>
                           <th>Apparaat/Systeem</th>
                           <td/>
                        </tr>
                        <tr>
                           <th>Deel van lichaam</th>
                           <td>
                              <span title="Oor (368567003 - SNOMED CT)">Oor</span>
                              <span title="Right (24028007 - SNOMED CT)">Right</span>
                           </td>
                        </tr>
                        <tr>
                           <th>Gebruiksperiode</th>
                           <td>Vanaf 8 maart 2012</td>
                        </tr>
                     </tbody>
                  </table>
               </div>
            </text>
            <status value="active"/>
            <subject>
               <reference value="urn:uuid:7d6cb350-37f0-11ed-5318-020000000000"/>
               <display value="Dennis D. Dennis Janse"/>
            </subject>
            <whenUsed>
               <start value="2012-03-08"/>
            </whenUsed>
            <device>
               <extension url="http://hl7.org/fhir/StructureDefinition/data-absent-reason">
                  <valueCode value="unknown"/>
               </extension>
            </device>
            <bodySite>
               <extension url="http://nictiz.nl/fhir/StructureDefinition/BodySite-Qualifier">
                  <valueCodeableConcept>
                     <coding>
                        <system value="http://snomed.info/sct"/>
                        <code value="24028007"/>
                        <display value="Right"/>
                     </coding>
                  </valueCodeableConcept>
               </extension>
               <coding>
                  <system value="http://snomed.info/sct"/>
                  <code value="368567003"/>
                  <display value="Oor"/>
               </coding>
            </bodySite>
            <note>
               <text value="Apparaat niet zichtbaar"/>
            </note>
         </DeviceUseStatement>
      </resource>
      <search>
         <mode value="match"/>
      </search>
   </entry>
   <entry>
      <fullUrl value="urn:uuid:7d6c9f40-37f0-11ed-5318-020000000000"/>
      <resource>
         <Device>
            <meta>
               <profile value="http://nictiz.nl/fhir/StructureDefinition/zib-MedicalDeviceProduct"/>
            </meta>
            <text>
               <status value="extensions"/>
               <div xmlns="http://www.w3.org/1999/xhtml">
                  <table>
                     <caption>Apparaat/Systeem. Patiënt: Dennis D. Dennis Janse. Status: actief</caption>
                     <tfoot>
                        <tr>
                           <td colspan="2">Inwendig gehoorapparaat</td>
                        </tr>
                     </tfoot>
                     <tbody>
                        <tr>
                           <th>Type</th>
                           <td/>
                        </tr>
                     </tbody>
                  </table>
               </div>
            </text>
            <status value="active"/>
            <patient>
               <reference value="urn:uuid:7d6cb350-37f0-11ed-5318-020000000000"/>
               <display value="Dennis D. Dennis Janse"/>
            </patient>
            <note>
               <text value="Inwendig gehoorapparaat"/>
            </note>
         </Device>
      </resource>
      <search>
         <mode value="match"/>
      </search>
   </entry>
   <entry>
      <fullUrl value="urn:uuid:7d6cb8cc-37f0-11ed-5318-020000000000"/>
      <resource>
         <DeviceUseStatement>
            <meta>
               <profile value="http://nictiz.nl/fhir/StructureDefinition/zib-MedicalDevice"/>
            </meta>
            <text>
               <status value="extensions"/>
               <div xmlns="http://www.w3.org/1999/xhtml">
                  <table>
                     <caption>Beschrijving apparaatgebruik. Subject: Dennis D. Dennis Janse. Status: actief</caption>
                     <tbody>
                        <tr>
                           <th>Apparaat/Systeem</th>
                           <td/>
                        </tr>
                        <tr>
                           <th>Gebruiksperiode</th>
                           <td>Vanaf ${DATE, T, D, +2}</td>
                        </tr>
                     </tbody>
                  </table>
               </div>
            </text>
            <status value="active"/>
            <subject>
               <reference value="urn:uuid:7d6cb350-37f0-11ed-5318-020000000000"/>
               <display value="Dennis D. Dennis Janse"/>
            </subject>
            <whenUsed>
               <start value="${DATE, T, D, +2}"/>
            </whenUsed>
            <device>
               <extension url="http://hl7.org/fhir/StructureDefinition/data-absent-reason">
                  <valueCode value="unknown"/>
               </extension>
            </device>
         </DeviceUseStatement>
      </resource>
      <search>
         <mode value="match"/>
      </search>
   </entry>
   <entry>
      <fullUrl value="urn:uuid:7d6cb8cc-37f0-11ed-5318-020000000000"/>
      <resource>
         <Device>
            <meta>
               <profile value="http://nictiz.nl/fhir/StructureDefinition/zib-MedicalDeviceProduct"/>
            </meta>
            <text>
               <status value="extensions"/>
               <div xmlns="http://www.w3.org/1999/xhtml">
                  <table>
                     <caption>Apparaat/Systeem. Patiënt: Dennis D. Dennis Janse. Status: actief</caption>
                     <tfoot>
                        <tr>
                           <td colspan="2">Niet-gemotoriseerde rolstoel</td>
                        </tr>
                     </tfoot>
                     <tbody>
                        <tr>
                           <th>Type</th>
                           <td/>
                        </tr>
                     </tbody>
                  </table>
               </div>
            </text>
            <status value="active"/>
            <patient>
               <reference value="urn:uuid:7d6cb350-37f0-11ed-5318-020000000000"/>
               <display value="Dennis D. Dennis Janse"/>
            </patient>
            <note>
               <text value="Niet-gemotoriseerde rolstoel"/>
            </note>
         </Device>
      </resource>
      <search>
         <mode value="match"/>
      </search>
   </entry>
   <entry>
      <fullUrl value="urn:uuid:7d6c9f43-37f0-11ed-5318-020000000000"/>
      <resource>
         <Patient>
            <meta>
               <profile value="http://fhir.nl/fhir/StructureDefinition/nl-core-patient"/>
            </meta>
            <text>
               <status value="extensions"/>
               <div xmlns="http://www.w3.org/1999/xhtml">
                  <div/>
               </div>
            </text>
         </Patient>
      </resource>
      <search>
         <mode value="include"/>
      </search>
   </entry>
   <entry>
      <fullUrl value="urn:uuid:7d6cb350-37f0-11ed-5318-020000000000"/>
      <resource>
         <Patient>
            <meta>
               <profile value="http://fhir.nl/fhir/StructureDefinition/nl-core-patient"/>
            </meta>
            <text>
               <status value="extensions"/>
               <div xmlns="http://www.w3.org/1999/xhtml">
                  <div>Id 999999151 (BSN), Dennis D. Janse (Dennis), Man, 2 februari 1950</div>
                  <div>
                     <a href="tel:+316-11122233">+316-11122233</a> (Tel Mobiel), <a href="mailto:djanse@test.nl">djanse@test.nl</a> (E-mail Privé)</div>
                  <div>Huweelstraat 15 Tijdelijk adres to, 1248CC Barendrecht, NL (TMP)</div>
               </div>
            </text>
            <identifier>
               <system value="http://fhir.nl/fhir/NamingSystem/bsn"/>
               <value value="999999151"/>
            </identifier>
            <name>
               <extension url="http://hl7.org/fhir/StructureDefinition/humanname-assembly-order">
                  <valueCode value="NL1"/>
               </extension>
               <family value="Janse">
                  <extension url="http://hl7.org/fhir/StructureDefinition/humanname-own-name">
                     <valueString value="Janse"/>
                  </extension>
               </family>
               <given value="Dennis">
                  <extension url="http://hl7.org/fhir/StructureDefinition/iso21090-EN-qualifier">
                     <valueCode value="BR"/>
                  </extension>
               </given>
               <given value="D.">
                  <extension url="http://hl7.org/fhir/StructureDefinition/iso21090-EN-qualifier">
                     <valueCode value="IN"/>
                  </extension>
               </given>
               <given value="Dennis">
                  <extension url="http://hl7.org/fhir/StructureDefinition/iso21090-EN-qualifier">
                     <valueCode value="CL"/>
                  </extension>
               </given>
            </name>
            <telecom>
               <extension url="http://nictiz.nl/fhir/StructureDefinition/zib-ContactInformation-TelecomType">
                  <valueCodeableConcept>
                     <coding>
                        <system value="http://hl7.org/fhir/v3/AddressUse"/>
                        <code value="MC"/>
                        <display value="Mobile Phone"/>
                     </coding>
                  </valueCodeableConcept>
               </extension>
               <system value="phone"/>
               <value value="+316-11122233"/>
               <use value="mobile"/>
            </telecom>
            <telecom>
               <system value="email"/>
               <value value="djanse@test.nl"/>
               <use value="home"/>
            </telecom>
            <gender value="male">
               <extension url="http://nictiz.nl/fhir/StructureDefinition/code-specification">
                  <valueCodeableConcept>
                     <coding>
                        <system value="http://hl7.org/fhir/v3/AdministrativeGender"/>
                        <code value="M"/>
                        <display value="Male"/>
                     </coding>
                  </valueCodeableConcept>
               </extension>
            </gender>
            <birthDate value="1950-02-02"/>
            <deceasedBoolean value="false"/>
            <address>
               <extension url="http://nictiz.nl/fhir/StructureDefinition/zib-AddressInformation-AddressType">
                  <valueCodeableConcept>
                     <coding>
                        <system value="http://hl7.org/fhir/v3/AddressUse"/>
                        <code value="TMP"/>
                        <display value="Tijdelijk adres"/>
                     </coding>
                  </valueCodeableConcept>
               </extension>
               <use value="temp"/>
               <line value="Huweelstraat 15 Tijdelijk adres to">
                  <extension url="http://hl7.org/fhir/StructureDefinition/iso21090-ADXP-streetName">
                     <valueString value="Huweelstraat"/>
                  </extension>
                  <extension url="http://hl7.org/fhir/StructureDefinition/iso21090-ADXP-houseNumber">
                     <valueString value="15"/>
                  </extension>
                  <extension url="http://hl7.org/fhir/StructureDefinition/iso21090-ADXP-unitID">
                     <valueString value="Tijdelijk adres"/>
                  </extension>
                  <extension url="http://hl7.org/fhir/StructureDefinition/iso21090-ADXP-additionalLocator">
                     <valueString value="to"/>
                  </extension>
               </line>
               <city value="Barendrecht"/>
               <postalCode value="1248CC"/>
               <country value="NL">
                  <extension url="http://nictiz.nl/fhir/StructureDefinition/code-specification">
                     <valueCodeableConcept>
                        <coding>
                           <system value="urn:iso:std:iso:3166"/>
                           <code value="NL"/>
                           <display value="Nederland"/>
                        </coding>
                     </valueCodeableConcept>
                  </extension>
               </country>
            </address>
            <multipleBirthBoolean value="false"/>
         </Patient>
      </resource>
      <search>
         <mode value="include"/>
      </search>
   </entry>
   <entry>
      <fullUrl value="urn:oid:2.16.840.1.113883.2.4.6.1.88776655"/>
      <resource>
         <Practitioner>
            <meta>
               <profile value="http://fhir.nl/fhir/StructureDefinition/nl-core-practitioner"/>
            </meta>
            <text>
               <status value="extensions"/>
               <div xmlns="http://www.w3.org/1999/xhtml">
                  <div>Id 88776655 (AGB-Z), Ria Alexandra R.A. Slot (Ria)</div>
                  <div/>
               </div>
            </text>
            <identifier>
               <system value="http://fhir.nl/fhir/NamingSystem/agb-z"/>
               <value value="88776655"/>
            </identifier>
            <name>
               <extension url="http://hl7.org/fhir/StructureDefinition/humanname-assembly-order">
                  <valueCode value="NL1"/>
               </extension>
               <family value="Slot">
                  <extension url="http://hl7.org/fhir/StructureDefinition/humanname-own-name">
                     <valueString value="Slot"/>
                  </extension>
               </family>
               <given value="Ria Alexandra">
                  <extension url="http://hl7.org/fhir/StructureDefinition/iso21090-EN-qualifier">
                     <valueCode value="BR"/>
                  </extension>
               </given>
               <given value="R.A.">
                  <extension url="http://hl7.org/fhir/StructureDefinition/iso21090-EN-qualifier">
                     <valueCode value="IN"/>
                  </extension>
               </given>
               <given value="Ria">
                  <extension url="http://hl7.org/fhir/StructureDefinition/iso21090-EN-qualifier">
                     <valueCode value="CL"/>
                  </extension>
               </given>
            </name>
            <address/>
         </Practitioner>
      </resource>
      <search>
         <mode value="include"/>
      </search>
   </entry>
   <entry>
      <fullUrl value="urn:oid:2.16.840.1.113883.2.4.6.1.45678912"/>
      <resource>
         <Practitioner>
            <meta>
               <profile value="http://fhir.nl/fhir/StructureDefinition/nl-core-practitioner"/>
            </meta>
            <text>
               <status value="extensions"/>
               <div xmlns="http://www.w3.org/1999/xhtml">
                  <div>Id 45678912 (AGB-Z), Jeroen Hendrik Robert J.H.R. Peters (Jeroen)</div>
                  <div/>
               </div>
            </text>
            <identifier>
               <system value="http://fhir.nl/fhir/NamingSystem/agb-z"/>
               <value value="45678912"/>
            </identifier>
            <name>
               <extension url="http://hl7.org/fhir/StructureDefinition/humanname-assembly-order">
                  <valueCode value="NL1"/>
               </extension>
               <family value="Peters">
                  <extension url="http://hl7.org/fhir/StructureDefinition/humanname-own-name">
                     <valueString value="Peters"/>
                  </extension>
               </family>
               <given value="Jeroen Hendrik Robert">
                  <extension url="http://hl7.org/fhir/StructureDefinition/iso21090-EN-qualifier">
                     <valueCode value="BR"/>
                  </extension>
               </given>
               <given value="J.H.R.">
                  <extension url="http://hl7.org/fhir/StructureDefinition/iso21090-EN-qualifier">
                     <valueCode value="IN"/>
                  </extension>
               </given>
               <given value="Jeroen">
                  <extension url="http://hl7.org/fhir/StructureDefinition/iso21090-EN-qualifier">
                     <valueCode value="CL"/>
                  </extension>
               </given>
            </name>
            <address/>
         </Practitioner>
      </resource>
      <search>
         <mode value="include"/>
      </search>
   </entry>
   <entry>
      <fullUrl value="urn:uuid:7d6cb38c-37f0-11ed-5318-020000000000"/>
      <resource>
         <Organization>
            <meta>
               <profile value="http://fhir.nl/fhir/StructureDefinition/nl-core-organization"/>
            </meta>
            <text>
               <status value="extensions"/>
               <div xmlns="http://www.w3.org/1999/xhtml">
                  <table>
                     <caption>Organisatie. </caption>
                     <tbody>
                        <tr>
                           <th>Naam</th>
                           <td/>
                        </tr>
                     </tbody>
                  </table>
               </div>
            </text>
         </Organization>
      </resource>
      <search>
         <mode value="include"/>
      </search>
   </entry>
   <entry>
      <fullUrl value="urn:uuid:7d6cb90b-37f0-11ed-5318-020000000000"/>
      <resource>
         <Organization>
            <meta>
               <profile value="http://fhir.nl/fhir/StructureDefinition/nl-core-organization"/>
            </meta>
            <text>
               <status value="extensions"/>
               <div xmlns="http://www.w3.org/1999/xhtml">
                  <table>
                     <caption>Organisatie. </caption>
                     <tbody>
                        <tr>
                           <th>Naam</th>
                           <td/>
                        </tr>
                     </tbody>
                  </table>
               </div>
            </text>
         </Organization>
      </resource>
      <search>
         <mode value="include"/>
      </search>
   </entry>
   <entry>
      <fullUrl value="urn:uuid:7d6cb38e-37f0-11ed-5318-020000000000"/>
      <resource>
         <PractitionerRole>
            <meta>
               <profile value="http://fhir.nl/fhir/StructureDefinition/nl-core-practitionerrole"/>
            </meta>
            <text>
               <status value="extensions"/>
               <div xmlns="http://www.w3.org/1999/xhtml">
                  <table>
                     <caption>Zorgverlenerrol. </caption>
                     <tbody>
                        <tr>
                           <th>Zorgverlener</th>
                           <td>
                              <div>Ria Alexandra R.A. Ria Slot</div>
                              <div>Organisatie informatie: Huisartsenpraktijk Rotterdam</div>
                           </td>
                        </tr>
                        <tr>
                           <th>Specialisme</th>
                           <td>
                              <span title="Huisarts (01.015 - http://fhir.nl/fhir/NamingSystem/uzi-rolcode)">Huisarts</span>
                           </td>
                        </tr>
                     </tbody>
                  </table>
               </div>
            </text>
            <practitioner>
               <reference value="urn:oid:2.16.840.1.113883.2.4.6.1.88776655"/>
               <display value="Ria Alexandra R.A. Ria Slot"/>
            </practitioner>
            <organization>
               <reference value="urn:uuid:7d6cb38c-37f0-11ed-5318-020000000000"/>
               <display value="Organisatie informatie: Huisartsenpraktijk Rotterdam"/>
            </organization>
            <specialty>
               <coding>
                  <system value="http://fhir.nl/fhir/NamingSystem/uzi-rolcode"/>
                  <code value="01.015"/>
                  <display value="Huisarts"/>
               </coding>
            </specialty>
         </PractitionerRole>
      </resource>
      <search>
         <mode value="include"/>
      </search>
   </entry>
   <entry>
      <fullUrl value="urn:uuid:7d6cb90d-37f0-11ed-5318-020000000000"/>
      <resource>
         <PractitionerRole>
            <meta>
               <profile value="http://fhir.nl/fhir/StructureDefinition/nl-core-practitionerrole"/>
            </meta>
            <text>
               <status value="extensions"/>
               <div xmlns="http://www.w3.org/1999/xhtml">
                  <table>
                     <caption>Zorgverlenerrol. </caption>
                     <tbody>
                        <tr>
                           <th>Zorgverlener</th>
                           <td>
                              <div>Jeroen Hendrik Robert J.H.R. Jeroen Peters</div>
                              <div>Organisatie informatie: naam eigen ziekenhuis</div>
                           </td>
                        </tr>
                        <tr>
                           <th>Specialisme</th>
                           <td>
                              <span title="Orthopedisch chirurg (01.032 - http://fhir.nl/fhir/NamingSystem/uzi-rolcode)">Orthopedisch chirurg</span>
                           </td>
                        </tr>
                     </tbody>
                  </table>
               </div>
            </text>
            <practitioner>
               <reference value="urn:oid:2.16.840.1.113883.2.4.6.1.45678912"/>
               <display value="Jeroen Hendrik Robert J.H.R. Jeroen Peters"/>
            </practitioner>
            <organization>
               <reference value="urn:uuid:7d6cb90b-37f0-11ed-5318-020000000000"/>
               <display value="Organisatie informatie: naam eigen ziekenhuis"/>
            </organization>
            <specialty>
               <coding>
                  <system value="http://fhir.nl/fhir/NamingSystem/uzi-rolcode"/>
                  <code value="01.032"/>
                  <display value="Orthopedisch chirurg"/>
               </coding>
            </specialty>
         </PractitionerRole>
      </resource>
      <search>
         <mode value="include"/>
      </search>
   </entry>
</Bundle>
