<?xml-model href="http://hl7.org/fhir/STU3/bundle.sch" type="application/xml" schematypens="http://purl.oclc.org/dsdl/schematron"?><Bundle xmlns="http://hl7.org/fhir"
        xmlns:xsi="http://www.w3.org/2001/XMLSchema-instance"
        xsi:schemaLocation="http://hl7.org/fhir http://hl7.org/fhir/STU3/fhir-all.xsd">
   <id value="445c2203-3daf-11ed-1523-020000000000"/>
   <type value="searchset"/>
   <total value="2"/>
   <entry>
      <fullUrl value="urn:uuid:445c2206-3daf-11ed-1523-020000000000"/>
      <resource>
         <ProcedureRequest>
            <meta>
               <profile value="http://nictiz.nl/fhir/StructureDefinition/zib-ProcedureRequest"/>
            </meta>
            <text>
               <status value="extensions"/>
               <div xmlns="http://www.w3.org/1999/xhtml">
                  <table>
                     <caption>Verrichtingaanvraag. Subject: Dennis D. Dennis Janse. Status: actief<span style="display: block;">Intentie: plan</span>
                        <span style="display: block;">Aangevraagd door: Alfred Bart A.B. Alfred Bakker || Spoedeisende hulp arts</span>
                     </caption>
                     <tbody>
                        <tr>
                           <td>
                              <span title="Operatieve behandeling fractuur van de malleolus (111501000146106 - SNOMED CT)">Operatieve behandeling fractuur van de malleolus</span>
                           </td>
                           <td>
                              <div>Wanneer: ${DATE, T, D, +1}T14:00:00+02:00 - ${DATE, T, D, +1}T15:00:00+02:00</div>
                           </td>
                        </tr>
                        <tr>
                           <th>Beoogde uitvoerende</th>
                           <td>
                              <div>Jeroen Hendrik Robert J.H.R. Jeroen Peters || Orthopedisch chirurg</div>
                           </td>
                        </tr>
                        <tr>
                           <th>Reden</th>
                           <td>fractuur van enkel</td>
                        </tr>
                        <tr>
                           <td>Deel van lichaam</td>
                           <td>
                              <span title="Enkel (70258002 - SNOMED CT)">Enkel</span>
                              <span title="Left (7771000 - SNOMED CT)">Left</span>
                           </td>
                        </tr>
                     </tbody>
                  </table>
               </div>
            </text>
            <status value="active"/>
            <intent value="plan"/>
            <code>
               <coding>
                  <system value="http://snomed.info/sct"/>
                  <code value="111501000146106"/>
                  <display value="Operatieve behandeling fractuur van de malleolus"/>
               </coding>
            </code>
            <subject>
               <reference value="urn:uuid:445c3616-3daf-11ed-1523-020000000000"/>
               <display value="Dennis D. Dennis Janse"/>
            </subject>
            <occurrencePeriod>
               <start value="${DATE, T, D, +1}T14:00:00+02:00"/>
               <end value="${DATE, T, D, +1}T15:00:00+02:00"/>
            </occurrencePeriod>
            <requester>
               <agent>
                  <extension url="http://nictiz.nl/fhir/StructureDefinition/practitionerrole-reference">
                     <valueReference>
                        <reference value="urn:uuid:445c3bd1-3daf-11ed-1523-020000000000"/>
                        <display value="Alfred Bart A.B. Alfred Bakker || Spoedeisende hulp arts"/>
                     </valueReference>
                  </extension>
                  <reference value="urn:oid:2.16.840.1.113883.2.4.6.1.12345678"/>
                  <display value="Alfred Bart A.B. Alfred Bakker"/>
               </agent>
            </requester>
            <performer>
               <extension url="http://nictiz.nl/fhir/StructureDefinition/practitionerrole-reference">
                  <valueReference>
                     <reference value="urn:uuid:445c3b87-3daf-11ed-1523-020000000000"/>
                     <display value="Jeroen Hendrik Robert J.H.R. Jeroen Peters || Orthopedisch chirurg"/>
                  </valueReference>
               </extension>
               <reference value="urn:oid:2.16.840.1.113883.2.4.6.1.45678912"/>
               <display value="Jeroen Hendrik Robert J.H.R. Jeroen Peters"/>
            </performer>
            <reasonReference>
               <reference value="urn:uuid:445c363f-3daf-11ed-1523-020000000000"/>
               <display value="fractuur van enkel"/>
            </reasonReference>
            <bodySite>
               <extension url="http://nictiz.nl/fhir/StructureDefinition/BodySite-Qualifier">
                  <valueCodeableConcept>
                     <coding>
                        <system value="http://snomed.info/sct"/>
                        <code value="7771000"/>
                        <display value="Left"/>
                     </coding>
                  </valueCodeableConcept>
               </extension>
               <coding>
                  <system value="http://snomed.info/sct"/>
                  <code value="70258002"/>
                  <display value="Enkel"/>
               </coding>
            </bodySite>
         </ProcedureRequest>
      </resource>
      <search>
         <mode value="match"/>
      </search>
   </entry>
   <entry>
      <fullUrl value="urn:uuid:445c3c1c-3daf-11ed-1523-020000000000"/>
      <resource>
         <ProcedureRequest>
            <meta>
               <profile value="http://nictiz.nl/fhir/StructureDefinition/zib-ProcedureRequest"/>
            </meta>
            <text>
               <status value="extensions"/>
               <div xmlns="http://www.w3.org/1999/xhtml">
                  <table>
                     <caption>Verrichtingaanvraag. Subject: Dennis D. Dennis Janse. Status: actief<span style="display: block;">Intentie: plan</span>
                        <span style="display: block;">Aangevraagd door: Jeroen Hendrik Robert J.H.R. Jeroen Peters || Orthopedisch chirurg</span>
                     </caption>
                     <tbody>
                        <tr>
                           <td>
                              <span title="Aanleggen van loopgips voor onderbeen (122531000146102 - SNOMED CT)">Aanleggen van loopgips voor onderbeen</span>
                           </td>
                           <td>
                              <div>Wanneer: Vanaf ${DATE, T, D, +2}T09:30:00+02:00</div>
                           </td>
                        </tr>
                        <tr>
                           <th>Reden</th>
                           <td>fractuur van enkel</td>
                        </tr>
                        <tr>
                           <td>Deel van lichaam</td>
                           <td>
                              <span title="Enkel (70258002 - SNOMED CT)">Enkel</span>
                              <span title="Left (7771000 - SNOMED CT)">Left</span>
                           </td>
                        </tr>
                     </tbody>
                  </table>
               </div>
            </text>
            <status value="active"/>
            <intent value="plan"/>
            <code>
               <coding>
                  <system value="http://snomed.info/sct"/>
                  <code value="122531000146102"/>
                  <display value="Aanleggen van loopgips voor onderbeen"/>
               </coding>
            </code>
            <subject>
               <reference value="urn:uuid:445c3616-3daf-11ed-1523-020000000000"/>
               <display value="Dennis D. Dennis Janse"/>
            </subject>
            <occurrencePeriod>
               <start value="${DATE, T, D, +2}T09:30:00+02:00"/>
            </occurrencePeriod>
            <requester>
               <agent>
                  <extension url="http://nictiz.nl/fhir/StructureDefinition/practitionerrole-reference">
                     <valueReference>
                        <reference value="urn:uuid:445c3b87-3daf-11ed-1523-020000000000"/>
                        <display value="Jeroen Hendrik Robert J.H.R. Jeroen Peters || Orthopedisch chirurg"/>
                     </valueReference>
                  </extension>
                  <reference value="urn:oid:2.16.840.1.113883.2.4.6.1.45678912"/>
                  <display value="Jeroen Hendrik Robert J.H.R. Jeroen Peters"/>
               </agent>
            </requester>
            <reasonReference>
               <reference value="urn:uuid:445c363f-3daf-11ed-1523-020000000000"/>
               <display value="fractuur van enkel"/>
            </reasonReference>
            <bodySite>
               <extension url="http://nictiz.nl/fhir/StructureDefinition/BodySite-Qualifier">
                  <valueCodeableConcept>
                     <coding>
                        <system value="http://snomed.info/sct"/>
                        <code value="7771000"/>
                        <display value="Left"/>
                     </coding>
                  </valueCodeableConcept>
               </extension>
               <coding>
                  <system value="http://snomed.info/sct"/>
                  <code value="70258002"/>
                  <display value="Enkel"/>
               </coding>
            </bodySite>
         </ProcedureRequest>
      </resource>
      <search>
         <mode value="match"/>
      </search>
   </entry>
   <entry>
      <fullUrl value="urn:uuid:445c3616-3daf-11ed-1523-020000000000"/>
      <resource>
         <Patient>
            <meta>
               <profile value="http://fhir.nl/fhir/StructureDefinition/nl-core-patient"/>
            </meta>
            <text>
               <status value="extensions"/>
               <div xmlns="http://www.w3.org/1999/xhtml">
                  <div>Id 999999151 (BSN), Dennis D. Janse (Dennis), Man, 2 februari 1950, <span title="Married (M - MaritalStatus)">Married</span>
                  </div>
                  <div>
                     <a href="tel:+316-11122233">+316-11122233</a> (Tel Mobiel), <a href="mailto:djanse@test.nl">djanse@test.nl</a> (E-mail Privé)</div>
                  <div>Huweelstraat 15 Tijdelijk adres to, 1248CC Barendrecht, NL (TMP)</div>
               </div>
            </text>
            <identifier>
               <system value="http://fhir.nl/fhir/NamingSystem/bsn"/>
               <value value="999999151"/>
            </identifier>
            <name>
               <extension url="http://hl7.org/fhir/StructureDefinition/humanname-assembly-order">
                  <valueCode value="NL1"/>
               </extension>
               <family value="Janse">
                  <extension url="http://hl7.org/fhir/StructureDefinition/humanname-own-name">
                     <valueString value="Janse"/>
                  </extension>
               </family>
               <given value="Dennis">
                  <extension url="http://hl7.org/fhir/StructureDefinition/iso21090-EN-qualifier">
                     <valueCode value="BR"/>
                  </extension>
               </given>
               <given value="D.">
                  <extension url="http://hl7.org/fhir/StructureDefinition/iso21090-EN-qualifier">
                     <valueCode value="IN"/>
                  </extension>
               </given>
               <given value="Dennis">
                  <extension url="http://hl7.org/fhir/StructureDefinition/iso21090-EN-qualifier">
                     <valueCode value="CL"/>
                  </extension>
               </given>
            </name>
            <telecom>
               <extension url="http://nictiz.nl/fhir/StructureDefinition/zib-ContactInformation-TelecomType">
                  <valueCodeableConcept>
                     <coding>
                        <system value="http://hl7.org/fhir/v3/AddressUse"/>
                        <code value="MC"/>
                        <display value="Mobile Phone"/>
                     </coding>
                  </valueCodeableConcept>
               </extension>
               <system value="phone"/>
               <value value="+316-11122233"/>
               <use value="mobile"/>
            </telecom>
            <telecom>
               <system value="email"/>
               <value value="djanse@test.nl"/>
               <use value="home"/>
            </telecom>
            <gender value="male">
               <extension url="http://nictiz.nl/fhir/StructureDefinition/code-specification">
                  <valueCodeableConcept>
                     <coding>
                        <system value="http://hl7.org/fhir/v3/AdministrativeGender"/>
                        <code value="M"/>
                        <display value="Male"/>
                     </coding>
                  </valueCodeableConcept>
               </extension>
            </gender>
            <birthDate value="1950-02-02"/>
            <deceasedBoolean value="false"/>
            <address>
               <extension url="http://nictiz.nl/fhir/StructureDefinition/zib-AddressInformation-AddressType">
                  <valueCodeableConcept>
                     <coding>
                        <system value="http://hl7.org/fhir/v3/AddressUse"/>
                        <code value="TMP"/>
                        <display value="Tijdelijk adres"/>
                     </coding>
                  </valueCodeableConcept>
               </extension>
               <use value="temp"/>
               <line value="Huweelstraat 15 Tijdelijk adres to">
                  <extension url="http://hl7.org/fhir/StructureDefinition/iso21090-ADXP-streetName">
                     <valueString value="Huweelstraat"/>
                  </extension>
                  <extension url="http://hl7.org/fhir/StructureDefinition/iso21090-ADXP-houseNumber">
                     <valueString value="15"/>
                  </extension>
                  <extension url="http://hl7.org/fhir/StructureDefinition/iso21090-ADXP-unitID">
                     <valueString value="Tijdelijk adres"/>
                  </extension>
                  <extension url="http://hl7.org/fhir/StructureDefinition/iso21090-ADXP-additionalLocator">
                     <valueString value="to"/>
                  </extension>
               </line>
               <city value="Barendrecht"/>
               <postalCode value="1248CC"/>
               <country value="NL">
                  <extension url="http://nictiz.nl/fhir/StructureDefinition/code-specification">
                     <valueCodeableConcept>
                        <coding>
                           <system value="urn:iso:std:iso:3166"/>
                           <code value="NL"/>
                           <display value="Nederland"/>
                        </coding>
                     </valueCodeableConcept>
                  </extension>
               </country>
            </address>
            <maritalStatus>
               <coding>
                  <system value="urn:oid:2.16.840.1.113883.5.2"/>
                  <code value="M"/>
                  <display value="Married"/>
               </coding>
            </maritalStatus>
            <multipleBirthBoolean value="false"/>
         </Patient>
      </resource>
      <search>
         <mode value="include"/>
      </search>
   </entry>
   <entry>
      <fullUrl value="urn:oid:2.16.840.1.113883.2.4.6.1.45678912"/>
      <resource>
         <Practitioner>
            <meta>
               <profile value="http://fhir.nl/fhir/StructureDefinition/nl-core-practitioner"/>
            </meta>
            <text>
               <status value="extensions"/>
               <div xmlns="http://www.w3.org/1999/xhtml">
                  <div>Id 45678912 (AGB-Z), Jeroen Hendrik Robert J.H.R. Peters (Jeroen)</div>
                  <div>
                     <a href="tel:06-23412345">06-23412345</a> (Tel Mobiel), <a href="mailto:j.peters@hospital.nl">j.peters@hospital.nl</a> (E-mail Werk)</div>
                  <div>Dr. Molewaterplein 40, 3015GD Rotterdam Rotterdam, NL (WP)</div>
               </div>
            </text>
            <identifier>
               <system value="http://fhir.nl/fhir/NamingSystem/agb-z"/>
               <value value="45678912"/>
            </identifier>
            <name>
               <extension url="http://hl7.org/fhir/StructureDefinition/humanname-assembly-order">
                  <valueCode value="NL1"/>
               </extension>
               <family value="Peters">
                  <extension url="http://hl7.org/fhir/StructureDefinition/humanname-own-name">
                     <valueString value="Peters"/>
                  </extension>
               </family>
               <given value="Jeroen Hendrik Robert">
                  <extension url="http://hl7.org/fhir/StructureDefinition/iso21090-EN-qualifier">
                     <valueCode value="BR"/>
                  </extension>
               </given>
               <given value="J.H.R.">
                  <extension url="http://hl7.org/fhir/StructureDefinition/iso21090-EN-qualifier">
                     <valueCode value="IN"/>
                  </extension>
               </given>
               <given value="Jeroen">
                  <extension url="http://hl7.org/fhir/StructureDefinition/iso21090-EN-qualifier">
                     <valueCode value="CL"/>
                  </extension>
               </given>
            </name>
            <telecom>
               <extension url="http://nictiz.nl/fhir/StructureDefinition/zib-ContactInformation-TelecomType">
                  <valueCodeableConcept>
                     <coding>
                        <system value="http://hl7.org/fhir/v3/AddressUse"/>
                        <code value="MC"/>
                        <display value="Mobile Phone"/>
                     </coding>
                  </valueCodeableConcept>
               </extension>
               <system value="phone"/>
               <value value="06-23412345"/>
               <use value="mobile"/>
            </telecom>
            <telecom>
               <system value="email"/>
               <value value="j.peters@hospital.nl"/>
               <use value="work"/>
            </telecom>
            <address>
               <extension url="http://nictiz.nl/fhir/StructureDefinition/zib-AddressInformation-AddressType">
                  <valueCodeableConcept>
                     <coding>
                        <system value="http://hl7.org/fhir/v3/AddressUse"/>
                        <code value="WP"/>
                        <display value="Werkadres"/>
                     </coding>
                  </valueCodeableConcept>
               </extension>
               <use value="work"/>
               <line value="Dr. Molewaterplein 40">
                  <extension url="http://hl7.org/fhir/StructureDefinition/iso21090-ADXP-streetName">
                     <valueString value="Dr. Molewaterplein"/>
                  </extension>
                  <extension url="http://hl7.org/fhir/StructureDefinition/iso21090-ADXP-houseNumber">
                     <valueString value="40"/>
                  </extension>
               </line>
               <city value="Rotterdam"/>
               <district value="Rotterdam"/>
               <postalCode value="3015GD"/>
               <country value="NL">
                  <extension url="http://nictiz.nl/fhir/StructureDefinition/code-specification">
                     <valueCodeableConcept>
                        <coding>
                           <system value="urn:iso:std:iso:3166"/>
                           <code value="NL"/>
                           <display value="Nederland"/>
                        </coding>
                     </valueCodeableConcept>
                  </extension>
               </country>
            </address>
         </Practitioner>
      </resource>
      <search>
         <mode value="include"/>
      </search>
   </entry>
   <entry>
      <fullUrl value="urn:oid:2.16.840.1.113883.2.4.6.1.12345678"/>
      <resource>
         <Practitioner>
            <meta>
               <profile value="http://fhir.nl/fhir/StructureDefinition/nl-core-practitioner"/>
            </meta>
            <text>
               <status value="extensions"/>
               <div xmlns="http://www.w3.org/1999/xhtml">
                  <div>Id 12345678 (AGB-Z), Alfred Bart A.B. Bakker (Alfred)</div>
                  <div>
                     <a href="tel:06-33334444">06-33334444</a> (Tel Mobiel), <a href="mailto:a.b.bakker@hospital.nl">a.b.bakker@hospital.nl</a> (E-mail Werk)</div>
                  <div>Dr. Molewaterplein 40, 3015GD Rotterdam Rotterdam, NL (WP)</div>
               </div>
            </text>
            <identifier>
               <system value="http://fhir.nl/fhir/NamingSystem/agb-z"/>
               <value value="12345678"/>
            </identifier>
            <name>
               <extension url="http://hl7.org/fhir/StructureDefinition/humanname-assembly-order">
                  <valueCode value="NL1"/>
               </extension>
               <family value="Bakker">
                  <extension url="http://hl7.org/fhir/StructureDefinition/humanname-own-name">
                     <valueString value="Bakker"/>
                  </extension>
               </family>
               <given value="Alfred Bart">
                  <extension url="http://hl7.org/fhir/StructureDefinition/iso21090-EN-qualifier">
                     <valueCode value="BR"/>
                  </extension>
               </given>
               <given value="A.B.">
                  <extension url="http://hl7.org/fhir/StructureDefinition/iso21090-EN-qualifier">
                     <valueCode value="IN"/>
                  </extension>
               </given>
               <given value="Alfred">
                  <extension url="http://hl7.org/fhir/StructureDefinition/iso21090-EN-qualifier">
                     <valueCode value="CL"/>
                  </extension>
               </given>
            </name>
            <telecom>
               <extension url="http://nictiz.nl/fhir/StructureDefinition/zib-ContactInformation-TelecomType">
                  <valueCodeableConcept>
                     <coding>
                        <system value="http://hl7.org/fhir/v3/AddressUse"/>
                        <code value="MC"/>
                        <display value="Mobile Phone"/>
                     </coding>
                  </valueCodeableConcept>
               </extension>
               <system value="phone"/>
               <value value="06-33334444"/>
               <use value="mobile"/>
            </telecom>
            <telecom>
               <system value="email"/>
               <value value="a.b.bakker@hospital.nl"/>
               <use value="work"/>
            </telecom>
            <address>
               <extension url="http://nictiz.nl/fhir/StructureDefinition/zib-AddressInformation-AddressType">
                  <valueCodeableConcept>
                     <coding>
                        <system value="http://hl7.org/fhir/v3/AddressUse"/>
                        <code value="WP"/>
                        <display value="Werkadres"/>
                     </coding>
                  </valueCodeableConcept>
               </extension>
               <use value="work"/>
               <line value="Dr. Molewaterplein 40">
                  <extension url="http://hl7.org/fhir/StructureDefinition/iso21090-ADXP-streetName">
                     <valueString value="Dr. Molewaterplein"/>
                  </extension>
                  <extension url="http://hl7.org/fhir/StructureDefinition/iso21090-ADXP-houseNumber">
                     <valueString value="40"/>
                  </extension>
               </line>
               <city value="Rotterdam"/>
               <district value="Rotterdam"/>
               <postalCode value="3015GD"/>
               <country value="NL">
                  <extension url="http://nictiz.nl/fhir/StructureDefinition/code-specification">
                     <valueCodeableConcept>
                        <coding>
                           <system value="urn:iso:std:iso:3166"/>
                           <code value="NL"/>
                           <display value="Nederland"/>
                        </coding>
                     </valueCodeableConcept>
                  </extension>
               </country>
            </address>
         </Practitioner>
      </resource>
      <search>
         <mode value="include"/>
      </search>
   </entry>
   <entry>
      <fullUrl value="urn:uuid:445c3b85-3daf-11ed-1523-020000000000"/>
      <resource>
         <Organization>
            <meta>
               <profile value="http://fhir.nl/fhir/StructureDefinition/nl-core-organization"/>
            </meta>
            <text>
               <status value="extensions"/>
               <div xmlns="http://www.w3.org/1999/xhtml">
                  <table>
                     <caption>Organisatie. </caption>
                     <tbody>
                        <tr>
                           <th>Naam</th>
                           <td/>
                        </tr>
                     </tbody>
                  </table>
               </div>
            </text>
         </Organization>
      </resource>
      <search>
         <mode value="include"/>
      </search>
   </entry>
   <entry>
      <fullUrl value="urn:uuid:445c3b87-3daf-11ed-1523-020000000000"/>
      <resource>
         <PractitionerRole>
            <meta>
               <profile value="http://fhir.nl/fhir/StructureDefinition/nl-core-practitionerrole"/>
            </meta>
            <text>
               <status value="extensions"/>
               <div xmlns="http://www.w3.org/1999/xhtml">
                  <table>
                     <caption>Zorgverlenerrol. </caption>
                     <tbody>
                        <tr>
                           <th>Zorgverlener</th>
                           <td>
                              <div>Jeroen Hendrik Robert J.H.R. Jeroen Peters</div>
                              <div>Organisatie informatie: naam eigen ziekenhuis</div>
                           </td>
                        </tr>
                        <tr>
                           <th>Specialisme</th>
                           <td>
                              <span title="Orthopedisch chirurg (01.032 - http://fhir.nl/fhir/NamingSystem/uzi-rolcode)">Orthopedisch chirurg</span>
                           </td>
                        </tr>
                        <tr>
                           <th>Contactgegevens</th>
                           <td>
                              <div>
                                 <a href="tel:06-23412345">06-23412345</a> (Tel Mobiel)</div>
                              <div>
                                 <a href="mailto:j.peters@hospital.nl">j.peters@hospital.nl</a> (E-mail Werk)</div>
                           </td>
                        </tr>
                     </tbody>
                  </table>
               </div>
            </text>
            <practitioner>
               <reference value="urn:oid:2.16.840.1.113883.2.4.6.1.45678912"/>
               <display value="Jeroen Hendrik Robert J.H.R. Jeroen Peters"/>
            </practitioner>
            <organization>
               <reference value="urn:uuid:445c3b85-3daf-11ed-1523-020000000000"/>
               <display value="Organisatie informatie: naam eigen ziekenhuis"/>
            </organization>
            <specialty>
               <coding>
                  <system value="http://fhir.nl/fhir/NamingSystem/uzi-rolcode"/>
                  <code value="01.032"/>
                  <display value="Orthopedisch chirurg"/>
               </coding>
            </specialty>
            <telecom>
               <extension url="http://nictiz.nl/fhir/StructureDefinition/zib-ContactInformation-TelecomType">
                  <valueCodeableConcept>
                     <coding>
                        <system value="http://hl7.org/fhir/v3/AddressUse"/>
                        <code value="MC"/>
                        <display value="Mobile Phone"/>
                     </coding>
                  </valueCodeableConcept>
               </extension>
               <system value="phone"/>
               <value value="06-23412345"/>
               <use value="mobile"/>
            </telecom>
            <telecom>
               <system value="email"/>
               <value value="j.peters@hospital.nl"/>
               <use value="work"/>
            </telecom>
         </PractitionerRole>
      </resource>
      <search>
         <mode value="include"/>
      </search>
   </entry>
   <entry>
      <fullUrl value="urn:uuid:445c3bd1-3daf-11ed-1523-020000000000"/>
      <resource>
         <PractitionerRole>
            <meta>
               <profile value="http://fhir.nl/fhir/StructureDefinition/nl-core-practitionerrole"/>
            </meta>
            <text>
               <status value="extensions"/>
               <div xmlns="http://www.w3.org/1999/xhtml">
                  <table>
                     <caption>Zorgverlenerrol. </caption>
                     <tbody>
                        <tr>
                           <th>Zorgverlener</th>
                           <td>
                              <div>Alfred Bart A.B. Alfred Bakker</div>
                              <div>Organisatie informatie: naam eigen ziekenhuis</div>
                           </td>
                        </tr>
                        <tr>
                           <th>Specialisme</th>
                           <td>
                              <span title="Spoedeisende hulp arts (01.071 - http://fhir.nl/fhir/NamingSystem/uzi-rolcode)">Spoedeisende hulp arts</span>
                           </td>
                        </tr>
                        <tr>
                           <th>Contactgegevens</th>
                           <td>
                              <div>
                                 <a href="tel:06-33334444">06-33334444</a> (Tel Mobiel)</div>
                              <div>
                                 <a href="mailto:a.b.bakker@hospital.nl">a.b.bakker@hospital.nl</a> (E-mail Werk)</div>
                           </td>
                        </tr>
                     </tbody>
                  </table>
               </div>
            </text>
            <practitioner>
               <reference value="urn:oid:2.16.840.1.113883.2.4.6.1.12345678"/>
               <display value="Alfred Bart A.B. Alfred Bakker"/>
            </practitioner>
            <organization>
               <reference value="urn:uuid:445c3b85-3daf-11ed-1523-020000000000"/>
               <display value="Organisatie informatie: naam eigen ziekenhuis"/>
            </organization>
            <specialty>
               <coding>
                  <system value="http://fhir.nl/fhir/NamingSystem/uzi-rolcode"/>
                  <code value="01.071"/>
                  <display value="Spoedeisende hulp arts"/>
               </coding>
            </specialty>
            <telecom>
               <extension url="http://nictiz.nl/fhir/StructureDefinition/zib-ContactInformation-TelecomType">
                  <valueCodeableConcept>
                     <coding>
                        <system value="http://hl7.org/fhir/v3/AddressUse"/>
                        <code value="MC"/>
                        <display value="Mobile Phone"/>
                     </coding>
                  </valueCodeableConcept>
               </extension>
               <system value="phone"/>
               <value value="06-33334444"/>
               <use value="mobile"/>
            </telecom>
            <telecom>
               <system value="email"/>
               <value value="a.b.bakker@hospital.nl"/>
               <use value="work"/>
            </telecom>
         </PractitionerRole>
      </resource>
      <search>
         <mode value="include"/>
      </search>
   </entry>
   <entry>
      <fullUrl value="urn:uuid:445c363f-3daf-11ed-1523-020000000000"/>
      <resource>
         <Condition>
            <meta>
               <profile value="http://nictiz.nl/fhir/StructureDefinition/zib-Problem"/>
            </meta>
            <text>
               <status value="extensions"/>
               <div xmlns="http://www.w3.org/1999/xhtml">
                  <table>
                     <caption>Aandoening. Subject: Dennis D. Dennis Janse. Categorie: <span title="Diagnosis (282291009 - SNOMED CT)">Diagnosis</span>, Status: actief / bevestigd</caption>
                     <tfoot>
                        <tr>
                           <td colspan="2">Op een bal gaan staan tijdens het voetballen.</td>
                        </tr>
                     </tfoot>
                     <tbody>
                        <tr>
                           <th>Code</th>
                           <td>
                              <span title="fractuur van enkel (16114001 - SNOMED CT)">fractuur van enkel</span>
                           </td>
                        </tr>
                        <tr>
                           <th>Eerste symptomen</th>
                           <td>${DATE, T, D, +1}</td>
                        </tr>
                     </tbody>
                  </table>
               </div>
            </text>
            <clinicalStatus value="active">
               <extension url="http://nictiz.nl/fhir/StructureDefinition/code-specification">
                  <valueCodeableConcept>
                     <coding>
                        <system value="http://snomed.info/sct"/>
                        <code value="55561003"/>
                        <display value="Active"/>
                     </coding>
                  </valueCodeableConcept>
               </extension>
            </clinicalStatus>
            <verificationStatus value="confirmed">
               <extension url="http://nictiz.nl/fhir/StructureDefinition/code-specification">
                  <valueCodeableConcept>
                     <coding>
                        <system value="http://snomed.info/sct"/>
                        <code value="410605003"/>
                        <display value="Confirmed present"/>
                     </coding>
                  </valueCodeableConcept>
               </extension>
            </verificationStatus>
            <category>
               <coding>
                  <system value="http://snomed.info/sct"/>
                  <code value="282291009"/>
                  <display value="Diagnosis"/>
               </coding>
            </category>
            <code>
               <coding>
                  <system value="http://snomed.info/sct"/>
                  <code value="16114001"/>
                  <display value="fractuur van enkel"/>
               </coding>
            </code>
            <bodySite>
               <extension url="http://nictiz.nl/fhir/StructureDefinition/BodySite-Qualifier">
                  <valueCodeableConcept>
                     <coding>
                        <system value="http://snomed.info/sct"/>
                        <code value="7771000"/>
                        <display value="Left"/>
                     </coding>
                  </valueCodeableConcept>
               </extension>
               <coding>
                  <system value="http://snomed.info/sct"/>
                  <code value="70258002"/>
                  <display value="Enkel"/>
               </coding>
            </bodySite>
            <subject>
               <reference value="urn:uuid:445c3616-3daf-11ed-1523-020000000000"/>
               <display value="Dennis D. Dennis Janse"/>
            </subject>
            <onsetDateTime value="${DATE, T, D, +1}"/>
            <note>
               <text value="Op een bal gaan staan tijdens het voetballen."/>
            </note>
         </Condition>
      </resource>
      <search>
         <mode value="include"/>
      </search>
   </entry>
</Bundle>
