<?xml-model href="http://hl7.org/fhir/STU3/bundle.sch" type="application/xml" schematypens="http://purl.oclc.org/dsdl/schematron"?><Bundle xmlns="http://hl7.org/fhir"
        xmlns:xsi="http://www.w3.org/2001/XMLSchema-instance"
        xsi:schemaLocation="http://hl7.org/fhir http://hl7.org/fhir/STU3/fhir-all.xsd">
   <id value="05ed26ab-3b35-11ed-1219-020000000000"/>
   <type value="searchset"/>
   <total value="6"/>
   <entry>
      <fullUrl value="urn:uuid:05ed26ae-3b35-11ed-1219-020000000000"/>
      <resource>
         <Observation>
            <meta>
               <profile value="http://nictiz.nl/fhir/StructureDefinition/zib-LaboratoryTestResult-Observation"/>
            </meta>
            <text>
               <status value="extensions"/>
               <div xmlns="http://www.w3.org/1999/xhtml">
                  <table>
                     <caption>Observatie/bepaling. Subject: Maria Francisca M.F. Maria van 't Hoen Verheul. Categorie: <span title="Laboratory test finding (49581000146104 - SNOMED CT)">Laboratory test finding</span>, <span title="Hematology (252275004 - SNOMED CT)">Hematology</span>, Status: definitief</caption>
                     <tbody>
                        <tr>
                           <th>Bepalingdatum/tijd</th>
                           <td colspan="2">${DATE, T, D, +1}T09:00:00+02:00</td>
                        </tr>
                        <tr>
                           <th>Code</th>
                           <th>Waarde</th>
                           <th>Referentiewaarden</th>
                        </tr>
                        <tr>
                           <td>
                              <span title="Monocytes [#/volume] in Blood (26484-6 - LOINC)">Monocytes [#/volume] in Blood</span>
                           </td>
                           <td>0.43E+9 /L</td>
                           <td>
                              <div>
                                 <span title="Normal Range (normal - referencerange-meaning)">Normal Range</span> 0.3E+9 /L - 1.00E+9 /L</div>
                           </td>
                        </tr>
                     </tbody>
                  </table>
               </div>
            </text>
            <status value="final">
               <extension url="http://nictiz.nl/fhir/StructureDefinition/code-specification">
                  <valueCodeableConcept>
                     <coding>
                        <system value="urn:oid:2.16.840.1.113883.2.4.3.11.60.40.4.16.1"/>
                        <code value="final"/>
                        <display value="Final"/>
                     </coding>
                  </valueCodeableConcept>
               </extension>
            </status>
            <category>
               <coding>
                  <system value="http://snomed.info/sct"/>
                  <code value="49581000146104"/>
                  <display value="Laboratory test finding"/>
               </coding>
            </category>
            <category>
               <coding>
                  <system value="http://snomed.info/sct"/>
                  <code value="252275004"/>
                  <display value="Hematology"/>
               </coding>
            </category>
            <code>
               <coding>
                  <system value="http://loinc.org"/>
                  <code value="26484-6"/>
                  <display value="Monocytes [#/volume] in Blood"/>
               </coding>
            </code>
            <subject>
               <reference value="urn:uuid:05ed3abe-3b35-11ed-1219-020000000000"/>
               <display value="Maria Francisca M.F. Maria van 't Hoen Verheul"/>
            </subject>
            <effectiveDateTime value="${DATE, T, D, +1}T09:00:00+02:00"/>
            <valueQuantity>
               <value value="0.43E+9"/>
               <unit value="/L"/>
               <system value="http://unitsofmeasure.org"/>
               <code value="/L"/>
            </valueQuantity>
            <referenceRange>
               <low>
                  <value value="0.3E+9"/>
                  <unit value="/L"/>
                  <system value="http://unitsofmeasure.org"/>
                  <code value="/L"/>
               </low>
               <high>
                  <value value="1.00E+9"/>
                  <unit value="/L"/>
                  <system value="http://unitsofmeasure.org"/>
                  <code value="/L"/>
               </high>
               <type>
                  <coding>
                     <system value="http://hl7.org/fhir/referencerange-meaning"/>
                     <code value="normal"/>
                     <display value="Normal Range"/>
                  </coding>
               </type>
            </referenceRange>
         </Observation>
      </resource>
      <search>
         <mode value="match"/>
      </search>
   </entry>
   <entry>
      <fullUrl value="urn:uuid:05ed26ae-3b35-11ed-1219-020000000000"/>
      <resource>
         <Observation>
            <meta>
               <profile value="http://nictiz.nl/fhir/StructureDefinition/zib-LaboratoryTestResult-Observation"/>
            </meta>
            <text>
               <status value="extensions"/>
               <div xmlns="http://www.w3.org/1999/xhtml">
                  <table>
                     <caption>Observatie/bepaling. Subject: Maria Francisca M.F. Maria van 't Hoen Verheul. Categorie: <span title="Laboratory test finding (49581000146104 - SNOMED CT)">Laboratory test finding</span>, <span title="Hematology (252275004 - SNOMED CT)">Hematology</span>, Status: definitief</caption>
                     <tbody>
                        <tr>
                           <th>Bepalingdatum/tijd</th>
                           <td colspan="3">${DATE, T, D, +1}T09:00:00+02:00</td>
                        </tr>
                        <tr>
                           <th>Code</th>
                           <th>Waarde</th>
                           <th>Interpretatie</th>
                           <th>Referentiewaarden</th>
                        </tr>
                        <tr>
                           <td>
                              <span title="Lymphocytes [#/volume] in Blood by Manual count (732-8 - LOINC)">Lymphocytes [#/volume] in Blood by Manual count</span>
                           </td>
                           <td>0.86E+9 /L</td>
                           <td>
                              <span title="Low (L - v2/0078)">Low</span>
                           </td>
                           <td>
                              <div>
                                 <span title="Normal Range (normal - referencerange-meaning)">Normal Range</span> 1.00E+9 /L - 3.50E+9 /L</div>
                           </td>
                        </tr>
                     </tbody>
                  </table>
               </div>
            </text>
            <status value="final">
               <extension url="http://nictiz.nl/fhir/StructureDefinition/code-specification">
                  <valueCodeableConcept>
                     <coding>
                        <system value="urn:oid:2.16.840.1.113883.2.4.3.11.60.40.4.16.1"/>
                        <code value="final"/>
                        <display value="Final"/>
                     </coding>
                  </valueCodeableConcept>
               </extension>
            </status>
            <category>
               <coding>
                  <system value="http://snomed.info/sct"/>
                  <code value="49581000146104"/>
                  <display value="Laboratory test finding"/>
               </coding>
            </category>
            <category>
               <coding>
                  <system value="http://snomed.info/sct"/>
                  <code value="252275004"/>
                  <display value="Hematology"/>
               </coding>
            </category>
            <code>
               <coding>
                  <system value="http://loinc.org"/>
                  <code value="732-8"/>
                  <display value="Lymphocytes [#/volume] in Blood by Manual count"/>
               </coding>
            </code>
            <subject>
               <reference value="urn:uuid:05ed3abe-3b35-11ed-1219-020000000000"/>
               <display value="Maria Francisca M.F. Maria van 't Hoen Verheul"/>
            </subject>
            <effectiveDateTime value="${DATE, T, D, +1}T09:00:00+02:00"/>
            <valueQuantity>
               <value value="0.86E+9"/>
               <unit value="/L"/>
               <system value="http://unitsofmeasure.org"/>
               <code value="/L"/>
            </valueQuantity>
            <interpretation>
               <coding>
                  <system value="http://hl7.org/fhir/v2/0078"/>
                  <code value="L"/>
                  <display value="Low"/>
               </coding>
            </interpretation>
            <referenceRange>
               <low>
                  <value value="1.00E+9"/>
                  <unit value="/L"/>
                  <system value="http://unitsofmeasure.org"/>
                  <code value="/L"/>
               </low>
               <high>
                  <value value="3.50E+9"/>
                  <unit value="/L"/>
                  <system value="http://unitsofmeasure.org"/>
                  <code value="/L"/>
               </high>
               <type>
                  <coding>
                     <system value="http://hl7.org/fhir/referencerange-meaning"/>
                     <code value="normal"/>
                     <display value="Normal Range"/>
                  </coding>
               </type>
            </referenceRange>
         </Observation>
      </resource>
      <search>
         <mode value="match"/>
      </search>
   </entry>
   <entry>
      <fullUrl value="urn:uuid:05ed26ae-3b35-11ed-1219-020000000000"/>
      <resource>
         <Observation>
            <meta>
               <profile value="http://nictiz.nl/fhir/StructureDefinition/zib-LaboratoryTestResult-Observation"/>
            </meta>
            <text>
               <status value="extensions"/>
               <div xmlns="http://www.w3.org/1999/xhtml">
                  <table>
                     <caption>Observatie/bepaling. Subject: Maria Francisca M.F. Maria van 't Hoen Verheul. Categorie: <span title="Laboratory test finding (49581000146104 - SNOMED CT)">Laboratory test finding</span>, <span title="Hematology (252275004 - SNOMED CT)">Hematology</span>, Status: definitief</caption>
                     <tbody>
                        <tr>
                           <th>Bepalingdatum/tijd</th>
                           <td>${DATE, T, D, +1}T09:00:00+02:00</td>
                        </tr>
                        <tr>
                           <th>Code</th>
                           <th>Waarde</th>
                        </tr>
                        <tr>
                           <td>
                              <span title="Large granular lymphocytes [Presence] in Blood (59808-6 - LOINC)">Large granular lymphocytes [Presence] in Blood</span>
                           </td>
                           <td>+</td>
                        </tr>
                     </tbody>
                  </table>
               </div>
            </text>
            <status value="final">
               <extension url="http://nictiz.nl/fhir/StructureDefinition/code-specification">
                  <valueCodeableConcept>
                     <coding>
                        <system value="urn:oid:2.16.840.1.113883.2.4.3.11.60.40.4.16.1"/>
                        <code value="final"/>
                        <display value="Final"/>
                     </coding>
                  </valueCodeableConcept>
               </extension>
            </status>
            <category>
               <coding>
                  <system value="http://snomed.info/sct"/>
                  <code value="49581000146104"/>
                  <display value="Laboratory test finding"/>
               </coding>
            </category>
            <category>
               <coding>
                  <system value="http://snomed.info/sct"/>
                  <code value="252275004"/>
                  <display value="Hematology"/>
               </coding>
            </category>
            <code>
               <coding>
                  <system value="http://loinc.org"/>
                  <code value="59808-6"/>
                  <display value="Large granular lymphocytes [Presence] in Blood"/>
               </coding>
            </code>
            <subject>
               <reference value="urn:uuid:05ed3abe-3b35-11ed-1219-020000000000"/>
               <display value="Maria Francisca M.F. Maria van 't Hoen Verheul"/>
            </subject>
            <effectiveDateTime value="${DATE, T, D, +1}T09:00:00+02:00"/>
            <valueString value="+"/>
         </Observation>
      </resource>
      <search>
         <mode value="match"/>
      </search>
   </entry>
   <entry>
      <fullUrl value="urn:uuid:05ed26ae-3b35-11ed-1219-020000000000"/>
      <resource>
         <Specimen>
            <meta>
               <profile value="http://nictiz.nl/fhir/StructureDefinition/zib-LaboratoryTestResult-Specimen"/>
            </meta>
            <text>
               <status value="extensions"/>
               <div xmlns="http://www.w3.org/1999/xhtml">
                  <table>
                     <caption>Specimen. Subject: Maria Francisca M.F. Maria van 't Hoen Verheul. </caption>
                     <tbody>
                        <tr>
                           <th>Type</th>
                           <td>
                              <span title="Serum (67922002 - SNOMED CT)">Serum</span>
                           </td>
                        </tr>
                        <tr>
                           <th>Inzameling</th>
                           <td>${DATE, T, D, +1}T08:00:00+02:00<div>Methode: <span title="venapunctie voor bloedtest (28520004 - SNOMED CT)">venapunctie voor bloedtest</span>
                              </div>
                           </td>
                        </tr>
                     </tbody>
                  </table>
               </div>
            </text>
            <type>
               <coding>
                  <system value="http://snomed.info/sct"/>
                  <code value="67922002"/>
                  <display value="Serum"/>
               </coding>
            </type>
            <subject>
               <reference value="urn:uuid:05ed3abe-3b35-11ed-1219-020000000000"/>
               <display value="Maria Francisca M.F. Maria van 't Hoen Verheul"/>
            </subject>
            <collection>
               <collectedDateTime value="${DATE, T, D, +1}T08:00:00+02:00"/>
               <method>
                  <coding>
                     <system value="http://snomed.info/sct"/>
                     <code value="28520004"/>
                     <display value="venapunctie voor bloedtest"/>
                  </coding>
               </method>
            </collection>
         </Specimen>
      </resource>
      <search>
         <mode value="match"/>
      </search>
   </entry>
   <entry>
      <fullUrl value="urn:uuid:05ed405a-3b35-11ed-1219-020000000000"/>
      <resource>
         <Observation>
            <meta>
               <profile value="http://nictiz.nl/fhir/StructureDefinition/zib-LaboratoryTestResult-Observation"/>
            </meta>
            <text>
               <status value="extensions"/>
               <div xmlns="http://www.w3.org/1999/xhtml">
                  <table>
                     <caption>Observatie/bepaling. Subject: Maria Francisca M.F. Maria van 't Hoen Verheul. Categorie: <span title="Laboratory test finding (49581000146104 - SNOMED CT)">Laboratory test finding</span>, <span title="Chemistry (275711006 - SNOMED CT)">Chemistry</span>, Status: definitief</caption>
                     <tbody>
                        <tr>
                           <th>Bepalingdatum/tijd</th>
                           <td>${DATE, T, D, +2}T09:00:00+02:00</td>
                        </tr>
                        <tr>
                           <th>Code</th>
                           <th>Waarde</th>
                        </tr>
                        <tr>
                           <td>
                              <span title="Cancer Ag 15-3 [Presence] in Serum or Plasma (2007-3 - LOINC)">Cancer Ag 15-3 [Presence] in Serum or Plasma</span>
                           </td>
                           <td>13 E/mL</td>
                        </tr>
                     </tbody>
                  </table>
               </div>
            </text>
            <status value="final">
               <extension url="http://nictiz.nl/fhir/StructureDefinition/code-specification">
                  <valueCodeableConcept>
                     <coding>
                        <system value="urn:oid:2.16.840.1.113883.2.4.3.11.60.40.4.16.1"/>
                        <code value="final"/>
                        <display value="Final"/>
                     </coding>
                  </valueCodeableConcept>
               </extension>
            </status>
            <category>
               <coding>
                  <system value="http://snomed.info/sct"/>
                  <code value="49581000146104"/>
                  <display value="Laboratory test finding"/>
               </coding>
            </category>
            <category>
               <coding>
                  <system value="http://snomed.info/sct"/>
                  <code value="275711006"/>
                  <display value="Chemistry"/>
               </coding>
            </category>
            <code>
               <coding>
                  <system value="http://loinc.org"/>
                  <code value="2007-3"/>
                  <display value="Cancer Ag 15-3 [Presence] in Serum or Plasma"/>
               </coding>
            </code>
            <subject>
               <reference value="urn:uuid:05ed3abe-3b35-11ed-1219-020000000000"/>
               <display value="Maria Francisca M.F. Maria van 't Hoen Verheul"/>
            </subject>
            <effectiveDateTime value="${DATE, T, D, +2}T09:00:00+02:00"/>
            <valueQuantity>
               <value value="13"/>
               <unit value="E/mL"/>
               <system value="http://unitsofmeasure.org"/>
               <code value="{E/mL}"/>
            </valueQuantity>
         </Observation>
      </resource>
      <search>
         <mode value="match"/>
      </search>
   </entry>
   <entry>
      <fullUrl value="urn:uuid:05ed405a-3b35-11ed-1219-020000000000"/>
      <resource>
         <Specimen>
            <meta>
               <profile value="http://nictiz.nl/fhir/StructureDefinition/zib-LaboratoryTestResult-Specimen"/>
            </meta>
            <text>
               <status value="extensions"/>
               <div xmlns="http://www.w3.org/1999/xhtml">
                  <table>
                     <caption>Specimen. Subject: Maria Francisca M.F. Maria van 't Hoen Verheul. </caption>
                     <tbody>
                        <tr>
                           <th>Type</th>
                           <td>
                              <span title="serum of plasma (122592007 - SNOMED CT)">serum of plasma</span>
                           </td>
                        </tr>
                     </tbody>
                  </table>
               </div>
            </text>
            <type>
               <coding>
                  <system value="http://snomed.info/sct"/>
                  <code value="122592007"/>
                  <display value="serum of plasma"/>
               </coding>
            </type>
            <subject>
               <reference value="urn:uuid:05ed3abe-3b35-11ed-1219-020000000000"/>
               <display value="Maria Francisca M.F. Maria van 't Hoen Verheul"/>
            </subject>
         </Specimen>
      </resource>
      <search>
         <mode value="match"/>
      </search>
   </entry>
   <entry>
      <fullUrl value="urn:uuid:05ed3abe-3b35-11ed-1219-020000000000"/>
      <resource>
         <Patient>
            <meta>
               <profile value="http://fhir.nl/fhir/StructureDefinition/nl-core-patient"/>
            </meta>
            <text>
               <status value="extensions"/>
               <div xmlns="http://www.w3.org/1999/xhtml">
                  <div>Id 999999072 (BSN), Maria Francisca M.F. van 't Hoen-Verheul (Maria), Vrouw, 16 april 1956, Meerling, <span title="Domestic partner (T - MaritalStatus)">Domestic partner</span>
                  </div>
                  <div>
                     <a href="tel:+316-10101010">+316-10101010</a> (Tel Mobiel), <a href="mailto:francisca@maria.org">francisca@maria.org</a> (E-mail Privé)</div>
                  <div>Steenstraat 143 A II, 6584YZ Molenhoek Mook en Middelaar, NL (officieel Privé (hoofd) Bezoek)</div>
               </div>
            </text>
            <identifier>
               <system value="http://fhir.nl/fhir/NamingSystem/bsn"/>
               <value value="999999072"/>
            </identifier>
            <name>
               <extension url="http://hl7.org/fhir/StructureDefinition/humanname-assembly-order">
                  <valueCode value="NL4"/>
               </extension>
               <family value="van 't Hoen-Verheul">
                  <extension url="http://hl7.org/fhir/StructureDefinition/humanname-own-prefix">
                     <valueString value="van 't"/>
                  </extension>
                  <extension url="http://hl7.org/fhir/StructureDefinition/humanname-own-name">
                     <valueString value="Hoen"/>
                  </extension>
                  <extension url="http://hl7.org/fhir/StructureDefinition/humanname-partner-name">
                     <valueString value="Verheul"/>
                  </extension>
               </family>
               <given value="Maria Francisca">
                  <extension url="http://hl7.org/fhir/StructureDefinition/iso21090-EN-qualifier">
                     <valueCode value="BR"/>
                  </extension>
               </given>
               <given value="M.F.">
                  <extension url="http://hl7.org/fhir/StructureDefinition/iso21090-EN-qualifier">
                     <valueCode value="IN"/>
                  </extension>
               </given>
               <given value="Maria">
                  <extension url="http://hl7.org/fhir/StructureDefinition/iso21090-EN-qualifier">
                     <valueCode value="CL"/>
                  </extension>
               </given>
            </name>
            <telecom>
               <extension url="http://nictiz.nl/fhir/StructureDefinition/zib-ContactInformation-TelecomType">
                  <valueCodeableConcept>
                     <coding>
                        <system value="http://hl7.org/fhir/v3/AddressUse"/>
                        <code value="MC"/>
                        <display value="Mobile Phone"/>
                     </coding>
                  </valueCodeableConcept>
               </extension>
               <system value="phone"/>
               <value value="+316-10101010"/>
               <use value="mobile"/>
            </telecom>
            <telecom>
               <system value="email"/>
               <value value="francisca@maria.org"/>
               <use value="home"/>
            </telecom>
            <gender value="female">
               <extension url="http://nictiz.nl/fhir/StructureDefinition/code-specification">
                  <valueCodeableConcept>
                     <coding>
                        <system value="http://hl7.org/fhir/v3/AdministrativeGender"/>
                        <code value="F"/>
                        <display value="Female"/>
                     </coding>
                  </valueCodeableConcept>
               </extension>
            </gender>
            <birthDate value="1956-04-16"/>
            <deceasedBoolean value="false"/>
            <address>
               <extension url="http://nictiz.nl/fhir/StructureDefinition/zib-AddressInformation-AddressType">
                  <valueCodeableConcept>
                     <coding>
                        <system value="http://hl7.org/fhir/v3/AddressUse"/>
                        <code value="HP"/>
                        <display value="Officieel adres"/>
                     </coding>
                  </valueCodeableConcept>
               </extension>
               <extension url="http://fhir.nl/fhir/StructureDefinition/nl-core-address-official">
                  <valueBoolean value="true"/>
               </extension>
               <use value="home"/>
               <type value="physical"/>
               <line value="Steenstraat 143 A II">
                  <extension url="http://hl7.org/fhir/StructureDefinition/iso21090-ADXP-streetName">
                     <valueString value="Steenstraat"/>
                  </extension>
                  <extension url="http://hl7.org/fhir/StructureDefinition/iso21090-ADXP-houseNumber">
                     <valueString value="143"/>
                  </extension>
                  <extension url="http://hl7.org/fhir/StructureDefinition/iso21090-ADXP-buildingNumberSuffix">
                     <valueString value="A"/>
                  </extension>
                  <extension url="http://hl7.org/fhir/StructureDefinition/iso21090-ADXP-buildingNumberSuffix">
                     <valueString value="II"/>
                  </extension>
               </line>
               <city value="Molenhoek"/>
               <district value="Mook en Middelaar"/>
               <postalCode value="6584YZ"/>
               <country value="NL">
                  <extension url="http://nictiz.nl/fhir/StructureDefinition/code-specification">
                     <valueCodeableConcept>
                        <coding>
                           <system value="urn:iso:std:iso:3166"/>
                           <code value="NL"/>
                           <display value="Nederland"/>
                        </coding>
                     </valueCodeableConcept>
                  </extension>
               </country>
            </address>
            <maritalStatus>
               <coding>
                  <system value="urn:oid:2.16.840.1.113883.5.2"/>
                  <code value="T"/>
                  <display value="Domestic partner"/>
               </coding>
            </maritalStatus>
            <multipleBirthBoolean value="true"/>
         </Patient>
      </resource>
      <search>
         <mode value="include"/>
      </search>
   </entry>
   <entry>
      <fullUrl value="urn:oid:2.16.840.1.113883.2.4.6.1.141414"/>
      <resource>
         <Practitioner>
            <meta>
               <profile value="http://fhir.nl/fhir/StructureDefinition/nl-core-practitioner"/>
            </meta>
            <text>
               <status value="extensions"/>
               <div xmlns="http://www.w3.org/1999/xhtml">
                  <div>Id 00141414 (AGB-Z), Johanna J. de Bruin (Joke)</div>
                  <div>
                     <a href="tel:2768">2768</a> (Pager)</div>
                  <div>, NL (WP)</div>
               </div>
            </text>
            <identifier>
               <system value="http://fhir.nl/fhir/NamingSystem/agb-z"/>
               <value value="00141414"/>
            </identifier>
            <name>
               <extension url="http://hl7.org/fhir/StructureDefinition/humanname-assembly-order">
                  <valueCode value="UNK"/>
               </extension>
               <family value="de Bruin">
                  <extension url="http://hl7.org/fhir/StructureDefinition/humanname-own-prefix">
                     <valueString value="de"/>
                  </extension>
                  <extension url="http://hl7.org/fhir/StructureDefinition/humanname-own-name">
                     <valueString value="Bruin"/>
                  </extension>
               </family>
               <given value="Johanna">
                  <extension url="http://hl7.org/fhir/StructureDefinition/iso21090-EN-qualifier">
                     <valueCode value="BR"/>
                  </extension>
               </given>
               <given value="J.">
                  <extension url="http://hl7.org/fhir/StructureDefinition/iso21090-EN-qualifier">
                     <valueCode value="IN"/>
                  </extension>
               </given>
               <given value="Joke">
                  <extension url="http://hl7.org/fhir/StructureDefinition/iso21090-EN-qualifier">
                     <valueCode value="CL"/>
                  </extension>
               </given>
            </name>
            <telecom>
               <extension url="http://nictiz.nl/fhir/StructureDefinition/zib-ContactInformation-TelecomType">
                  <valueCodeableConcept>
                     <coding>
                        <system value="http://hl7.org/fhir/v3/AddressUse"/>
                        <code value="PG"/>
                        <display value="Pager"/>
                     </coding>
                  </valueCodeableConcept>
               </extension>
               <system value="pager"/>
               <value value="2768"/>
            </telecom>
            <address>
               <extension url="http://nictiz.nl/fhir/StructureDefinition/zib-AddressInformation-AddressType">
                  <valueCodeableConcept>
                     <coding>
                        <system value="http://hl7.org/fhir/v3/AddressUse"/>
                        <code value="WP"/>
                        <display value="Werkadres"/>
                     </coding>
                  </valueCodeableConcept>
               </extension>
               <use value="work"/>
               <country value="NL">
                  <extension url="http://nictiz.nl/fhir/StructureDefinition/code-specification">
                     <valueCodeableConcept>
                        <coding>
                           <system value="urn:iso:std:iso:3166"/>
                           <code value="NL"/>
                           <display value="Nederland"/>
                        </coding>
                     </valueCodeableConcept>
                  </extension>
               </country>
            </address>
         </Practitioner>
      </resource>
      <search>
         <mode value="include"/>
      </search>
   </entry>
   <entry>
      <fullUrl value="urn:uuid:05ed4056-3b35-11ed-1219-020000000000"/>
      <resource>
         <Organization>
            <meta>
               <profile value="http://fhir.nl/fhir/StructureDefinition/nl-core-organization"/>
            </meta>
            <text>
               <status value="extensions"/>
               <div xmlns="http://www.w3.org/1999/xhtml">
                  <table>
                     <caption>Organisatie. </caption>
                     <tbody>
                        <tr>
                           <th>Naam</th>
                           <td/>
                        </tr>
                     </tbody>
                  </table>
               </div>
            </text>
         </Organization>
      </resource>
      <search>
         <mode value="include"/>
      </search>
   </entry>
   <entry>
      <fullUrl value="urn:uuid:05ed3aff-3b35-11ed-1219-020000000000"/>
      <resource>
         <PractitionerRole>
            <meta>
               <profile value="http://fhir.nl/fhir/StructureDefinition/nl-core-practitionerrole"/>
            </meta>
            <text>
               <status value="extensions"/>
               <div xmlns="http://www.w3.org/1999/xhtml">
                  <table>
                     <caption>Zorgverlenerrol. </caption>
                     <tbody>
                        <tr>
                           <th>Zorgverlener</th>
                           <td>
                              <div>Maria Francisca M.F. Maria van 't Hoen Verheul Johanna J. Joke de Bruin</div>
                              <div>Organisatie informatie: naam eigen ziekenhuis</div>
                           </td>
                        </tr>
                        <tr>
                           <th>Specialisme</th>
                           <td>
                              <span title="Internist (01.016 - http://fhir.nl/fhir/NamingSystem/uzi-rolcode)">Internist</span>
                           </td>
                        </tr>
                        <tr>
                           <th>Contactgegevens</th>
                           <td>
                              <a href="tel:2768">2768</a> (Pager)</td>
                        </tr>
                     </tbody>
                  </table>
               </div>
            </text>
            <practitioner>
               <reference value="urn:oid:2.16.840.1.113883.2.4.6.1.141414"/>
               <display value="Maria Francisca M.F. Maria van 't Hoen Verheul Johanna J. Joke de Bruin"/>
            </practitioner>
            <organization>
               <reference value="urn:uuid:05ed4056-3b35-11ed-1219-020000000000"/>
               <display value="Organisatie informatie: naam eigen ziekenhuis"/>
            </organization>
            <specialty>
               <coding>
                  <system value="http://fhir.nl/fhir/NamingSystem/uzi-rolcode"/>
                  <code value="01.016"/>
                  <display value="Internist"/>
               </coding>
            </specialty>
            <telecom>
               <extension url="http://nictiz.nl/fhir/StructureDefinition/zib-ContactInformation-TelecomType">
                  <valueCodeableConcept>
                     <coding>
                        <system value="http://hl7.org/fhir/v3/AddressUse"/>
                        <code value="PG"/>
                        <display value="Pager"/>
                     </coding>
                  </valueCodeableConcept>
               </extension>
               <system value="pager"/>
               <value value="2768"/>
            </telecom>
         </PractitionerRole>
      </resource>
      <search>
         <mode value="include"/>
      </search>
   </entry>
</Bundle>
