<?xml-model href="http://hl7.org/fhir/STU3/bundle.sch" type="application/xml" schematypens="http://purl.oclc.org/dsdl/schematron"?><Bundle xmlns="http://hl7.org/fhir"
        xmlns:xsi="http://www.w3.org/2001/XMLSchema-instance"
        xsi:schemaLocation="http://hl7.org/fhir http://hl7.org/fhir/STU3/fhir-all.xsd">
   <id value="b171a643-329b-11ed-2989-020000000000"/>
   <type value="searchset"/>
   <total value="3"/>
   <entry>
      <fullUrl value="urn:uuid:b171a646-329b-11ed-2989-020000000000"/>
      <resource>
         <Observation>
            <meta>
               <profile value="http://nictiz.nl/fhir/StructureDefinition/zib-FunctionalOrMentalStatus"/>
            </meta>
            <text>
               <status value="extensions"/>
               <div xmlns="http://www.w3.org/1999/xhtml">
                  <table>
                     <caption>Observatie/bepaling. Subject: Dennis D. Dennis Janse. Categorie: <span title="bevinding betreffende functioneren (118228005 - SNOMED CT)">bevinding betreffende functioneren</span>, Status: definitief</caption>
                     <tfoot>
                        <tr>
                           <td colspan="2">Licht beperkend</td>
                        </tr>
                     </tfoot>
                     <tbody>
                        <tr>
                           <th>Bepalingdatum/tijd</th>
                           <td>Vanaf 1 februari 2012</td>
                        </tr>
                        <tr>
                           <th>Code</th>
                           <th>Waarde</th>
                        </tr>
                        <tr>
                           <td>
                              <span title="gehoorverlies (15188001 - SNOMED CT)">gehoorverlies</span>
                           </td>
                           <td>
                              <span title="licht (255604002 - SNOMED CT)">licht</span>
                           </td>
                        </tr>
                     </tbody>
                  </table>
               </div>
            </text>
            <status value="final"/>
            <category>
               <coding>
                  <system value="http://snomed.info/sct"/>
                  <code value="118228005"/>
                  <display value="bevinding betreffende functioneren"/>
               </coding>
            </category>
            <code>
               <coding>
                  <system value="http://snomed.info/sct"/>
                  <code value="15188001"/>
                  <display value="gehoorverlies"/>
               </coding>
            </code>
            <subject>
               <reference value="urn:uuid:b171ba56-329b-11ed-2989-020000000000"/>
               <display value="Dennis D. Dennis Janse"/>
            </subject>
            <effectivePeriod>
               <start value="2012-02-01"/>
            </effectivePeriod>
            <valueCodeableConcept>
               <coding>
                  <system value="http://snomed.info/sct"/>
                  <code value="255604002"/>
                  <display value="licht"/>
               </coding>
            </valueCodeableConcept>
            <comment value="Licht beperkend"/>
         </Observation>
      </resource>
      <search>
         <mode value="match"/>
      </search>
   </entry>
   <entry>
      <fullUrl value="urn:uuid:b171ba95-329b-11ed-2989-020000000000"/>
      <resource>
         <Observation>
            <meta>
               <profile value="http://nictiz.nl/fhir/StructureDefinition/zib-FunctionalOrMentalStatus"/>
            </meta>
            <text>
               <status value="extensions"/>
               <div xmlns="http://www.w3.org/1999/xhtml">
                  <table>
                     <caption>Observatie/bepaling. Subject: Dennis D. Dennis Janse. Categorie: <span title="bevinding betreffende functioneren (118228005 - SNOMED CT)">bevinding betreffende functioneren</span>, Status: definitief</caption>
                     <tfoot>
                        <tr>
                           <td colspan="2">Mag nog niet op loopgips steunen</td>
                        </tr>
                     </tfoot>
                     <tbody>
                        <tr>
                           <th>Bepalingdatum/tijd</th>
                           <td>Vanaf ${DATE, T, D, +1}</td>
                        </tr>
                        <tr>
                           <th>Code</th>
                           <th>Waarde</th>
                        </tr>
                        <tr>
                           <td>
                              <span title="vermogen om zich te verplaatsen (301438001 - SNOMED CT)">vermogen om zich te verplaatsen</span>
                           </td>
                           <td>
                              <span title="ernstig (24484000 - SNOMED CT)">ernstig</span>
                           </td>
                        </tr>
                     </tbody>
                  </table>
               </div>
            </text>
            <status value="final"/>
            <category>
               <coding>
                  <system value="http://snomed.info/sct"/>
                  <code value="118228005"/>
                  <display value="bevinding betreffende functioneren"/>
               </coding>
            </category>
            <code>
               <coding>
                  <system value="http://snomed.info/sct"/>
                  <code value="301438001"/>
                  <display value="vermogen om zich te verplaatsen"/>
               </coding>
            </code>
            <subject>
               <reference value="urn:uuid:b171ba56-329b-11ed-2989-020000000000"/>
               <display value="Dennis D. Dennis Janse"/>
            </subject>
            <effectivePeriod>
               <start value="${DATE, T, D, +1}"/>
            </effectivePeriod>
            <valueCodeableConcept>
               <coding>
                  <system value="http://snomed.info/sct"/>
                  <code value="24484000"/>
                  <display value="ernstig"/>
               </coding>
            </valueCodeableConcept>
            <comment value="Mag nog niet op loopgips steunen"/>
         </Observation>
      </resource>
      <search>
         <mode value="match"/>
      </search>
   </entry>
   <entry>
      <fullUrl value="urn:uuid:b171bfd6-329b-11ed-2989-020000000000"/>
      <resource>
         <Observation>
            <meta>
               <profile value="http://nictiz.nl/fhir/StructureDefinition/zib-FunctionalOrMentalStatus"/>
            </meta>
            <text>
               <status value="extensions"/>
               <div xmlns="http://www.w3.org/1999/xhtml">
                  <table>
                     <caption>Observatie/bepaling. Subject: Dennis D. Dennis Janse. Categorie: <span title="bevinding betreffende mentale toestand, gedrag en/of psychosociaal functioneren (384821006 - SNOMED CT)">bevinding betreffende mentale toestand, gedrag en/of psychosociaal functioneren</span>, Status: definitief</caption>
                     <tfoot>
                        <tr>
                           <td colspan="2">Met name in wintermaanden</td>
                        </tr>
                     </tfoot>
                     <tbody>
                        <tr>
                           <th>Bepalingdatum/tijd</th>
                           <td>Vanaf 2010</td>
                        </tr>
                        <tr>
                           <th>Code</th>
                           <th>Waarde</th>
                        </tr>
                        <tr>
                           <td>
                              <span title="sombere stemming (366979004 - SNOMED CT)">sombere stemming</span>
                           </td>
                           <td>
                              <span title="ernstig (24484000 - SNOMED CT)">ernstig</span>
                           </td>
                        </tr>
                     </tbody>
                  </table>
               </div>
            </text>
            <status value="final"/>
            <category>
               <coding>
                  <system value="http://snomed.info/sct"/>
                  <code value="384821006"/>
                  <display value="bevinding betreffende mentale toestand, gedrag en/of psychosociaal functioneren"/>
               </coding>
            </category>
            <code>
               <coding>
                  <system value="http://snomed.info/sct"/>
                  <code value="366979004"/>
                  <display value="sombere stemming"/>
               </coding>
            </code>
            <subject>
               <reference value="urn:uuid:b171ba56-329b-11ed-2989-020000000000"/>
               <display value="Dennis D. Dennis Janse"/>
            </subject>
            <effectivePeriod>
               <start value="2010"/>
            </effectivePeriod>
            <valueCodeableConcept>
               <coding>
                  <system value="http://snomed.info/sct"/>
                  <code value="24484000"/>
                  <display value="ernstig"/>
               </coding>
            </valueCodeableConcept>
            <comment value="Met name in wintermaanden"/>
         </Observation>
      </resource>
      <search>
         <mode value="match"/>
      </search>
   </entry>
   <entry>
      <fullUrl value="urn:uuid:b171a649-329b-11ed-2989-020000000000"/>
      <resource>
         <Patient>
            <meta>
               <profile value="http://fhir.nl/fhir/StructureDefinition/nl-core-patient"/>
            </meta>
            <text>
               <status value="extensions"/>
               <div xmlns="http://www.w3.org/1999/xhtml">
                  <div/>
               </div>
            </text>
         </Patient>
      </resource>
      <search>
         <mode value="include"/>
      </search>
   </entry>
   <entry>
      <fullUrl value="urn:uuid:b171ba56-329b-11ed-2989-020000000000"/>
      <resource>
         <Patient>
            <meta>
               <profile value="http://fhir.nl/fhir/StructureDefinition/nl-core-patient"/>
            </meta>
            <text>
               <status value="extensions"/>
               <div xmlns="http://www.w3.org/1999/xhtml">
                  <div>Id 999999151 (BSN), Dennis D. Janse (Dennis), Man, 2 februari 1950</div>
                  <div/>
               </div>
            </text>
            <identifier>
               <system value="http://fhir.nl/fhir/NamingSystem/bsn"/>
               <value value="999999151"/>
            </identifier>
            <name>
               <extension url="http://hl7.org/fhir/StructureDefinition/humanname-assembly-order">
                  <valueCode value="NL1"/>
               </extension>
               <family value="Janse">
                  <extension url="http://hl7.org/fhir/StructureDefinition/humanname-own-name">
                     <valueString value="Janse"/>
                  </extension>
               </family>
               <given value="Dennis">
                  <extension url="http://hl7.org/fhir/StructureDefinition/iso21090-EN-qualifier">
                     <valueCode value="BR"/>
                  </extension>
               </given>
               <given value="D.">
                  <extension url="http://hl7.org/fhir/StructureDefinition/iso21090-EN-qualifier">
                     <valueCode value="IN"/>
                  </extension>
               </given>
               <given value="Dennis">
                  <extension url="http://hl7.org/fhir/StructureDefinition/iso21090-EN-qualifier">
                     <valueCode value="CL"/>
                  </extension>
               </given>
            </name>
            <gender value="male">
               <extension url="http://nictiz.nl/fhir/StructureDefinition/code-specification">
                  <valueCodeableConcept>
                     <coding>
                        <system value="http://hl7.org/fhir/v3/AdministrativeGender"/>
                        <code value="M"/>
                        <display value="Male"/>
                     </coding>
                  </valueCodeableConcept>
               </extension>
            </gender>
            <birthDate value="1950-02-02"/>
            <deceasedBoolean/>
            <address/>
            <multipleBirthBoolean value="false"/>
         </Patient>
      </resource>
      <search>
         <mode value="include"/>
      </search>
   </entry>
   <entry>
      <fullUrl value="urn:uuid:b171aec6-329b-11ed-2989-020000000000"/>
      <resource>
         <Practitioner>
            <meta>
               <profile value="http://fhir.nl/fhir/StructureDefinition/nl-core-practitioner"/>
            </meta>
            <text>
               <status value="extensions"/>
               <div xmlns="http://www.w3.org/1999/xhtml">
                  <div/>
               </div>
            </text>
         </Practitioner>
      </resource>
      <search>
         <mode value="include"/>
      </search>
   </entry>
   <entry>
      <fullUrl value="urn:uuid:b171ba90-329b-11ed-2989-020000000000"/>
      <resource>
         <Organization>
            <meta>
               <profile value="http://fhir.nl/fhir/StructureDefinition/nl-core-organization"/>
            </meta>
            <text>
               <status value="extensions"/>
               <div xmlns="http://www.w3.org/1999/xhtml">
                  <table>
                     <caption>Organisatie. </caption>
                     <tbody>
                        <tr>
                           <th>Naam</th>
                           <td/>
                        </tr>
                     </tbody>
                  </table>
               </div>
            </text>
         </Organization>
      </resource>
      <search>
         <mode value="include"/>
      </search>
   </entry>
   <entry>
      <fullUrl value="urn:uuid:b171ba92-329b-11ed-2989-020000000000"/>
      <resource>
         <PractitionerRole>
            <meta>
               <profile value="http://fhir.nl/fhir/StructureDefinition/nl-core-practitionerrole"/>
            </meta>
            <text>
               <status value="extensions"/>
               <div xmlns="http://www.w3.org/1999/xhtml">
                  <table>
                     <caption>Zorgverlenerrol. </caption>
                     <tbody>
                        <tr>
                           <th>Zorgverlener</th>
                           <td>
                              <div>urn:uuid:b171aec6-329b-11ed-2989-020000000000</div>
                           </td>
                        </tr>
                     </tbody>
                  </table>
               </div>
            </text>
            <practitioner>
               <reference value="urn:uuid:b171aec6-329b-11ed-2989-020000000000"/>
            </practitioner>
         </PractitionerRole>
      </resource>
      <search>
         <mode value="include"/>
      </search>
   </entry>
</Bundle>
