<Bundle xmlns="http://hl7.org/fhir">
   <id value="ca12e534-d51a-11ec-2166-020000000000"/>
   <type value="searchset"/>
   <total value="2"/>
   <entry>
      <fullUrl value="urn:uuid:ca12e582-d51a-11ec-2166-020000000000"/>
      <resource>
         <MedicationDispense>
            <id value="216840111388324311999774220370091-MBH200onderbrekenTAstart"/>
            <meta>
               <profile value="http://nictiz.nl/fhir/StructureDefinition/mp-AdministrationAgreement"/>
            </meta>
            <extension url="http://nictiz.nl/fhir/StructureDefinition/ext-AdministrationAgreement.AdministrationAgreementDateTime">
               <valueDateTime value="2021-12-27T09:06:00+01:00"/>
            </extension>
            <extension url="http://nictiz.nl/fhir/StructureDefinition/ext-RenderedDosageInstruction">
               <valueString value="Vanaf 28 dec 2021, tot en met 6 jan 2022, 3 maal per dag 1 stuk, Oraal"/>
            </extension>
            <extension url="http://nictiz.nl/fhir/StructureDefinition/ext-TimeInterval.Period">
               <valuePeriod>
                  <start value="2021-12-28T00:00:00+01:00"/>
                  <end value="2022-01-06T23:59:59+01:00"/>
               </valuePeriod>
            </extension>
            <extension url="http://nictiz.nl/fhir/StructureDefinition/ext-PharmaceuticalTreatment.Identifier">
               <valueIdentifier>
                  <system value="urn:oid:2.16.840.1.113883.2.4.3.11.999.77.1.1"/>
                  <value value="MBH_200_onderbreken"/>
               </valueIdentifier>
            </extension>
            <identifier>
               <system value="urn:oid:2.16.840.1.113883.2.4.3.11.999.77.422037009.1"/>
               <value value="MBH_200_onderbreken_TA_start"/>
            </identifier>
            <status value="unknown"/>
            <category>
               <coding>
                  <system value="http://snomed.info/sct"/>
                  <code value="422037009"/>
                  <display value="toedieningsafspraak"/>
               </coding>
            </category>
            <medicationReference>
               <reference value="urn:uuid:ca12e5be-d51a-11ec-2166-020000000000"/>
               <type value="Medication"/>
               <display value="BROXIL CAPSULE 500MG"/>
            </medicationReference>
            <subject>
               <reference value="urn:uuid:ca12e564-d51a-11ec-2166-020000000000"/>
               <type value="Patient"/>
               <display value="Patient, J. de XXX_Luzac"/>
            </subject>
            <performer>
               <actor>
                  <reference value="urn:uuid:ca12e5dc-d51a-11ec-2166-020000000000"/>
                  <type value="Organization"/>
                  <display value="Healthcare provider (organization), Apotheek De Gulle Gaper"/>
               </actor>
            </performer>
            <authorizingPrescription>
               <type value="MedicationRequest"/>
               <identifier>
                  <system value="urn:oid:2.16.840.1.113883.2.4.3.11.999.77.16076005.1"/>
                  <value value="MBH_200_onderbreken_MA_start"/>
               </identifier>
               <display value="relatie naar medicatieafspraak met identificatie: MBH_200_onderbreken_MA_start || 2.16.840.1.113883.2.4.3.11.999.77.16076005.1"/>
            </authorizingPrescription>
            <dosageInstruction>
               <timing>
                  <repeat>
                     <frequency value="3"/>
                     <period value="1"/>
                     <periodUnit value="d"/>
                  </repeat>
               </timing>
               <route>
                  <coding>
                     <system value="urn:oid:2.16.840.1.113883.2.4.4.9"/>
                     <code value="9"/>
                     <display value="Oraal"/>
                  </coding>
               </route>
               <doseAndRate>
                  <doseQuantity>
                     <extension url="http://hl7.org/fhir/StructureDefinition/iso21090-PQ-translation">
                        <valueQuantity>
                           <value value="1"/>
                           <unit value="stuk"/>
                           <system value="urn:oid:2.16.840.1.113883.2.4.4.1.900.2"/>
                           <code value="245"/>
                        </valueQuantity>
                     </extension>
                     <value value="1"/>
                     <unit value="stuk"/>
                     <system value="http://unitsofmeasure.org"/>
                     <code value="1"/>
                  </doseQuantity>
               </doseAndRate>
            </dosageInstruction>
         </MedicationDispense>
      </resource>
      <search>
         <mode value="match"/>
      </search>
   </entry>
   <entry>
      <fullUrl value="urn:uuid:ca12e5a0-d51a-11ec-2166-020000000000"/>
      <resource>
         <MedicationDispense>
            <id value="ca130061-d51a-11ec-2166-020000000000"/>
            <meta>
               <profile value="http://nictiz.nl/fhir/StructureDefinition/mp-AdministrationAgreement"/>
            </meta>
            <extension url="http://nictiz.nl/fhir/StructureDefinition/ext-AdministrationAgreement.AdministrationAgreementDateTime">
               <valueDateTime value="2021-12-31T19:12:00+01:00"/>
            </extension>
            <extension url="http://nictiz.nl/fhir/StructureDefinition/ext-RenderedDosageInstruction">
               <valueString value="Vanaf 28 dec 2021, tot en met 31 dec 2021, 3 maal per dag 1 stuk, Oraal, tijdelijk gestopt"/>
            </extension>
            <extension url="http://nictiz.nl/fhir/StructureDefinition/ext-TimeInterval.Period">
               <valuePeriod>
                  <start value="2021-12-28T00:00:00+01:00"/>
                  <end value="2021-12-31T23:59:59+01:00"/>
               </valuePeriod>
            </extension>
            <extension url="http://nictiz.nl/fhir/StructureDefinition/ext-PharmaceuticalTreatment.Identifier">
               <valueIdentifier>
                  <system value="urn:oid:2.16.840.1.113883.2.4.3.11.999.77.1.1"/>
                  <value value="MBH_200_onderbreken"/>
               </valueIdentifier>
            </extension>
            <modifierExtension url="http://nictiz.nl/fhir/StructureDefinition/ext-StopType">
               <valueCodeableConcept>
                  <coding>
                     <system value="http://snomed.info/sct"/>
                     <code value="113381000146106"/>
                     <display value="tijdelijk gestopt met medicatie"/>
                  </coding>
               </valueCodeableConcept>
            </modifierExtension>
            <identifier>
               <system value="urn:oid:2.16.840.1.113883.2.4.3.11.999.77.422037009.1"/>
               <value value="MBH_200_onderbreken_TA_onderbreken"/>
            </identifier>
            <status value="unknown"/>
            <category>
               <coding>
                  <system value="http://snomed.info/sct"/>
                  <code value="422037009"/>
                  <display value="toedieningsafspraak"/>
               </coding>
            </category>
            <medicationReference>
               <reference value="urn:uuid:ca12e5be-d51a-11ec-2166-020000000000"/>
               <type value="Medication"/>
               <display value="BROXIL CAPSULE 500MG"/>
            </medicationReference>
            <subject>
               <reference value="urn:uuid:ca12e564-d51a-11ec-2166-020000000000"/>
               <type value="Patient"/>
               <display value="Patient, J. de XXX_Luzac"/>
            </subject>
            <performer>
               <actor>
                  <reference value="urn:uuid:ca12e618-d51a-11ec-2166-020000000000"/>
                  <type value="Organization"/>
                  <display value="Healthcare provider (organization), Apotheek Jansen en Co"/>
               </actor>
            </performer>
            <authorizingPrescription>
               <type value="MedicationRequest"/>
               <identifier>
                  <system value="urn:oid:2.16.840.1.113883.2.4.3.11.999.77.16076005.1"/>
                  <value value="MBH_200_onderbreken_MA_onderbreken"/>
               </identifier>
               <display value="relatie naar medicatieafspraak met identificatie: MBH_200_onderbreken_MA_onderbreken || 2.16.840.1.113883.2.4.3.11.999.77.16076005.1"/>
            </authorizingPrescription>
            <dosageInstruction>
               <timing>
                  <repeat>
                     <frequency value="3"/>
                     <period value="1"/>
                     <periodUnit value="d"/>
                  </repeat>
               </timing>
               <route>
                  <coding>
                     <system value="urn:oid:2.16.840.1.113883.2.4.4.9"/>
                     <code value="9"/>
                     <display value="Oraal"/>
                  </coding>
               </route>
               <doseAndRate>
                  <doseQuantity>
                     <extension url="http://hl7.org/fhir/StructureDefinition/iso21090-PQ-translation">
                        <valueQuantity>
                           <value value="1"/>
                           <unit value="stuk"/>
                           <system value="urn:oid:2.16.840.1.113883.2.4.4.1.900.2"/>
                           <code value="245"/>
                        </valueQuantity>
                     </extension>
                     <value value="1"/>
                     <unit value="stuk"/>
                     <system value="http://unitsofmeasure.org"/>
                     <code value="1"/>
                  </doseQuantity>
               </doseAndRate>
            </dosageInstruction>
         </MedicationDispense>
      </resource>
      <search>
         <mode value="match"/>
      </search>
   </entry>
   <entry>
      <fullUrl value="urn:uuid:ca12e564-d51a-11ec-2166-020000000000"/>
      <resource>
         <Patient>
            <id value="J.deXXX-Luzac"/>
            <meta>
               <profile value="http://nictiz.nl/fhir/StructureDefinition/nl-core-Patient"/>
            </meta>
            <identifier>
               <system value="http://fhir.nl/fhir/NamingSystem/bsn"/>
               <value value="999900778"/>
            </identifier>
            <name>
               <extension url="http://hl7.org/fhir/StructureDefinition/humanname-assembly-order">
                  <valueCode value="NL1"/>
               </extension>
               <use value="official"/>
               <text value="J. de XXX_Luzac"/>
               <family value="de XXX_Luzac">
                  <extension url="http://hl7.org/fhir/StructureDefinition/humanname-own-prefix">
                     <valueString value="de"/>
                  </extension>
                  <extension url="http://hl7.org/fhir/StructureDefinition/humanname-own-name">
                     <valueString value="XXX_Luzac"/>
                  </extension>
               </family>
               <given value="J.">
                  <extension url="http://hl7.org/fhir/StructureDefinition/iso21090-EN-qualifier">
                     <valueCode value="IN"/>
                  </extension>
               </given>
            </name>
            <gender value="female">
               <extension url="http://nictiz.nl/fhir/StructureDefinition/ext-CodeSpecification">
                  <valueCodeableConcept>
                     <coding>
                        <system value="http://terminology.hl7.org/CodeSystem/v3-AdministrativeGender"/>
                        <code value="F"/>
                        <display value="Vrouw"/>
                     </coding>
                  </valueCodeableConcept>
               </extension>
            </gender>
            <birthDate value="1985-10-24"/>
         </Patient>
      </resource>
   </entry>
   <entry>
      <fullUrl value="urn:uuid:ca12e5dc-d51a-11ec-2166-020000000000"/>
      <resource>
         <Organization>
            <id value="2.16.528.1.1007.3.3-01236578"/>
            <meta>
               <profile value="http://nictiz.nl/fhir/StructureDefinition/nl-core-HealthcareProvider-Organization"/>
            </meta>
            <identifier>
               <system value="http://fhir.nl/fhir/NamingSystem/ura"/>
               <value value="01236578"/>
            </identifier>
            <name value="Apotheek De Gulle Gaper"/>
         </Organization>
      </resource>
   </entry>
   <entry>
      <fullUrl value="urn:uuid:ca12e618-d51a-11ec-2166-020000000000"/>
      <resource>
         <Organization>
            <id value="2.16.528.1.1007.3.3-99901111"/>
            <meta>
               <profile value="http://nictiz.nl/fhir/StructureDefinition/nl-core-HealthcareProvider-Organization"/>
            </meta>
            <identifier>
               <system value="http://fhir.nl/fhir/NamingSystem/ura"/>
               <value value="99901111"/>
            </identifier>
            <name value="Apotheek Jansen en Co"/>
         </Organization>
      </resource>
   </entry>
   <entry>
      <fullUrl value="urn:uuid:ca12e5be-d51a-11ec-2166-020000000000"/>
      <resource>
         <Medication>
            <id value="2.16.840.1.113883.2.4.4.7-425087"/>
            <meta>
               <profile value="http://nictiz.nl/fhir/StructureDefinition/nl-core-PharmaceuticalProduct"/>
            </meta>
            <code>
               <coding>
                  <system value="urn:oid:2.16.840.1.113883.2.4.4.7"/>
                  <code value="425087"/>
                  <display value="BROXIL CAPSULE 500MG"/>
                  <userSelected value="true"/>
               </coding>
               <coding>
                  <system value="urn:oid:2.16.840.1.113883.2.4.4.10"/>
                  <code value="17205"/>
                  <display value="FENETICILLINE CAPSULE 500MG"/>
               </coding>
               <coding>
                  <system value="urn:oid:2.16.840.1.113883.2.4.4.1"/>
                  <code value="41092"/>
                  <display value="FENETICILLINE 500MG CAPSULE"/>
               </coding>
               <text value="BROXIL CAPSULE 500MG"/>
            </code>
         </Medication>
      </resource>
   </entry>
</Bundle>
