<?xml-model href="http://hl7.org/fhir/STU3/bundle.sch" type="application/xml" schematypens="http://purl.oclc.org/dsdl/schematron"?><Bundle xmlns="http://hl7.org/fhir"
        xmlns:xsi="http://www.w3.org/2001/XMLSchema-instance"
        xsi:schemaLocation="http://hl7.org/fhir http://hl7.org/fhir/STU3/bundle.xsd">
   <id value="3823c9ea-88b3-11eb-3486-020000000000"/>
   <type value="searchset"/>
   <total value="1"/>
   <link>
      <relation value="self"/>
      <url value="http://dummy.nictiz.nl/dummyquery"/>
   </link>
   <entry>
      <fullUrl value="urn:uuid:3823bc2c-88b3-11eb-3486-020000000000"/>
      <resource>
         <MedicationRequest>
            <meta>
               <profile value="http://nictiz.nl/fhir/StructureDefinition/zib-MedicationAgreement"/>
            </meta>
            <text>
               <status value="extensions"/>
               <div xmlns="http://www.w3.org/1999/xhtml">
                  <table>
                     <caption>Medicatieafspraak. Subject: F. XXX-GBZ-Smoketest-B. Id: tsMBH_907_variabelehoeveelheid2_MA-GSB (urn:oid:2.16.840.1.113883.2.4.3.11.999.77.16076005.1), Categorie: <span title="Prescription (procedure) (16076005 - SNOMED CT)">Prescription (procedure)</span>, <span style="display: block;">Intentie: aanvraag</span>
                        <span style="display: block;">Aangevraagd door: Pieter de Plat || Huisartsen, niet nader gespecificeerd || Huisartsenpraktijk Staden</span>
                     </caption>
                     <tbody>
                        <tr>
                           <th>Medicamenteuze behandel-id</th>
                           <td>tsMBH_907_variabelehoeveelheid2-GSB (urn:oid:2.16.840.1.113883.2.4.3.11.999.77.1.1)</td>
                        </tr>
                        <tr>
                           <th>Medicatie</th>
                           <td>CHLOORHEXIDINE OPL CUTAAN 10MG/ML</td>
                        </tr>
                        <tr>
                           <th>Gemaakt</th>
                           <td>${DATE, T, D, +0}T08:18:00+02:00</td>
                        </tr>
                        <tr>
                           <th>Gebruiksduur</th>
                           <td>${DATE, T, D, +0}T00:00:00+02:00 - ${DATE, T, D, +30}T23:59:59+02:00</td>
                        </tr>
                        <tr>
                           <th>Doseerinstructie</th>
                           <td>
                              <div>Tekst: Vanaf &lt;T+0D{00:00:00}&gt; t/m &lt;T+30D{23:59:59}&gt;, 2 maal per dag 2 a 5 ml, Eerst aanbrengen op een watje, daarna met het watje de huid ontsmetten</div>
                              <div>Instructie: <ul>
                                    <li>
                                       <span title="Eerst aanbrengen op een watje (27 - nhg-tabel-25-gebruiksvoorschrift#aanvullend-numeriek)">Eerst aanbrengen op een watje</span>
                                    </li>
                                    <li>
                                       <span title="Daarna met het watje de huid ontsmetten (69 - nhg-tabel-25-gebruiksvoorschrift#aanvullend-numeriek)">Daarna met het watje de huid ontsmetten</span>
                                    </li>
                                 </ul>
                              </div>
                              <div>Timing: <div>2 maal per dag</div>
                              </div>
                              <div>Toedieningsweg: <span title="niet van toepassing (1 - G-Standaard thesaurus subtabel 0007)">niet van toepassing</span>
                              </div>
                              <div>Dosering: 2 milliliter - 5 milliliter</div>
                           </td>
                        </tr>
                     </tbody>
                  </table>
               </div>
            </text>
            <extension url="http://nictiz.nl/fhir/StructureDefinition/zib-Medication-PeriodOfUse">
               <valuePeriod>
                  <start value="${DATE, T, D, +0}T00:00:00+02:00"/>
                  <end value="${DATE, T, D, +30}T23:59:59+02:00"/>
               </valuePeriod>
            </extension>
            <extension url="http://nictiz.nl/fhir/StructureDefinition/zib-Medication-MedicationTreatment">
               <valueIdentifier>
                  <system value="urn:oid:2.16.840.1.113883.2.4.3.11.999.77.1.1"/>
                  <value value="tsMBH_907_variabelehoeveelheid2-GSB"/>
               </valueIdentifier>
            </extension>
            <identifier>
               <system value="urn:oid:2.16.840.1.113883.2.4.3.11.999.77.16076005.1"/>
               <value value="tsMBH_907_variabelehoeveelheid2_MA-GSB"/>
            </identifier>
            <intent value="order"/>
            <category>
               <coding>
                  <system value="http://snomed.info/sct"/>
                  <code value="16076005"/>
                  <display value="Prescription (procedure)"/>
               </coding>
               <text value="Medicatieafspraak"/>
            </category>
            <medicationReference>
               <reference value="urn:oid:2.16.840.1.113883.2.4.4.10.13501"/>
               <display value="CHLOORHEXIDINE OPL CUTAAN 10MG/ML"/>
            </medicationReference>
            <subject>
               <reference value="urn:uuid:3823bc10-88b3-11eb-3486-020000000000"/>
               <display value="F. XXX-GBZ-Smoketest-B"/>
            </subject>
            <authoredOn value="${DATE, T, D, +0}T08:18:00+02:00"/>
            <requester>
               <agent>
                  <extension url="http://nictiz.nl/fhir/StructureDefinition/practitionerrole-reference">
                     <valueReference>
                        <reference value="urn:uuid:3823bc38-88b3-11eb-3486-020000000000"/>
                        <display value="Pieter de Plat || Huisartsen, niet nader gespecificeerd || Huisartsenpraktijk Staden"/>
                     </valueReference>
                  </extension>
                  <reference value="urn:oid:2.16.528.1.1007.3.1.1116"/>
                  <display value="Pieter de Plat"/>
               </agent>
            </requester>
            <dosageInstruction>
               <text value="Vanaf &lt;T+0D{00:00:00}&gt; t/m &lt;T+30D{23:59:59}&gt;, 2 maal per dag 2 a 5 ml, Eerst aanbrengen op een watje, daarna met het watje de huid ontsmetten"/>
               <additionalInstruction>
                  <coding>
                     <system value="https://referentiemodel.nhg.org/tabellen/nhg-tabel-25-gebruiksvoorschrift#aanvullend-numeriek"/>
                     <code value="27"/>
                     <display value="Eerst aanbrengen op een watje"/>
                  </coding>
               </additionalInstruction>
               <additionalInstruction>
                  <coding>
                     <system value="https://referentiemodel.nhg.org/tabellen/nhg-tabel-25-gebruiksvoorschrift#aanvullend-numeriek"/>
                     <code value="69"/>
                     <display value="Daarna met het watje de huid ontsmetten"/>
                  </coding>
               </additionalInstruction>
               <timing>
                  <repeat>
                     <frequency value="2"/>
                     <period value="1"/>
                     <periodUnit value="d"/>
                  </repeat>
               </timing>
               <route>
                  <coding>
                     <system value="urn:oid:2.16.840.1.113883.2.4.4.9"/>
                     <code value="1"/>
                     <display value="niet van toepassing"/>
                  </coding>
               </route>
               <doseRange>
                  <low>
                     <value value="2"/>
                     <unit value="milliliter"/>
                     <system value="urn:oid:2.16.840.1.113883.2.4.4.1.900.2"/>
                     <code value="233"/>
                  </low>
                  <high>
                     <value value="5"/>
                     <unit value="milliliter"/>
                     <system value="urn:oid:2.16.840.1.113883.2.4.4.1.900.2"/>
                     <code value="233"/>
                  </high>
               </doseRange>
            </dosageInstruction>
         </MedicationRequest>
      </resource>
      <search>
         <mode value="match"/>
      </search>
   </entry>
   <entry>
      <fullUrl value="urn:uuid:3823bc10-88b3-11eb-3486-020000000000"/>
      <resource>
         <Patient>
            <meta>
               <profile value="http://fhir.nl/fhir/StructureDefinition/nl-core-patient"/>
            </meta>
            <text>
               <status value="extensions"/>
               <div xmlns="http://www.w3.org/1999/xhtml">
                  <div>Id <i>afgeschermd (ontbrekend gegeven)</i> (BSN), F. XXX-GBZ-Smoketest-B, Vrouw, 6 februari 1950</div>
               </div>
            </text>
            <identifier>
               <system value="http://fhir.nl/fhir/NamingSystem/bsn"/>
               <value>
                  <extension url="http://hl7.org/fhir/StructureDefinition/data-absent-reason">
                     <valueCode value="masked"/>
                  </extension>
               </value>
            </identifier>
            <name>
               <extension url="http://hl7.org/fhir/StructureDefinition/humanname-assembly-order">
                  <valueCode value="NL1"/>
               </extension>
               <family value="XXX-GBZ-Smoketest-B">
                  <extension url="http://hl7.org/fhir/StructureDefinition/humanname-own-name">
                     <valueString value="XXX-GBZ-Smoketest-B"/>
                  </extension>
               </family>
               <given value="F.">
                  <extension url="http://hl7.org/fhir/StructureDefinition/iso21090-EN-qualifier">
                     <valueCode value="IN"/>
                  </extension>
               </given>
            </name>
            <gender value="female">
               <extension url="http://nictiz.nl/fhir/StructureDefinition/code-specification">
                  <valueCodeableConcept>
                     <coding>
                        <system value="http://hl7.org/fhir/v3/AdministrativeGender"/>
                        <code value="F"/>
                        <display value="Vrouw"/>
                     </coding>
                  </valueCodeableConcept>
               </extension>
            </gender>
            <birthDate value="1950-02-06"/>
         </Patient>
      </resource>
      <search>
         <mode value="include"/>
      </search>
   </entry>
   <entry>
      <fullUrl value="urn:oid:2.16.528.1.1007.3.1.1116"/>
      <resource>
         <Practitioner>
            <meta>
               <profile value="http://fhir.nl/fhir/StructureDefinition/nl-core-practitioner"/>
            </meta>
            <text>
               <status value="extensions"/>
               <div xmlns="http://www.w3.org/1999/xhtml">
                  <div>Id 000001116 (UZI-NR-PERS), Pieter de Plat</div>
               </div>
            </text>
            <identifier>
               <system value="http://fhir.nl/fhir/NamingSystem/uzi-nr-pers"/>
               <value value="000001116"/>
            </identifier>
            <name>
               <family value="de Plat">
                  <extension url="http://hl7.org/fhir/StructureDefinition/humanname-own-prefix">
                     <valueString value="de"/>
                  </extension>
                  <extension url="http://hl7.org/fhir/StructureDefinition/humanname-own-name">
                     <valueString value="Plat"/>
                  </extension>
               </family>
               <given value="Pieter">
                  <extension url="http://hl7.org/fhir/StructureDefinition/iso21090-EN-qualifier">
                     <valueCode value="BR"/>
                  </extension>
               </given>
            </name>
         </Practitioner>
      </resource>
      <search>
         <mode value="include"/>
      </search>
   </entry>
   <entry>
      <fullUrl value="urn:oid:2.16.528.1.1007.3.3.1116"/>
      <resource>
         <Organization>
            <meta>
               <profile value="http://fhir.nl/fhir/StructureDefinition/nl-core-organization"/>
            </meta>
            <text>
               <status value="extensions"/>
               <div xmlns="http://www.w3.org/1999/xhtml">
                  <table>
                     <caption>Organisatie. Id: 00001116 (URA)</caption>
                     <tbody>
                        <tr>
                           <th>Naam</th>
                           <td>Huisartsenpraktijk Staden</td>
                        </tr>
                        <tr>
                           <th>Adres</th>
                           <td>Kerkstraat 4, 1234AB Onze Stad (WP)</td>
                        </tr>
                     </tbody>
                  </table>
               </div>
            </text>
            <identifier>
               <system value="http://fhir.nl/fhir/NamingSystem/ura"/>
               <value value="00001116"/>
            </identifier>
            <name value="Huisartsenpraktijk Staden"/>
            <address>
               <extension url="http://nictiz.nl/fhir/StructureDefinition/zib-AddressInformation-AddressType">
                  <valueCodeableConcept>
                     <coding>
                        <system value="http://hl7.org/fhir/v3/AddressUse"/>
                        <code value="WP"/>
                        <display value="Werkadres"/>
                     </coding>
                  </valueCodeableConcept>
               </extension>
               <use value="work"/>
               <line value="Kerkstraat 4">
                  <extension url="http://hl7.org/fhir/StructureDefinition/iso21090-ADXP-streetName">
                     <valueString value="Kerkstraat"/>
                  </extension>
                  <extension url="http://hl7.org/fhir/StructureDefinition/iso21090-ADXP-houseNumber">
                     <valueString value="4"/>
                  </extension>
               </line>
               <city value="Onze Stad"/>
               <postalCode value="1234AB"/>
            </address>
         </Organization>
      </resource>
      <search>
         <mode value="include"/>
      </search>
   </entry>
   <entry>
      <fullUrl value="urn:uuid:3823bc38-88b3-11eb-3486-020000000000"/>
      <resource>
         <PractitionerRole>
            <meta>
               <profile value="http://fhir.nl/fhir/StructureDefinition/nl-core-practitionerrole"/>
            </meta>
            <text>
               <status value="extensions"/>
               <div xmlns="http://www.w3.org/1999/xhtml">
                  <table>
                     <caption>Zorgverlenerrol. </caption>
                     <tbody>
                        <tr>
                           <th>Zorgverlener</th>
                           <td>
                              <div>Pieter de Plat</div>
                              <div>Huisartsenpraktijk Staden</div>
                           </td>
                        </tr>
                        <tr>
                           <th>Specialisme</th>
                           <td>
                              <span title="Huisartsen, niet nader gespecificeerd (0100 - AGB-medisch specialisme)">Huisartsen, niet nader gespecificeerd</span>
                           </td>
                        </tr>
                     </tbody>
                  </table>
               </div>
            </text>
            <practitioner>
               <reference value="urn:oid:2.16.528.1.1007.3.1.1116"/>
               <display value="Pieter de Plat"/>
            </practitioner>
            <organization>
               <reference value="urn:oid:2.16.528.1.1007.3.3.1116"/>
               <display value="Huisartsenpraktijk Staden"/>
            </organization>
            <specialty>
               <coding>
                  <system value="urn:oid:2.16.840.1.113883.2.4.6.7"/>
                  <version value="2017-12-14T00:00:00"/>
                  <code value="0100"/>
                  <display value="Huisartsen, niet nader gespecificeerd"/>
               </coding>
            </specialty>
         </PractitionerRole>
      </resource>
      <search>
         <mode value="include"/>
      </search>
   </entry>
   <entry>
      <fullUrl value="urn:oid:2.16.840.1.113883.2.4.4.10.13501"/>
      <resource>
         <Medication>
            <meta>
               <profile value="http://nictiz.nl/fhir/StructureDefinition/zib-Product"/>
            </meta>
            <text>
               <status value="extensions"/>
               <div xmlns="http://www.w3.org/1999/xhtml">
                  <table>
                     <tbody>
                        <tr>
                           <th>Code</th>
                           <td>
                              <span title="CHLOORHEXIDINE OPL CUTAAN 10MG/ML (13501 - G-Standaard PRK)">CHLOORHEXIDINE OPL CUTAAN 10MG/ML</span>
                           </td>
                        </tr>
                     </tbody>
                  </table>
               </div>
            </text>
            <code>
               <coding>
                  <system value="urn:oid:2.16.840.1.113883.2.4.4.10"/>
                  <code value="13501"/>
                  <display value="CHLOORHEXIDINE OPL CUTAAN 10MG/ML"/>
                  <userSelected value="true"/>
               </coding>
               <coding>
                  <system value="urn:oid:2.16.840.1.113883.2.4.4.1"/>
                  <code value="108855"/>
                  <display value="CHLOORHEXIDINE OPL CUTAAN 10MG/ML"/>
               </coding>
               <text value="CHLOORHEXIDINE OPL CUTAAN 10MG/ML"/>
            </code>
         </Medication>
      </resource>
      <search>
         <mode value="include"/>
      </search>
   </entry>
</Bundle>
