<?xml-model href="http://hl7.org/fhir/R4/bundle.sch" type="application/xml" schematypens="http://purl.oclc.org/dsdl/schematron"?><Bundle xmlns="http://hl7.org/fhir"
        xmlns:xsi="http://www.w3.org/2001/XMLSchema-instance"
        xsi:schemaLocation="http://hl7.org/fhir http://hl7.org/fhir/R4/bundle.xsd">
   <id value="MO-XXX-Dijk"/>
   <meta>
      <profile value="http://nictiz.nl/fhir/StructureDefinition/Bundle-MedicationOverview"/>
   </meta>
   <type value="searchset"/>
   <total value="1"/>
   <entry>
      <fullUrl value="urn:uuid:853b3600-a6b9-11ec-1306-020000000000"/>
      <resource>
         <List>
            <meta>
               <profile value="http://nictiz.nl/fhir/StructureDefinition/MedicationOverview"/>
            </meta>
            <extension url="http://nictiz.nl/fhir/StructureDefinition/MedicationOverview-Verification">
               <extension url="VerificationPatient">
                  <valueBoolean value="false"/>
               </extension>
               <extension url="VerificationHealthProfessional">
                  <valueBoolean value="false"/>
               </extension>
            </extension>
            <status value="current"/>
            <mode value="snapshot"/>
            <code>
               <coding>
                  <system value="http://snomed.info/sct"/>
                  <code value="11181000146103"/>
                  <display value="Actual medication overview (record artifact)"/>
               </coding>
               <text value="Medicatieoverzicht"/>
            </code>
            <subject>
               <reference value="urn:uuid:853b35ca-a6b9-11ec-1306-020000000000"/>
               <type value="Patient"/>
               <display value="Patient, C. XXX_Dijk"/>
            </subject>
            <date value="2021-01-01"/>
            <source>
               <extension url="http://nictiz.nl/fhir/StructureDefinition/MedicationOverview-SourceOrganization">
                  <valueReference>
                     <reference value="urn:uuid:853b3e26-a6b9-11ec-1306-020000000000"/>
                     <type value="Organization"/>
                     <display value="Healthcare provider (organization), Apotheek De Gulle Gaper"/>
                  </valueReference>
               </extension>
               <display value="Apotheek De Gulle Gaper"/>
            </source>
            <entry>
               <item>
                  <reference value="urn:uuid:853b35e8-a6b9-11ec-1306-020000000000"/>
                  <type value="MedicationRequest"/>
                  <display value="Medicatieafspraak met identificatie MBH_200_gestopt_MA_staken in identificatiesysteem: 2.16.840.1.113883.2.4.3.11.999.77.16076005.1"/>
               </item>
            </entry>
            <entry>
               <item>
                  <reference value="urn:uuid:853b3606-a6b9-11ec-1306-020000000000"/>
                  <type value="MedicationDispense"/>
                  <display value="Toedieningsafspraak met identificatie MBH_200_gestopt_TA_staken in identificatiesysteem: 2.16.840.1.113883.2.4.3.11.999.77.422037009.1"/>
               </item>
            </entry>
            <entry>
               <item>
                  <reference value="urn:uuid:853b3624-a6b9-11ec-1306-020000000000"/>
                  <type value="MedicationRequest"/>
                  <display value="Medicatieafspraak met identificatie MBH_200_gewijzigd_MA_wijziging in identificatiesysteem: 2.16.840.1.113883.2.4.3.11.999.77.16076005.1"/>
               </item>
            </entry>
            <entry>
               <item>
                  <reference value="urn:uuid:853b3642-a6b9-11ec-1306-020000000000"/>
                  <type value="MedicationDispense"/>
                  <display value="Toedieningsafspraak met identificatie MBH_200_gewijzigd_TA_wijziging in identificatiesysteem: 2.16.840.1.113883.2.4.3.11.999.77.422037009.1"/>
               </item>
            </entry>
            <entry>
               <item>
                  <reference value="urn:uuid:853b3660-a6b9-11ec-1306-020000000000"/>
                  <type value="MedicationRequest"/>
                  <display value="Medicatieafspraak met identificatie MBH_200_gewijzigddoorander_MA_wijzigingdoorander in identificatiesysteem: 2.16.840.1.113883.2.4.3.11.999.77.16076005.1"/>
               </item>
            </entry>
            <entry>
               <item>
                  <reference value="urn:uuid:853b367e-a6b9-11ec-1306-020000000000"/>
                  <type value="MedicationDispense"/>
                  <display value="Toedieningsafspraak met identificatie MBH_200_gewijzigddoorander_TA_wijziging in identificatiesysteem: 2.16.840.1.113883.2.4.3.11.999.77.422037009.1"/>
               </item>
            </entry>
            <entry>
               <item>
                  <reference value="urn:uuid:853b369c-a6b9-11ec-1306-020000000000"/>
                  <type value="MedicationRequest"/>
                  <display value="Medicatieafspraak met identificatie MBH_200_onderbroken_MA_onderbreken in identificatiesysteem: 2.16.840.1.113883.2.4.3.11.999.77.16076005.1"/>
               </item>
            </entry>
            <entry>
               <item>
                  <reference value="urn:uuid:853b36ba-a6b9-11ec-1306-020000000000"/>
                  <type value="MedicationDispense"/>
                  <display value="Toedieningsafspraak met identificatie MBH_200_onderbroken_TA_onderbreken in identificatiesysteem: 2.16.840.1.113883.2.4.3.11.999.77.422037009.1"/>
               </item>
            </entry>
            <entry>
               <item>
                  <reference value="urn:uuid:853b36d8-a6b9-11ec-1306-020000000000"/>
                  <type value="MedicationRequest"/>
                  <display value="Medicatieafspraak met identificatie MBH_200_eigen1_MA in identificatiesysteem: 2.16.840.1.113883.2.4.3.11.999.77.16076005.1"/>
               </item>
            </entry>
            <entry>
               <item>
                  <reference value="urn:uuid:853b36f6-a6b9-11ec-1306-020000000000"/>
                  <type value="MedicationDispense"/>
                  <display value="Toedieningsafspraak met identificatie MBH_200_eigen1_TA in identificatiesysteem: 2.16.840.1.113883.2.4.3.11.999.77.422037009.1"/>
               </item>
            </entry>
            <entry>
               <item>
                  <reference value="urn:uuid:853b3714-a6b9-11ec-1306-020000000000"/>
                  <type value="MedicationRequest"/>
                  <display value="Medicatieafspraak met identificatie MBH_200_eigen2_MA in identificatiesysteem: 2.16.840.1.113883.2.4.3.11.999.77.16076005.1"/>
               </item>
            </entry>
            <entry>
               <item>
                  <reference value="urn:uuid:853b3732-a6b9-11ec-1306-020000000000"/>
                  <type value="MedicationDispense"/>
                  <display value="Toedieningsafspraak met identificatie MBH_200_eigen2_TA in identificatiesysteem: 2.16.840.1.113883.2.4.3.11.999.77.422037009.1"/>
               </item>
            </entry>
            <entry>
               <item>
                  <reference value="urn:uuid:853b3750-a6b9-11ec-1306-020000000000"/>
                  <type value="MedicationRequest"/>
                  <display value="Medicatieafspraak met identificatie MBH_200_andermans_MA in identificatiesysteem: 2.16.840.1.113883.2.4.3.11.999.77.16076005.1"/>
               </item>
            </entry>
            <entry>
               <item>
                  <reference value="urn:uuid:853b376e-a6b9-11ec-1306-020000000000"/>
                  <type value="MedicationDispense"/>
                  <display value="Toedieningsafspraak met identificatie MBH_200_andermans_TA in identificatiesysteem: 2.16.840.1.113883.2.4.3.11.999.77.422037009.1"/>
               </item>
            </entry>
            <entry>
               <item>
                  <reference value="urn:uuid:853b378c-a6b9-11ec-1306-020000000000"/>
                  <type value="MedicationRequest"/>
                  <display value="Medicatieafspraak met identificatie MBH_200_toekomstig_MA in identificatiesysteem: 2.16.840.1.113883.2.4.3.11.999.77.16076005.1"/>
               </item>
            </entry>
            <entry>
               <item>
                  <reference value="urn:uuid:853b37aa-a6b9-11ec-1306-020000000000"/>
                  <type value="MedicationDispense"/>
                  <display value="Toedieningsafspraak met identificatie MBH_200_toekomstig_TA in identificatiesysteem: 2.16.840.1.113883.2.4.3.11.999.77.422037009.1"/>
               </item>
            </entry>
            <entry>
               <item>
                  <reference value="urn:uuid:853b37c8-a6b9-11ec-1306-020000000000"/>
                  <type value="MedicationRequest"/>
                  <display value="Medicatieafspraak met identificatie MBH_200_gestoptandermans_MA_staken in identificatiesysteem: 2.16.840.1.113883.2.4.3.11.999.77.16076005.1"/>
               </item>
            </entry>
            <entry>
               <item>
                  <reference value="urn:uuid:853b37e6-a6b9-11ec-1306-020000000000"/>
                  <type value="MedicationDispense"/>
                  <display value="Toedieningsafspraak met identificatie MBH_200_gestoptandermans_TA_staken in identificatiesysteem: 2.16.840.1.113883.2.4.3.11.999.77.422037009.1"/>
               </item>
            </entry>
            <entry>
               <item>
                  <reference value="urn:uuid:853b3b88-a6b9-11ec-1306-020000000000"/>
                  <type value="MedicationRequest"/>
                  <display value="Medication agreement"/>
               </item>
            </entry>
            <entry>
               <item>
                  <reference value="urn:uuid:853b3ba6-a6b9-11ec-1306-020000000000"/>
                  <type value="MedicationDispense"/>
                  <display value="Administration agreement"/>
               </item>
            </entry>
            <entry>
               <item>
                  <reference value="urn:uuid:853b3bc4-a6b9-11ec-1306-020000000000"/>
                  <type value="MedicationRequest"/>
                  <display value="Medication agreement"/>
               </item>
            </entry>
            <entry>
               <item>
                  <reference value="urn:uuid:853b3be2-a6b9-11ec-1306-020000000000"/>
                  <type value="MedicationDispense"/>
                  <display value="Administration agreement"/>
               </item>
            </entry>
            <entry>
               <item>
                  <reference value="urn:uuid:853b3c00-a6b9-11ec-1306-020000000000"/>
                  <type value="MedicationRequest"/>
                  <display value="Medication agreement"/>
               </item>
            </entry>
            <entry>
               <item>
                  <reference value="urn:uuid:853b3c1e-a6b9-11ec-1306-020000000000"/>
                  <type value="MedicationDispense"/>
                  <display value="Administration agreement"/>
               </item>
            </entry>
            <entry>
               <item>
                  <reference value="urn:uuid:853b3c3c-a6b9-11ec-1306-020000000000"/>
                  <type value="MedicationStatement"/>
                  <display value="Medication use"/>
               </item>
            </entry>
            <entry>
               <item>
                  <reference value="urn:uuid:853b3c5a-a6b9-11ec-1306-020000000000"/>
                  <type value="MedicationRequest"/>
                  <display value="Medication agreement"/>
               </item>
            </entry>
            <entry>
               <item>
                  <reference value="urn:uuid:853b3c78-a6b9-11ec-1306-020000000000"/>
                  <type value="MedicationDispense"/>
                  <display value="Administration agreement"/>
               </item>
            </entry>
            <entry>
               <item>
                  <reference value="urn:uuid:853b3c96-a6b9-11ec-1306-020000000000"/>
                  <type value="MedicationRequest"/>
                  <display value="Medication agreement"/>
               </item>
            </entry>
            <entry>
               <item>
                  <reference value="urn:uuid:853b3cb4-a6b9-11ec-1306-020000000000"/>
                  <type value="MedicationDispense"/>
                  <display value="Administration agreement"/>
               </item>
            </entry>
            <entry>
               <item>
                  <reference value="urn:uuid:853b3cd2-a6b9-11ec-1306-020000000000"/>
                  <type value="MedicationStatement"/>
                  <display value="Medication use"/>
               </item>
            </entry>
            <entry>
               <item>
                  <reference value="urn:uuid:853b3cf0-a6b9-11ec-1306-020000000000"/>
                  <type value="MedicationStatement"/>
                  <display value="Medication use"/>
               </item>
            </entry>
            <entry>
               <item>
                  <reference value="urn:uuid:853b3d0e-a6b9-11ec-1306-020000000000"/>
                  <type value="MedicationRequest"/>
                  <display value="Medication agreement"/>
               </item>
            </entry>
            <entry>
               <item>
                  <reference value="urn:uuid:853b3d2c-a6b9-11ec-1306-020000000000"/>
                  <type value="MedicationDispense"/>
                  <display value="Administration agreement"/>
               </item>
            </entry>
            <entry>
               <item>
                  <reference value="urn:uuid:853b3d4a-a6b9-11ec-1306-020000000000"/>
                  <type value="MedicationStatement"/>
                  <display value="Medication use"/>
               </item>
            </entry>
            <entry>
               <item>
                  <reference value="urn:uuid:853b3d68-a6b9-11ec-1306-020000000000"/>
                  <type value="MedicationRequest"/>
                  <display value="Medication agreement"/>
               </item>
            </entry>
            <entry>
               <item>
                  <reference value="urn:uuid:853b3d86-a6b9-11ec-1306-020000000000"/>
                  <type value="MedicationDispense"/>
                  <display value="Administration agreement"/>
               </item>
            </entry>
            <entry>
               <item>
                  <reference value="urn:uuid:853b3da4-a6b9-11ec-1306-020000000000"/>
                  <type value="MedicationRequest"/>
                  <display value="Medication agreement"/>
               </item>
            </entry>
            <entry>
               <item>
                  <reference value="urn:uuid:853b3dc2-a6b9-11ec-1306-020000000000"/>
                  <type value="MedicationDispense"/>
                  <display value="Administration agreement"/>
               </item>
            </entry>
            <entry>
               <item>
                  <reference value="urn:uuid:853b3de0-a6b9-11ec-1306-020000000000"/>
                  <type value="MedicationRequest"/>
                  <display value="Medication agreement"/>
               </item>
            </entry>
            <entry>
               <item>
                  <reference value="urn:uuid:853b3dfe-a6b9-11ec-1306-020000000000"/>
                  <type value="MedicationDispense"/>
                  <display value="Administration agreement"/>
               </item>
            </entry>
         </List>
      </resource>
      <search>
         <mode value="match"/>
      </search>
   </entry>
   <entry>
      <fullUrl value="urn:uuid:853b35e8-a6b9-11ec-1306-020000000000"/>
      <resource>
         <MedicationRequest>
            <id value="21684011138832431199977160760051-MBH200gestoptMAstaken"/>
            <meta>
               <profile value="http://nictiz.nl/fhir/StructureDefinition/nl-core-MedicationAgreement"/>
            </meta>
            <extension url="http://nictiz.nl/fhir/StructureDefinition/ext-RenderedDosageInstruction">
               <valueString value="Vanaf 1 sep 2020, tot en met 22 dec 2020, 1 maal per dag 1 stuk, Oraal, definitief gestopt"/>
            </extension>
            <extension url="http://nictiz.nl/fhir/StructureDefinition/ext-TimeInterval.Period">
               <valuePeriod>
                  <start value="2020-09-01T00:00:00+02:00"/>
                  <end value="2020-12-22T23:59:59+01:00"/>
               </valuePeriod>
            </extension>
            <extension url="http://nictiz.nl/fhir/StructureDefinition/ext-PharmaceuticalTreatment.Identifier">
               <valueIdentifier>
                  <system value="urn:oid:2.16.840.1.113883.2.4.3.11.999.77.1.1"/>
                  <value value="MBH_200_gestopt"/>
               </valueIdentifier>
            </extension>
            <extension url="http://nictiz.nl/fhir/StructureDefinition/ext-CopyIndicator">
               <valueBoolean value="true"/>
            </extension>
            <modifierExtension url="http://nictiz.nl/fhir/StructureDefinition/ext-StopType">
               <valueCodeableConcept>
                  <coding>
                     <system value="http://snomed.info/sct"/>
                     <code value="113371000146109"/>
                     <display value="definitief gestopt met medicatie"/>
                  </coding>
               </valueCodeableConcept>
            </modifierExtension>
            <identifier>
               <system value="urn:oid:2.16.840.1.113883.2.4.3.11.999.77.16076005.1"/>
               <value value="MBH_200_gestopt_MA_staken"/>
            </identifier>
            <status value="unknown"/>
            <intent value="order"/>
            <category>
               <coding>
                  <system value="http://snomed.info/sct"/>
                  <code value="16076005"/>
                  <display value="voorschrijven"/>
               </coding>
            </category>
            <medicationReference>
               <reference value="urn:uuid:853b3804-a6b9-11ec-1306-020000000000"/>
               <type value="Medication"/>
               <display value="OMEPRAZOL 20MG CAPSULE MSR"/>
            </medicationReference>
            <subject>
               <reference value="urn:uuid:853b35ca-a6b9-11ec-1306-020000000000"/>
               <type value="Patient"/>
               <display value="Patient, C. XXX_Dijk"/>
            </subject>
            <authoredOn value="2020-12-22T18:00:00+01:00"/>
            <requester>
               <reference value="urn:uuid:853b3a5c-a6b9-11ec-1306-020000000000"/>
               <type value="PractitionerRole"/>
               <display value="Healthcare professional (role), Marcha van Partners, Huisartsen, niet nader gespecificeerd"/>
            </requester>
            <reasonCode>
               <coding>
                  <system value="http://snomed.info/sct"/>
                  <code value="79899007"/>
                  <display value="Geneesmiddelinteractie"/>
               </coding>
            </reasonCode>
            <dosageInstruction>
               <timing>
                  <repeat>
                     <frequency value="1"/>
                     <period value="1"/>
                     <periodUnit value="d"/>
                  </repeat>
               </timing>
               <route>
                  <coding>
                     <system value="urn:oid:2.16.840.1.113883.2.4.4.9"/>
                     <code value="9"/>
                     <display value="Oraal"/>
                  </coding>
               </route>
               <doseAndRate>
                  <doseQuantity>
                     <extension url="http://hl7.org/fhir/StructureDefinition/iso21090-PQ-translation">
                        <valueQuantity>
                           <value value="1"/>
                           <unit value="stuk"/>
                           <system value="urn:oid:2.16.840.1.113883.2.4.4.1.900.2"/>
                           <code value="245"/>
                        </valueQuantity>
                     </extension>
                     <value value="1"/>
                     <unit value="stuk"/>
                     <system value="http://unitsofmeasure.org"/>
                     <code value="1"/>
                  </doseQuantity>
               </doseAndRate>
            </dosageInstruction>
            <priorPrescription>
               <type value="MedicationRequest"/>
               <identifier>
                  <system value="urn:oid:2.16.840.1.113883.2.4.3.11.999.77.16076005.1"/>
                  <value value="MBH_200_gestopt_MA"/>
               </identifier>
               <display value="relatie naar medicatieafspraak: MBH_200_gestopt_MA || 2.16.840.1.113883.2.4.3.11.999.77.16076005.1"/>
            </priorPrescription>
         </MedicationRequest>
      </resource>
      <search>
         <mode value="include"/>
      </search>
   </entry>
   <entry>
      <fullUrl value="urn:uuid:853b3624-a6b9-11ec-1306-020000000000"/>
      <resource>
         <MedicationRequest>
            <id value="21684011138832431199977160760051-MBH200gewijzigdMAwijziging"/>
            <meta>
               <profile value="http://nictiz.nl/fhir/StructureDefinition/nl-core-MedicationAgreement"/>
            </meta>
            <extension url="http://nictiz.nl/fhir/StructureDefinition/ext-RenderedDosageInstruction">
               <valueString value="Vanaf 30 dec 2020, 2 maal per dag 1 stuk, Oraal"/>
            </extension>
            <extension url="http://nictiz.nl/fhir/StructureDefinition/ext-TimeInterval.Period">
               <valuePeriod>
                  <start value="2020-12-30T00:00:00+01:00"/>
               </valuePeriod>
            </extension>
            <extension url="http://nictiz.nl/fhir/StructureDefinition/ext-PharmaceuticalTreatment.Identifier">
               <valueIdentifier>
                  <system value="urn:oid:2.16.840.1.113883.2.4.3.11.999.77.1.1"/>
                  <value value="MBH_200_gewijzigd"/>
               </valueIdentifier>
            </extension>
            <extension url="http://nictiz.nl/fhir/StructureDefinition/ext-CopyIndicator">
               <valueBoolean value="true"/>
            </extension>
            <identifier>
               <system value="urn:oid:2.16.840.1.113883.2.4.3.11.999.77.16076005.1"/>
               <value value="MBH_200_gewijzigd_MA_wijziging"/>
            </identifier>
            <status value="unknown"/>
            <intent value="order"/>
            <category>
               <coding>
                  <system value="http://snomed.info/sct"/>
                  <code value="16076005"/>
                  <display value="voorschrijven"/>
               </coding>
            </category>
            <medicationReference>
               <reference value="urn:uuid:853b3840-a6b9-11ec-1306-020000000000"/>
               <type value="Medication"/>
               <display value="METOPROLOL 100MG TB MGA SUC"/>
            </medicationReference>
            <subject>
               <reference value="urn:uuid:853b35ca-a6b9-11ec-1306-020000000000"/>
               <type value="Patient"/>
               <display value="Patient, C. XXX_Dijk"/>
            </subject>
            <authoredOn value="2020-12-30T08:02:00+01:00"/>
            <requester>
               <reference value="urn:uuid:853b3a5c-a6b9-11ec-1306-020000000000"/>
               <type value="PractitionerRole"/>
               <display value="Healthcare professional (role), Marcha van Partners, Huisartsen, niet nader gespecificeerd"/>
            </requester>
            <reasonCode>
               <coding>
                  <system value="http://snomed.info/sct"/>
                  <code value="58848006"/>
                  <display value="Gebrek aan geneesmiddeleffect"/>
               </coding>
            </reasonCode>
            <dosageInstruction>
               <timing>
                  <repeat>
                     <frequency value="2"/>
                     <period value="1"/>
                     <periodUnit value="d"/>
                  </repeat>
               </timing>
               <route>
                  <coding>
                     <system value="urn:oid:2.16.840.1.113883.2.4.4.9"/>
                     <code value="9"/>
                     <display value="Oraal"/>
                  </coding>
               </route>
               <doseAndRate>
                  <doseQuantity>
                     <extension url="http://hl7.org/fhir/StructureDefinition/iso21090-PQ-translation">
                        <valueQuantity>
                           <value value="1"/>
                           <unit value="stuk"/>
                           <system value="urn:oid:2.16.840.1.113883.2.4.4.1.900.2"/>
                           <code value="245"/>
                        </valueQuantity>
                     </extension>
                     <value value="1"/>
                     <unit value="stuk"/>
                     <system value="http://unitsofmeasure.org"/>
                     <code value="1"/>
                  </doseQuantity>
               </doseAndRate>
            </dosageInstruction>
            <priorPrescription>
               <type value="MedicationRequest"/>
               <identifier>
                  <system value="urn:oid:2.16.840.1.113883.2.4.3.11.999.77.16076005.1"/>
                  <value value="MBH_200_toelichting_MA"/>
               </identifier>
               <display value="relatie naar medicatieafspraak: MBH_200_toelichting_MA || 2.16.840.1.113883.2.4.3.11.999.77.16076005.1"/>
            </priorPrescription>
         </MedicationRequest>
      </resource>
      <search>
         <mode value="include"/>
      </search>
   </entry>
   <entry>
      <fullUrl value="urn:uuid:853b3660-a6b9-11ec-1306-020000000000"/>
      <resource>
         <MedicationRequest>
            <id value="853b33bc-a6b9-11ec-1306-020000000000"/>
            <meta>
               <profile value="http://nictiz.nl/fhir/StructureDefinition/nl-core-MedicationAgreement"/>
            </meta>
            <extension url="http://nictiz.nl/fhir/StructureDefinition/ext-RenderedDosageInstruction">
               <valueString value="Vanaf 29 dec 2020, tot en met 31 jan 2021, 1 maal per dag 2 stuks, Oraal"/>
            </extension>
            <extension url="http://nictiz.nl/fhir/StructureDefinition/ext-TimeInterval.Period">
               <valuePeriod>
                  <start value="2020-12-29T00:00:00+01:00"/>
                  <end value="2021-01-31T23:59:59+01:00"/>
               </valuePeriod>
            </extension>
            <extension url="http://nictiz.nl/fhir/StructureDefinition/ext-PharmaceuticalTreatment.Identifier">
               <valueIdentifier>
                  <system value="urn:oid:2.16.840.1.113883.2.4.3.11.999.77.1.1"/>
                  <value value="MBH_200_gewijzigddoorander"/>
               </valueIdentifier>
            </extension>
            <extension url="http://nictiz.nl/fhir/StructureDefinition/ext-CopyIndicator">
               <valueBoolean value="true"/>
            </extension>
            <identifier>
               <system value="urn:oid:2.16.840.1.113883.2.4.3.11.999.77.16076005.1"/>
               <value value="MBH_200_gewijzigddoorander_MA_wijzigingdoorander"/>
            </identifier>
            <status value="unknown"/>
            <intent value="order"/>
            <category>
               <coding>
                  <system value="http://snomed.info/sct"/>
                  <code value="16076005"/>
                  <display value="voorschrijven"/>
               </coding>
            </category>
            <medicationReference>
               <reference value="urn:uuid:853b387c-a6b9-11ec-1306-020000000000"/>
               <type value="Medication"/>
               <display value="ATORVASTATINE 10MG TABLET"/>
            </medicationReference>
            <subject>
               <reference value="urn:uuid:853b35ca-a6b9-11ec-1306-020000000000"/>
               <type value="Patient"/>
               <display value="Patient, C. XXX_Dijk"/>
            </subject>
            <authoredOn value="2020-12-29T08:10:00+01:00"/>
            <requester>
               <reference value="urn:uuid:853b3a20-a6b9-11ec-1306-020000000000"/>
               <type value="PractitionerRole"/>
               <display value="Healthcare professional (role), Peter van Pulver, Huisartsen, niet nader gespecificeerd"/>
            </requester>
            <reasonCode>
               <coding>
                  <system value="http://snomed.info/sct"/>
                  <code value="58848006"/>
                  <display value="Gebrek aan geneesmiddeleffect"/>
               </coding>
            </reasonCode>
            <dosageInstruction>
               <timing>
                  <repeat>
                     <frequency value="1"/>
                     <period value="1"/>
                     <periodUnit value="d"/>
                  </repeat>
               </timing>
               <route>
                  <coding>
                     <system value="urn:oid:2.16.840.1.113883.2.4.4.9"/>
                     <code value="9"/>
                     <display value="Oraal"/>
                  </coding>
               </route>
               <doseAndRate>
                  <doseQuantity>
                     <extension url="http://hl7.org/fhir/StructureDefinition/iso21090-PQ-translation">
                        <valueQuantity>
                           <value value="2"/>
                           <unit value="stuk"/>
                           <system value="urn:oid:2.16.840.1.113883.2.4.4.1.900.2"/>
                           <code value="245"/>
                        </valueQuantity>
                     </extension>
                     <value value="2"/>
                     <unit value="stuk"/>
                     <system value="http://unitsofmeasure.org"/>
                     <code value="1"/>
                  </doseQuantity>
               </doseAndRate>
            </dosageInstruction>
            <priorPrescription>
               <type value="MedicationRequest"/>
               <identifier>
                  <system value="urn:oid:2.16.840.1.113883.2.4.3.11.999.77.16076005.1"/>
                  <value value="MBH_200_gewijzigddoorander_MA_eigen"/>
               </identifier>
               <display value="relatie naar medicatieafspraak: MBH_200_gewijzigddoorander_MA_eigen || 2.16.840.1.113883.2.4.3.11.999.77.16076005.1"/>
            </priorPrescription>
         </MedicationRequest>
      </resource>
      <search>
         <mode value="include"/>
      </search>
   </entry>
   <entry>
      <fullUrl value="urn:uuid:853b369c-a6b9-11ec-1306-020000000000"/>
      <resource>
         <MedicationRequest>
            <id value="853b33f6-a6b9-11ec-1306-020000000000"/>
            <meta>
               <profile value="http://nictiz.nl/fhir/StructureDefinition/nl-core-MedicationAgreement"/>
            </meta>
            <extension url="http://nictiz.nl/fhir/StructureDefinition/ext-RenderedDosageInstruction">
               <valueString value="Vanaf 1 aug 2020, tot en met 23 sep 2020, 1 maal per dag 1 stuk, Oraal, tijdelijk gestopt"/>
            </extension>
            <extension url="http://nictiz.nl/fhir/StructureDefinition/ext-TimeInterval.Period">
               <valuePeriod>
                  <start value="2020-08-01T00:00:00+02:00"/>
                  <end value="2020-09-23T23:59:59+02:00"/>
               </valuePeriod>
            </extension>
            <extension url="http://nictiz.nl/fhir/StructureDefinition/ext-PharmaceuticalTreatment.Identifier">
               <valueIdentifier>
                  <system value="urn:oid:2.16.840.1.113883.2.4.3.11.999.77.1.1"/>
                  <value value="MBH_200_onderbroken"/>
               </valueIdentifier>
            </extension>
            <extension url="http://nictiz.nl/fhir/StructureDefinition/ext-CopyIndicator">
               <valueBoolean value="true"/>
            </extension>
            <modifierExtension url="http://nictiz.nl/fhir/StructureDefinition/ext-StopType">
               <valueCodeableConcept>
                  <coding>
                     <system value="http://snomed.info/sct"/>
                     <code value="113381000146106"/>
                     <display value="tijdelijk gestopt met medicatie"/>
                  </coding>
               </valueCodeableConcept>
            </modifierExtension>
            <identifier>
               <system value="urn:oid:2.16.840.1.113883.2.4.3.11.999.77.16076005.1"/>
               <value value="MBH_200_onderbroken_MA_onderbreken"/>
            </identifier>
            <status value="unknown"/>
            <intent value="order"/>
            <category>
               <coding>
                  <system value="http://snomed.info/sct"/>
                  <code value="16076005"/>
                  <display value="voorschrijven"/>
               </coding>
            </category>
            <medicationReference>
               <reference value="urn:uuid:853b38b8-a6b9-11ec-1306-020000000000"/>
               <type value="Medication"/>
               <display value="FUROSEMIDE 20MG TABLET"/>
            </medicationReference>
            <subject>
               <reference value="urn:uuid:853b35ca-a6b9-11ec-1306-020000000000"/>
               <type value="Patient"/>
               <display value="Patient, C. XXX_Dijk"/>
            </subject>
            <authoredOn value="2020-09-23T18:12:00+02:00"/>
            <requester>
               <reference value="urn:uuid:853b3a5c-a6b9-11ec-1306-020000000000"/>
               <type value="PractitionerRole"/>
               <display value="Healthcare professional (role), Marcha van Partners, Huisartsen, niet nader gespecificeerd"/>
            </requester>
            <reasonCode>
               <coding>
                  <system value="http://snomed.info/sct"/>
                  <code value="405613005"/>
                  <display value="Verrichting gepland"/>
               </coding>
            </reasonCode>
            <dosageInstruction>
               <timing>
                  <repeat>
                     <frequency value="1"/>
                     <period value="1"/>
                     <periodUnit value="d"/>
                  </repeat>
               </timing>
               <route>
                  <coding>
                     <system value="urn:oid:2.16.840.1.113883.2.4.4.9"/>
                     <code value="9"/>
                     <display value="Oraal"/>
                  </coding>
               </route>
               <doseAndRate>
                  <doseQuantity>
                     <extension url="http://hl7.org/fhir/StructureDefinition/iso21090-PQ-translation">
                        <valueQuantity>
                           <value value="1"/>
                           <unit value="stuk"/>
                           <system value="urn:oid:2.16.840.1.113883.2.4.4.1.900.2"/>
                           <code value="245"/>
                        </valueQuantity>
                     </extension>
                     <value value="1"/>
                     <unit value="stuk"/>
                     <system value="http://unitsofmeasure.org"/>
                     <code value="1"/>
                  </doseQuantity>
               </doseAndRate>
            </dosageInstruction>
            <priorPrescription>
               <type value="MedicationRequest"/>
               <identifier>
                  <system value="urn:oid:2.16.840.1.113883.2.4.3.11.999.77.16076005.1"/>
                  <value value="MBH_200_onderbroken_MA"/>
               </identifier>
               <display value="relatie naar medicatieafspraak: MBH_200_onderbroken_MA || 2.16.840.1.113883.2.4.3.11.999.77.16076005.1"/>
            </priorPrescription>
         </MedicationRequest>
      </resource>
      <search>
         <mode value="include"/>
      </search>
   </entry>
   <entry>
      <fullUrl value="urn:uuid:853b36d8-a6b9-11ec-1306-020000000000"/>
      <resource>
         <MedicationRequest>
            <id value="21684011138832431199977160760051-MBH200eigen1MA"/>
            <meta>
               <profile value="http://nictiz.nl/fhir/StructureDefinition/nl-core-MedicationAgreement"/>
            </meta>
            <extension url="http://nictiz.nl/fhir/StructureDefinition/ext-RenderedDosageInstruction">
               <valueString value="Vanaf 23 dec 2020, tot en met 16 jan 2021, 1 maal per dag 1 stuk, Oraal"/>
            </extension>
            <extension url="http://nictiz.nl/fhir/StructureDefinition/ext-TimeInterval.Period">
               <valuePeriod>
                  <start value="2020-12-23T00:00:00+01:00"/>
                  <end value="2021-01-16T23:59:59+01:00"/>
               </valuePeriod>
            </extension>
            <extension url="http://nictiz.nl/fhir/StructureDefinition/ext-PharmaceuticalTreatment.Identifier">
               <valueIdentifier>
                  <system value="urn:oid:2.16.840.1.113883.2.4.3.11.999.77.1.1"/>
                  <value value="MBH_200_eigen1"/>
               </valueIdentifier>
            </extension>
            <extension url="http://nictiz.nl/fhir/StructureDefinition/ext-CopyIndicator">
               <valueBoolean value="true"/>
            </extension>
            <identifier>
               <system value="urn:oid:2.16.840.1.113883.2.4.3.11.999.77.16076005.1"/>
               <value value="MBH_200_eigen1_MA"/>
            </identifier>
            <status value="unknown"/>
            <intent value="order"/>
            <category>
               <coding>
                  <system value="http://snomed.info/sct"/>
                  <code value="16076005"/>
                  <display value="voorschrijven"/>
               </coding>
            </category>
            <medicationReference>
               <reference value="urn:uuid:853b38f4-a6b9-11ec-1306-020000000000"/>
               <type value="Medication"/>
               <display value="PANTOPRAZOL 20MG TABLET MSR"/>
            </medicationReference>
            <subject>
               <reference value="urn:uuid:853b35ca-a6b9-11ec-1306-020000000000"/>
               <type value="Patient"/>
               <display value="Patient, C. XXX_Dijk"/>
            </subject>
            <authoredOn value="2020-12-22T18:05:00+01:00"/>
            <requester>
               <reference value="urn:uuid:853b3a5c-a6b9-11ec-1306-020000000000"/>
               <type value="PractitionerRole"/>
               <display value="Healthcare professional (role), Marcha van Partners, Huisartsen, niet nader gespecificeerd"/>
            </requester>
            <dosageInstruction>
               <timing>
                  <repeat>
                     <frequency value="1"/>
                     <period value="1"/>
                     <periodUnit value="d"/>
                  </repeat>
               </timing>
               <route>
                  <coding>
                     <system value="urn:oid:2.16.840.1.113883.2.4.4.9"/>
                     <code value="9"/>
                     <display value="Oraal"/>
                  </coding>
               </route>
               <doseAndRate>
                  <doseQuantity>
                     <extension url="http://hl7.org/fhir/StructureDefinition/iso21090-PQ-translation">
                        <valueQuantity>
                           <value value="1"/>
                           <unit value="stuk"/>
                           <system value="urn:oid:2.16.840.1.113883.2.4.4.1.900.2"/>
                           <code value="245"/>
                        </valueQuantity>
                     </extension>
                     <value value="1"/>
                     <unit value="stuk"/>
                     <system value="http://unitsofmeasure.org"/>
                     <code value="1"/>
                  </doseQuantity>
               </doseAndRate>
            </dosageInstruction>
         </MedicationRequest>
      </resource>
      <search>
         <mode value="include"/>
      </search>
   </entry>
   <entry>
      <fullUrl value="urn:uuid:853b3714-a6b9-11ec-1306-020000000000"/>
      <resource>
         <MedicationRequest>
            <id value="21684011138832431199977160760051-MBH200eigen2MA"/>
            <meta>
               <profile value="http://nictiz.nl/fhir/StructureDefinition/nl-core-MedicationAgreement"/>
            </meta>
            <extension url="http://nictiz.nl/fhir/StructureDefinition/ext-RenderedDosageInstruction">
               <valueString value="Vanaf 26 jul 2020, gedurende 1 week, 3 maal per dag 1 stuk, Oraal"/>
            </extension>
            <extension url="http://nictiz.nl/fhir/StructureDefinition/ext-TimeInterval.Period">
               <valuePeriod>
                  <extension url="http://nictiz.nl/fhir/StructureDefinition/ext-TimeInterval.Duration">
                     <valueDuration>
                        <value value="1"/>
                        <unit value="week"/>
                        <system value="http://unitsofmeasure.org"/>
                        <code value="wk"/>
                     </valueDuration>
                  </extension>
                  <start value="2020-07-26T00:00:00+02:00"/>
               </valuePeriod>
            </extension>
            <extension url="http://nictiz.nl/fhir/StructureDefinition/ext-PharmaceuticalTreatment.Identifier">
               <valueIdentifier>
                  <system value="urn:oid:2.16.840.1.113883.2.4.3.11.999.77.1.1"/>
                  <value value="MBH_200_eigen2"/>
               </valueIdentifier>
            </extension>
            <extension url="http://nictiz.nl/fhir/StructureDefinition/ext-CopyIndicator">
               <valueBoolean value="true"/>
            </extension>
            <identifier>
               <system value="urn:oid:2.16.840.1.113883.2.4.3.11.999.77.16076005.1"/>
               <value value="MBH_200_eigen2_MA"/>
            </identifier>
            <status value="unknown"/>
            <intent value="order"/>
            <category>
               <coding>
                  <system value="http://snomed.info/sct"/>
                  <code value="16076005"/>
                  <display value="voorschrijven"/>
               </coding>
            </category>
            <medicationReference>
               <reference value="urn:uuid:853b3930-a6b9-11ec-1306-020000000000"/>
               <type value="Medication"/>
               <display value="AMOXICILLINE DISPERTABLET 500MG"/>
            </medicationReference>
            <subject>
               <reference value="urn:uuid:853b35ca-a6b9-11ec-1306-020000000000"/>
               <type value="Patient"/>
               <display value="Patient, C. XXX_Dijk"/>
            </subject>
            <authoredOn value="2020-07-26T08:15:00+02:00"/>
            <requester>
               <reference value="urn:uuid:853b3a5c-a6b9-11ec-1306-020000000000"/>
               <type value="PractitionerRole"/>
               <display value="Healthcare professional (role), Marcha van Partners, Huisartsen, niet nader gespecificeerd"/>
            </requester>
            <dosageInstruction>
               <timing>
                  <repeat>
                     <frequency value="3"/>
                     <period value="1"/>
                     <periodUnit value="d"/>
                  </repeat>
               </timing>
               <route>
                  <coding>
                     <system value="urn:oid:2.16.840.1.113883.2.4.4.9"/>
                     <code value="9"/>
                     <display value="Oraal"/>
                  </coding>
               </route>
               <doseAndRate>
                  <doseQuantity>
                     <extension url="http://hl7.org/fhir/StructureDefinition/iso21090-PQ-translation">
                        <valueQuantity>
                           <value value="1"/>
                           <unit value="stuk"/>
                           <system value="urn:oid:2.16.840.1.113883.2.4.4.1.900.2"/>
                           <code value="245"/>
                        </valueQuantity>
                     </extension>
                     <value value="1"/>
                     <unit value="stuk"/>
                     <system value="http://unitsofmeasure.org"/>
                     <code value="1"/>
                  </doseQuantity>
               </doseAndRate>
            </dosageInstruction>
         </MedicationRequest>
      </resource>
      <search>
         <mode value="include"/>
      </search>
   </entry>
   <entry>
      <fullUrl value="urn:uuid:853b3750-a6b9-11ec-1306-020000000000"/>
      <resource>
         <MedicationRequest>
            <id value="21684011138832431199977160760051-MBH200andermansMA"/>
            <meta>
               <profile value="http://nictiz.nl/fhir/StructureDefinition/nl-core-MedicationAgreement"/>
            </meta>
            <extension url="http://nictiz.nl/fhir/StructureDefinition/ext-RenderedDosageInstruction">
               <valueString value="Vanaf 23 dec 2020, 2 maal per dag 1 stuk, Oraal"/>
            </extension>
            <extension url="http://nictiz.nl/fhir/StructureDefinition/ext-TimeInterval.Period">
               <valuePeriod>
                  <start value="2020-12-23T00:00:00+01:00"/>
               </valuePeriod>
            </extension>
            <extension url="http://nictiz.nl/fhir/StructureDefinition/ext-PharmaceuticalTreatment.Identifier">
               <valueIdentifier>
                  <system value="urn:oid:2.16.840.1.113883.2.4.3.11.999.77.1.1"/>
                  <value value="MBH_200_andermans"/>
               </valueIdentifier>
            </extension>
            <extension url="http://nictiz.nl/fhir/StructureDefinition/ext-CopyIndicator">
               <valueBoolean value="true"/>
            </extension>
            <identifier>
               <system value="urn:oid:2.16.840.1.113883.2.4.3.11.999.77.16076005.1"/>
               <value value="MBH_200_andermans_MA"/>
            </identifier>
            <status value="unknown"/>
            <intent value="order"/>
            <category>
               <coding>
                  <system value="http://snomed.info/sct"/>
                  <code value="16076005"/>
                  <display value="voorschrijven"/>
               </coding>
            </category>
            <medicationReference>
               <reference value="urn:uuid:853b396c-a6b9-11ec-1306-020000000000"/>
               <type value="Medication"/>
               <display value="IBUPROFEN TABLET 600MG"/>
            </medicationReference>
            <subject>
               <reference value="urn:uuid:853b35ca-a6b9-11ec-1306-020000000000"/>
               <type value="Patient"/>
               <display value="Patient, C. XXX_Dijk"/>
            </subject>
            <authoredOn value="2020-12-22T18:15:00+01:00"/>
            <requester>
               <reference value="urn:uuid:853b3a20-a6b9-11ec-1306-020000000000"/>
               <type value="PractitionerRole"/>
               <display value="Healthcare professional (role), Peter van Pulver, Huisartsen, niet nader gespecificeerd"/>
            </requester>
            <dosageInstruction>
               <timing>
                  <repeat>
                     <frequency value="2"/>
                     <period value="1"/>
                     <periodUnit value="d"/>
                  </repeat>
               </timing>
               <route>
                  <coding>
                     <system value="urn:oid:2.16.840.1.113883.2.4.4.9"/>
                     <code value="9"/>
                     <display value="Oraal"/>
                  </coding>
               </route>
               <doseAndRate>
                  <doseQuantity>
                     <extension url="http://hl7.org/fhir/StructureDefinition/iso21090-PQ-translation">
                        <valueQuantity>
                           <value value="1"/>
                           <unit value="stuk"/>
                           <system value="urn:oid:2.16.840.1.113883.2.4.4.1.900.2"/>
                           <code value="245"/>
                        </valueQuantity>
                     </extension>
                     <value value="1"/>
                     <unit value="stuk"/>
                     <system value="http://unitsofmeasure.org"/>
                     <code value="1"/>
                  </doseQuantity>
               </doseAndRate>
            </dosageInstruction>
         </MedicationRequest>
      </resource>
      <search>
         <mode value="include"/>
      </search>
   </entry>
   <entry>
      <fullUrl value="urn:uuid:853b378c-a6b9-11ec-1306-020000000000"/>
      <resource>
         <MedicationRequest>
            <id value="21684011138832431199977160760051-MBH200toekomstigMA"/>
            <meta>
               <profile value="http://nictiz.nl/fhir/StructureDefinition/nl-core-MedicationAgreement"/>
            </meta>
            <extension url="http://nictiz.nl/fhir/StructureDefinition/ext-RenderedDosageInstruction">
               <valueString value="Vanaf 16 jan 2021, tot en met 21 feb 2021, 1 maal per dag 1 stuk, Oraal"/>
            </extension>
            <extension url="http://nictiz.nl/fhir/StructureDefinition/ext-TimeInterval.Period">
               <valuePeriod>
                  <start value="2021-01-16T00:00:00+01:00"/>
                  <end value="2021-02-21T23:59:59+01:00"/>
               </valuePeriod>
            </extension>
            <extension url="http://nictiz.nl/fhir/StructureDefinition/ext-PharmaceuticalTreatment.Identifier">
               <valueIdentifier>
                  <system value="urn:oid:2.16.840.1.113883.2.4.3.11.999.77.1.1"/>
                  <value value="MBH_200_toekomstig"/>
               </valueIdentifier>
            </extension>
            <extension url="http://nictiz.nl/fhir/StructureDefinition/ext-CopyIndicator">
               <valueBoolean value="true"/>
            </extension>
            <identifier>
               <system value="urn:oid:2.16.840.1.113883.2.4.3.11.999.77.16076005.1"/>
               <value value="MBH_200_toekomstig_MA"/>
            </identifier>
            <status value="unknown"/>
            <intent value="order"/>
            <category>
               <coding>
                  <system value="http://snomed.info/sct"/>
                  <code value="16076005"/>
                  <display value="voorschrijven"/>
               </coding>
            </category>
            <medicationReference>
               <reference value="urn:uuid:853b39a8-a6b9-11ec-1306-020000000000"/>
               <type value="Medication"/>
               <display value="DOXYCYCLINE 100MG TABLET"/>
            </medicationReference>
            <subject>
               <reference value="urn:uuid:853b35ca-a6b9-11ec-1306-020000000000"/>
               <type value="Patient"/>
               <display value="Patient, C. XXX_Dijk"/>
            </subject>
            <authoredOn value="2020-12-31T08:15:00+01:00"/>
            <requester>
               <reference value="urn:uuid:853b3a5c-a6b9-11ec-1306-020000000000"/>
               <type value="PractitionerRole"/>
               <display value="Healthcare professional (role), Marcha van Partners, Huisartsen, niet nader gespecificeerd"/>
            </requester>
            <dosageInstruction>
               <timing>
                  <repeat>
                     <frequency value="1"/>
                     <period value="1"/>
                     <periodUnit value="d"/>
                  </repeat>
               </timing>
               <route>
                  <coding>
                     <system value="urn:oid:2.16.840.1.113883.2.4.4.9"/>
                     <code value="9"/>
                     <display value="Oraal"/>
                  </coding>
               </route>
               <doseAndRate>
                  <doseQuantity>
                     <extension url="http://hl7.org/fhir/StructureDefinition/iso21090-PQ-translation">
                        <valueQuantity>
                           <value value="1"/>
                           <unit value="stuk"/>
                           <system value="urn:oid:2.16.840.1.113883.2.4.4.1.900.2"/>
                           <code value="245"/>
                        </valueQuantity>
                     </extension>
                     <value value="1"/>
                     <unit value="stuk"/>
                     <system value="http://unitsofmeasure.org"/>
                     <code value="1"/>
                  </doseQuantity>
               </doseAndRate>
            </dosageInstruction>
         </MedicationRequest>
      </resource>
      <search>
         <mode value="include"/>
      </search>
   </entry>
   <entry>
      <fullUrl value="urn:uuid:853b37c8-a6b9-11ec-1306-020000000000"/>
      <resource>
         <MedicationRequest>
            <id value="853b3508-a6b9-11ec-1306-020000000000"/>
            <meta>
               <profile value="http://nictiz.nl/fhir/StructureDefinition/nl-core-MedicationAgreement"/>
            </meta>
            <extension url="http://nictiz.nl/fhir/StructureDefinition/ext-RenderedDosageInstruction">
               <valueString value="Vanaf 12 dec 2020, tot en met 22 dec 2020, 1 maal per dag 1 stuk, Oraal, definitief gestopt"/>
            </extension>
            <extension url="http://nictiz.nl/fhir/StructureDefinition/ext-TimeInterval.Period">
               <valuePeriod>
                  <start value="2020-12-12T00:00:00+01:00"/>
                  <end value="2020-12-22T23:59:59+01:00"/>
               </valuePeriod>
            </extension>
            <extension url="http://nictiz.nl/fhir/StructureDefinition/ext-PharmaceuticalTreatment.Identifier">
               <valueIdentifier>
                  <system value="urn:oid:2.16.840.1.113883.2.4.3.11.999.77.1.1"/>
                  <value value="MBH_200_gestoptandermans"/>
               </valueIdentifier>
            </extension>
            <extension url="http://nictiz.nl/fhir/StructureDefinition/ext-CopyIndicator">
               <valueBoolean value="true"/>
            </extension>
            <modifierExtension url="http://nictiz.nl/fhir/StructureDefinition/ext-StopType">
               <valueCodeableConcept>
                  <coding>
                     <system value="http://snomed.info/sct"/>
                     <code value="113371000146109"/>
                     <display value="definitief gestopt met medicatie"/>
                  </coding>
               </valueCodeableConcept>
            </modifierExtension>
            <identifier>
               <system value="urn:oid:2.16.840.1.113883.2.4.3.11.999.77.16076005.1"/>
               <value value="MBH_200_gestoptandermans_MA_staken"/>
            </identifier>
            <status value="unknown"/>
            <intent value="order"/>
            <category>
               <coding>
                  <system value="http://snomed.info/sct"/>
                  <code value="16076005"/>
                  <display value="voorschrijven"/>
               </coding>
            </category>
            <medicationReference>
               <reference value="urn:uuid:853b39e4-a6b9-11ec-1306-020000000000"/>
               <type value="Medication"/>
               <display value="DICLOFENAC NATRIUM TABLET MGA 100MG"/>
            </medicationReference>
            <subject>
               <reference value="urn:uuid:853b35ca-a6b9-11ec-1306-020000000000"/>
               <type value="Patient"/>
               <display value="Patient, C. XXX_Dijk"/>
            </subject>
            <authoredOn value="2020-12-22T18:00:00+01:00"/>
            <requester>
               <reference value="urn:uuid:853b3a20-a6b9-11ec-1306-020000000000"/>
               <type value="PractitionerRole"/>
               <display value="Healthcare professional (role), Peter van Pulver, Huisartsen, niet nader gespecificeerd"/>
            </requester>
            <reasonCode>
               <coding>
                  <system value="http://snomed.info/sct"/>
                  <code value="79899007"/>
                  <display value="Geneesmiddelinteractie"/>
               </coding>
            </reasonCode>
            <dosageInstruction>
               <timing>
                  <repeat>
                     <frequency value="1"/>
                     <period value="1"/>
                     <periodUnit value="d"/>
                  </repeat>
               </timing>
               <route>
                  <coding>
                     <system value="urn:oid:2.16.840.1.113883.2.4.4.9"/>
                     <code value="9"/>
                     <display value="Oraal"/>
                  </coding>
               </route>
               <doseAndRate>
                  <doseQuantity>
                     <extension url="http://hl7.org/fhir/StructureDefinition/iso21090-PQ-translation">
                        <valueQuantity>
                           <value value="1"/>
                           <unit value="stuk"/>
                           <system value="urn:oid:2.16.840.1.113883.2.4.4.1.900.2"/>
                           <code value="245"/>
                        </valueQuantity>
                     </extension>
                     <value value="1"/>
                     <unit value="stuk"/>
                     <system value="http://unitsofmeasure.org"/>
                     <code value="1"/>
                  </doseQuantity>
               </doseAndRate>
            </dosageInstruction>
            <priorPrescription>
               <type value="MedicationRequest"/>
               <identifier>
                  <system value="urn:oid:2.16.840.1.113883.2.4.3.11.999.77.16076005.1"/>
                  <value value="MBH_200_gestoptandermans_MA"/>
               </identifier>
               <display value="relatie naar medicatieafspraak: MBH_200_gestoptandermans_MA || 2.16.840.1.113883.2.4.3.11.999.77.16076005.1"/>
            </priorPrescription>
         </MedicationRequest>
      </resource>
      <search>
         <mode value="include"/>
      </search>
   </entry>
   <entry>
      <fullUrl value="urn:uuid:853b3b88-a6b9-11ec-1306-020000000000"/>
      <resource>
         <MedicationRequest>
            <id value="853b35b2-a6b9-11ec-1306-020000000000"/>
            <meta>
               <profile value="http://nictiz.nl/fhir/StructureDefinition/nl-core-MedicationAgreement"/>
            </meta>
            <extension url="http://nictiz.nl/fhir/StructureDefinition/ext-PharmaceuticalTreatment.Identifier">
               <valueIdentifier>
                  <system value="urn:oid:2.16.840.1.113883.2.4.3.11.999.77.1.1"/>
                  <value value="MBH_200_gestopt"/>
               </valueIdentifier>
            </extension>
            <status value="unknown"/>
            <intent value="order"/>
            <category>
               <coding>
                  <system value="http://snomed.info/sct"/>
                  <code value="16076005"/>
                  <display value="voorschrijven"/>
               </coding>
            </category>
            <subject>
               <reference value="urn:uuid:853b35ca-a6b9-11ec-1306-020000000000"/>
               <type value="Patient"/>
               <display value="Patient, C. XXX_Dijk"/>
            </subject>
         </MedicationRequest>
      </resource>
      <search>
         <mode value="include"/>
      </search>
   </entry>
   <entry>
      <fullUrl value="urn:uuid:853b3bc4-a6b9-11ec-1306-020000000000"/>
      <resource>
         <MedicationRequest>
            <id value="853b35b9-a6b9-11ec-1306-020000000000"/>
            <meta>
               <profile value="http://nictiz.nl/fhir/StructureDefinition/nl-core-MedicationAgreement"/>
            </meta>
            <extension url="http://nictiz.nl/fhir/StructureDefinition/ext-PharmaceuticalTreatment.Identifier">
               <valueIdentifier>
                  <system value="urn:oid:2.16.840.1.113883.2.4.3.11.999.77.1.1"/>
                  <value value="MBH_200_gewijzigd"/>
               </valueIdentifier>
            </extension>
            <status value="unknown"/>
            <intent value="order"/>
            <category>
               <coding>
                  <system value="http://snomed.info/sct"/>
                  <code value="16076005"/>
                  <display value="voorschrijven"/>
               </coding>
            </category>
            <subject>
               <reference value="urn:uuid:853b35ca-a6b9-11ec-1306-020000000000"/>
               <type value="Patient"/>
               <display value="Patient, C. XXX_Dijk"/>
            </subject>
         </MedicationRequest>
      </resource>
      <search>
         <mode value="include"/>
      </search>
   </entry>
   <entry>
      <fullUrl value="urn:uuid:853b3c00-a6b9-11ec-1306-020000000000"/>
      <resource>
         <MedicationRequest>
            <id value="853b35c0-a6b9-11ec-1306-020000000000"/>
            <meta>
               <profile value="http://nictiz.nl/fhir/StructureDefinition/nl-core-MedicationAgreement"/>
            </meta>
            <extension url="http://nictiz.nl/fhir/StructureDefinition/ext-PharmaceuticalTreatment.Identifier">
               <valueIdentifier>
                  <system value="urn:oid:2.16.840.1.113883.2.4.3.11.999.77.1.1"/>
                  <value value="MBH_200_gewijzigddoorander"/>
               </valueIdentifier>
            </extension>
            <status value="unknown"/>
            <intent value="order"/>
            <category>
               <coding>
                  <system value="http://snomed.info/sct"/>
                  <code value="16076005"/>
                  <display value="voorschrijven"/>
               </coding>
            </category>
            <subject>
               <reference value="urn:uuid:853b35ca-a6b9-11ec-1306-020000000000"/>
               <type value="Patient"/>
               <display value="Patient, C. XXX_Dijk"/>
            </subject>
         </MedicationRequest>
      </resource>
      <search>
         <mode value="include"/>
      </search>
   </entry>
   <entry>
      <fullUrl value="urn:uuid:853b3c5a-a6b9-11ec-1306-020000000000"/>
      <resource>
         <MedicationRequest>
            <id value="853b35ca-a6b9-11ec-1306-020000000000"/>
            <meta>
               <profile value="http://nictiz.nl/fhir/StructureDefinition/nl-core-MedicationAgreement"/>
            </meta>
            <extension url="http://nictiz.nl/fhir/StructureDefinition/ext-PharmaceuticalTreatment.Identifier">
               <valueIdentifier>
                  <system value="urn:oid:2.16.840.1.113883.2.4.3.11.999.77.1.1"/>
                  <value value="MBH_200_onderbroken"/>
               </valueIdentifier>
            </extension>
            <status value="unknown"/>
            <intent value="order"/>
            <category>
               <coding>
                  <system value="http://snomed.info/sct"/>
                  <code value="16076005"/>
                  <display value="voorschrijven"/>
               </coding>
            </category>
            <subject>
               <reference value="urn:uuid:853b35ca-a6b9-11ec-1306-020000000000"/>
               <type value="Patient"/>
               <display value="Patient, C. XXX_Dijk"/>
            </subject>
         </MedicationRequest>
      </resource>
      <search>
         <mode value="include"/>
      </search>
   </entry>
   <entry>
      <fullUrl value="urn:uuid:853b3c96-a6b9-11ec-1306-020000000000"/>
      <resource>
         <MedicationRequest>
            <id value="853b35d1-a6b9-11ec-1306-020000000000"/>
            <meta>
               <profile value="http://nictiz.nl/fhir/StructureDefinition/nl-core-MedicationAgreement"/>
            </meta>
            <extension url="http://nictiz.nl/fhir/StructureDefinition/ext-PharmaceuticalTreatment.Identifier">
               <valueIdentifier>
                  <system value="urn:oid:2.16.840.1.113883.2.4.3.11.999.77.1.1"/>
                  <value value="MBH_200_eigen1"/>
               </valueIdentifier>
            </extension>
            <status value="unknown"/>
            <intent value="order"/>
            <category>
               <coding>
                  <system value="http://snomed.info/sct"/>
                  <code value="16076005"/>
                  <display value="voorschrijven"/>
               </coding>
            </category>
            <subject>
               <reference value="urn:uuid:853b35ca-a6b9-11ec-1306-020000000000"/>
               <type value="Patient"/>
               <display value="Patient, C. XXX_Dijk"/>
            </subject>
         </MedicationRequest>
      </resource>
      <search>
         <mode value="include"/>
      </search>
   </entry>
   <entry>
      <fullUrl value="urn:uuid:853b3d0e-a6b9-11ec-1306-020000000000"/>
      <resource>
         <MedicationRequest>
            <id value="853b35de-a6b9-11ec-1306-020000000000"/>
            <meta>
               <profile value="http://nictiz.nl/fhir/StructureDefinition/nl-core-MedicationAgreement"/>
            </meta>
            <extension url="http://nictiz.nl/fhir/StructureDefinition/ext-PharmaceuticalTreatment.Identifier">
               <valueIdentifier>
                  <system value="2.16.840.1.113883.2.4.3.11.999.77.1.1"/>
                  <value value="MBH_200_eigen2"/>
               </valueIdentifier>
            </extension>
            <status value="unknown"/>
            <intent value="order"/>
            <category>
               <coding>
                  <system value="http://snomed.info/sct"/>
                  <code value="16076005"/>
                  <display value="voorschrijven"/>
               </coding>
            </category>
            <subject>
               <reference value="urn:uuid:853b35ca-a6b9-11ec-1306-020000000000"/>
               <type value="Patient"/>
               <display value="Patient, C. XXX_Dijk"/>
            </subject>
         </MedicationRequest>
      </resource>
      <search>
         <mode value="include"/>
      </search>
   </entry>
   <entry>
      <fullUrl value="urn:uuid:853b3d68-a6b9-11ec-1306-020000000000"/>
      <resource>
         <MedicationRequest>
            <id value="853b35ea-a6b9-11ec-1306-020000000000"/>
            <meta>
               <profile value="http://nictiz.nl/fhir/StructureDefinition/nl-core-MedicationAgreement"/>
            </meta>
            <extension url="http://nictiz.nl/fhir/StructureDefinition/ext-PharmaceuticalTreatment.Identifier">
               <valueIdentifier>
                  <system value="2.16.840.1.113883.2.4.3.11.999.77.1.1"/>
                  <value value="MBH_200_andermans"/>
               </valueIdentifier>
            </extension>
            <status value="unknown"/>
            <intent value="order"/>
            <category>
               <coding>
                  <system value="http://snomed.info/sct"/>
                  <code value="16076005"/>
                  <display value="voorschrijven"/>
               </coding>
            </category>
            <subject>
               <reference value="urn:uuid:853b35ca-a6b9-11ec-1306-020000000000"/>
               <type value="Patient"/>
               <display value="Patient, C. XXX_Dijk"/>
            </subject>
         </MedicationRequest>
      </resource>
      <search>
         <mode value="include"/>
      </search>
   </entry>
   <entry>
      <fullUrl value="urn:uuid:853b3da4-a6b9-11ec-1306-020000000000"/>
      <resource>
         <MedicationRequest>
            <id value="853b35f2-a6b9-11ec-1306-020000000000"/>
            <meta>
               <profile value="http://nictiz.nl/fhir/StructureDefinition/nl-core-MedicationAgreement"/>
            </meta>
            <extension url="http://nictiz.nl/fhir/StructureDefinition/ext-PharmaceuticalTreatment.Identifier">
               <valueIdentifier>
                  <system value="2.16.840.1.113883.2.4.3.11.999.77.1.1"/>
                  <value value="MBH_200_toekomstig"/>
               </valueIdentifier>
            </extension>
            <status value="unknown"/>
            <intent value="order"/>
            <category>
               <coding>
                  <system value="http://snomed.info/sct"/>
                  <code value="16076005"/>
                  <display value="voorschrijven"/>
               </coding>
            </category>
            <subject>
               <reference value="urn:uuid:853b35ca-a6b9-11ec-1306-020000000000"/>
               <type value="Patient"/>
               <display value="Patient, C. XXX_Dijk"/>
            </subject>
         </MedicationRequest>
      </resource>
      <search>
         <mode value="include"/>
      </search>
   </entry>
   <entry>
      <fullUrl value="urn:uuid:853b3de0-a6b9-11ec-1306-020000000000"/>
      <resource>
         <MedicationRequest>
            <id value="853b35f9-a6b9-11ec-1306-020000000000"/>
            <meta>
               <profile value="http://nictiz.nl/fhir/StructureDefinition/nl-core-MedicationAgreement"/>
            </meta>
            <extension url="http://nictiz.nl/fhir/StructureDefinition/ext-PharmaceuticalTreatment.Identifier">
               <valueIdentifier>
                  <system value="2.16.840.1.113883.2.4.3.11.999.77.1.1"/>
                  <value value="MBH_200_gestoptandermans"/>
               </valueIdentifier>
            </extension>
            <status value="unknown"/>
            <intent value="order"/>
            <category>
               <coding>
                  <system value="http://snomed.info/sct"/>
                  <code value="16076005"/>
                  <display value="voorschrijven"/>
               </coding>
            </category>
            <subject>
               <reference value="urn:uuid:853b35ca-a6b9-11ec-1306-020000000000"/>
               <type value="Patient"/>
               <display value="Patient, C. XXX_Dijk"/>
            </subject>
         </MedicationRequest>
      </resource>
      <search>
         <mode value="include"/>
      </search>
   </entry>
   <entry>
      <fullUrl value="urn:uuid:853b3606-a6b9-11ec-1306-020000000000"/>
      <resource>
         <MedicationDispense>
            <id value="216840111388324311999774220370091-MBH200gestoptTAstaken"/>
            <meta>
               <profile value="http://nictiz.nl/fhir/StructureDefinition/nl-core-AdministrationAgreement"/>
            </meta>
            <extension url="http://nictiz.nl/fhir/StructureDefinition/ext-AdministrationAgreement.AdministrationAgreementDateTime">
               <valueDateTime value="2020-12-22T19:00:00+01:00"/>
            </extension>
            <extension url="http://nictiz.nl/fhir/StructureDefinition/ext-RenderedDosageInstruction">
               <valueString value="Vanaf 1 sep 2020, tot en met 22 dec 2020, 1 maal per dag 1 stuk, Oraal, definitief gestopt"/>
            </extension>
            <extension url="http://nictiz.nl/fhir/StructureDefinition/ext-TimeInterval.Period">
               <valuePeriod>
                  <start value="2020-09-01T00:00:00+02:00"/>
                  <end value="2020-12-22T23:59:59+01:00"/>
               </valuePeriod>
            </extension>
            <extension url="http://nictiz.nl/fhir/StructureDefinition/ext-PharmaceuticalTreatment.Identifier">
               <valueIdentifier>
                  <system value="urn:oid:2.16.840.1.113883.2.4.3.11.999.77.1.1"/>
                  <value value="MBH_200_gestopt"/>
               </valueIdentifier>
            </extension>
            <modifierExtension url="http://nictiz.nl/fhir/StructureDefinition/ext-StopType">
               <valueCodeableConcept>
                  <coding>
                     <system value="http://snomed.info/sct"/>
                     <code value="113371000146109"/>
                     <display value="definitief gestopt met medicatie"/>
                  </coding>
               </valueCodeableConcept>
            </modifierExtension>
            <identifier>
               <system value="urn:oid:2.16.840.1.113883.2.4.3.11.999.77.422037009.1"/>
               <value value="MBH_200_gestopt_TA_staken"/>
            </identifier>
            <status value="unknown"/>
            <category>
               <coding>
                  <system value="http://snomed.info/sct"/>
                  <code value="422037009"/>
                  <display value="toedieningsafspraak"/>
               </coding>
            </category>
            <medicationReference>
               <reference value="urn:uuid:853b3822-a6b9-11ec-1306-020000000000"/>
               <type value="Medication"/>
               <display value="OMEPRAZOL SANDOZ CAPSULE MSR 20MG"/>
            </medicationReference>
            <subject>
               <reference value="urn:uuid:853b35ca-a6b9-11ec-1306-020000000000"/>
               <type value="Patient"/>
               <display value="Patient, C. XXX_Dijk"/>
            </subject>
            <performer>
               <actor>
                  <reference value="urn:uuid:853b3ad4-a6b9-11ec-1306-020000000000"/>
                  <type value="Organization"/>
                  <display value="Healthcare provider (organization), Apotheek De Gulle Gaper"/>
               </actor>
            </performer>
            <authorizingPrescription>
               <type value="MedicationRequest"/>
               <identifier>
                  <system value="urn:oid:2.16.840.1.113883.2.4.3.11.999.77.16076005.1"/>
                  <value value="MBH_200_gestopt_MA_staken"/>
               </identifier>
               <display value="relatie naar medicatieafspraak met identificatie: MBH_200_gestopt_MA_staken || 2.16.840.1.113883.2.4.3.11.999.77.16076005.1"/>
            </authorizingPrescription>
            <dosageInstruction>
               <timing>
                  <repeat>
                     <frequency value="1"/>
                     <period value="1"/>
                     <periodUnit value="d"/>
                  </repeat>
               </timing>
               <route>
                  <coding>
                     <system value="urn:oid:2.16.840.1.113883.2.4.4.9"/>
                     <code value="9"/>
                     <display value="Oraal"/>
                  </coding>
               </route>
               <doseAndRate>
                  <doseQuantity>
                     <extension url="http://hl7.org/fhir/StructureDefinition/iso21090-PQ-translation">
                        <valueQuantity>
                           <value value="1"/>
                           <unit value="stuk"/>
                           <system value="urn:oid:2.16.840.1.113883.2.4.4.1.900.2"/>
                           <code value="245"/>
                        </valueQuantity>
                     </extension>
                     <value value="1"/>
                     <unit value="stuk"/>
                     <system value="http://unitsofmeasure.org"/>
                     <code value="1"/>
                  </doseQuantity>
               </doseAndRate>
            </dosageInstruction>
         </MedicationDispense>
      </resource>
      <search>
         <mode value="include"/>
      </search>
   </entry>
   <entry>
      <fullUrl value="urn:uuid:853b3642-a6b9-11ec-1306-020000000000"/>
      <resource>
         <MedicationDispense>
            <id value="216840111388324311999774220370091-MBH200gewijzigdTAwijziging"/>
            <meta>
               <profile value="http://nictiz.nl/fhir/StructureDefinition/nl-core-AdministrationAgreement"/>
            </meta>
            <extension url="http://nictiz.nl/fhir/StructureDefinition/ext-AdministrationAgreement.AdministrationAgreementDateTime">
               <valueDateTime value="2020-12-30T09:02:00+01:00"/>
            </extension>
            <extension url="http://nictiz.nl/fhir/StructureDefinition/ext-RenderedDosageInstruction">
               <valueString value="Vanaf 30 dec 2020, 2 maal per dag 2 stuks, Oraal"/>
            </extension>
            <extension url="http://nictiz.nl/fhir/StructureDefinition/ext-TimeInterval.Period">
               <valuePeriod>
                  <start value="2020-12-30T00:00:00+01:00"/>
               </valuePeriod>
            </extension>
            <extension url="http://nictiz.nl/fhir/StructureDefinition/ext-PharmaceuticalTreatment.Identifier">
               <valueIdentifier>
                  <system value="urn:oid:2.16.840.1.113883.2.4.3.11.999.77.1.1"/>
                  <value value="MBH_200_gewijzigd"/>
               </valueIdentifier>
            </extension>
            <identifier>
               <system value="urn:oid:2.16.840.1.113883.2.4.3.11.999.77.422037009.1"/>
               <value value="MBH_200_gewijzigd_TA_wijziging"/>
            </identifier>
            <status value="unknown"/>
            <category>
               <coding>
                  <system value="http://snomed.info/sct"/>
                  <code value="422037009"/>
                  <display value="toedieningsafspraak"/>
               </coding>
            </category>
            <medicationReference>
               <reference value="urn:uuid:853b385e-a6b9-11ec-1306-020000000000"/>
               <type value="Medication"/>
               <display value="METOPROLOLSUCCINAAT MYLAN RET 100 TABL MVA 95MG"/>
            </medicationReference>
            <subject>
               <reference value="urn:uuid:853b35ca-a6b9-11ec-1306-020000000000"/>
               <type value="Patient"/>
               <display value="Patient, C. XXX_Dijk"/>
            </subject>
            <performer>
               <actor>
                  <reference value="urn:uuid:853b3ad4-a6b9-11ec-1306-020000000000"/>
                  <type value="Organization"/>
                  <display value="Healthcare provider (organization), Apotheek De Gulle Gaper"/>
               </actor>
            </performer>
            <authorizingPrescription>
               <type value="MedicationRequest"/>
               <identifier>
                  <system value="urn:oid:2.16.840.1.113883.2.4.3.11.999.77.16076005.1"/>
                  <value value="MBH_200_gewijzigd_MA_wijziging"/>
               </identifier>
               <display value="relatie naar medicatieafspraak met identificatie: MBH_200_gewijzigd_MA_wijziging || 2.16.840.1.113883.2.4.3.11.999.77.16076005.1"/>
            </authorizingPrescription>
            <dosageInstruction>
               <timing>
                  <repeat>
                     <frequency value="2"/>
                     <period value="1"/>
                     <periodUnit value="d"/>
                  </repeat>
               </timing>
               <route>
                  <coding>
                     <system value="urn:oid:2.16.840.1.113883.2.4.4.9"/>
                     <code value="9"/>
                     <display value="Oraal"/>
                  </coding>
               </route>
               <doseAndRate>
                  <doseQuantity>
                     <extension url="http://hl7.org/fhir/StructureDefinition/iso21090-PQ-translation">
                        <valueQuantity>
                           <value value="2"/>
                           <unit value="stuk"/>
                           <system value="urn:oid:2.16.840.1.113883.2.4.4.1.900.2"/>
                           <code value="245"/>
                        </valueQuantity>
                     </extension>
                     <value value="2"/>
                     <unit value="stuk"/>
                     <system value="http://unitsofmeasure.org"/>
                     <code value="1"/>
                  </doseQuantity>
               </doseAndRate>
            </dosageInstruction>
         </MedicationDispense>
      </resource>
      <search>
         <mode value="include"/>
      </search>
   </entry>
   <entry>
      <fullUrl value="urn:uuid:853b367e-a6b9-11ec-1306-020000000000"/>
      <resource>
         <MedicationDispense>
            <id value="853b33d8-a6b9-11ec-1306-020000000000"/>
            <meta>
               <profile value="http://nictiz.nl/fhir/StructureDefinition/nl-core-AdministrationAgreement"/>
            </meta>
            <extension url="http://nictiz.nl/fhir/StructureDefinition/ext-AdministrationAgreement.AdministrationAgreementDateTime">
               <valueDateTime value="2020-12-29T09:10:00+01:00"/>
            </extension>
            <extension url="http://nictiz.nl/fhir/StructureDefinition/ext-RenderedDosageInstruction">
               <valueString value="Vanaf 29 dec 2020, tot en met 31 jan 2021, 1 maal per dag 2 stuks, Oraal"/>
            </extension>
            <extension url="http://nictiz.nl/fhir/StructureDefinition/ext-TimeInterval.Period">
               <valuePeriod>
                  <start value="2020-12-29T00:00:00+01:00"/>
                  <end value="2021-01-31T23:59:59+01:00"/>
               </valuePeriod>
            </extension>
            <extension url="http://nictiz.nl/fhir/StructureDefinition/ext-PharmaceuticalTreatment.Identifier">
               <valueIdentifier>
                  <system value="urn:oid:2.16.840.1.113883.2.4.3.11.999.77.1.1"/>
                  <value value="MBH_200_gewijzigddoorander"/>
               </valueIdentifier>
            </extension>
            <identifier>
               <system value="urn:oid:2.16.840.1.113883.2.4.3.11.999.77.422037009.1"/>
               <value value="MBH_200_gewijzigddoorander_TA_wijziging"/>
            </identifier>
            <status value="unknown"/>
            <category>
               <coding>
                  <system value="http://snomed.info/sct"/>
                  <code value="422037009"/>
                  <display value="toedieningsafspraak"/>
               </coding>
            </category>
            <medicationReference>
               <reference value="urn:uuid:853b389a-a6b9-11ec-1306-020000000000"/>
               <type value="Medication"/>
               <display value="ATORVASTATINE TEVA TABLET FILMOMHULD 10MG"/>
            </medicationReference>
            <subject>
               <reference value="urn:uuid:853b35ca-a6b9-11ec-1306-020000000000"/>
               <type value="Patient"/>
               <display value="Patient, C. XXX_Dijk"/>
            </subject>
            <performer>
               <actor>
                  <reference value="urn:uuid:853b3ad4-a6b9-11ec-1306-020000000000"/>
                  <type value="Organization"/>
                  <display value="Healthcare provider (organization), Apotheek De Gulle Gaper"/>
               </actor>
            </performer>
            <authorizingPrescription>
               <type value="MedicationRequest"/>
               <identifier>
                  <system value="urn:oid:2.16.840.1.113883.2.4.3.11.999.77.16076005.1"/>
                  <value value="MBH_200_gewijzigddoorander_MA_wijzigingdoorander"/>
               </identifier>
               <display value="relatie naar medicatieafspraak met identificatie: MBH_200_gewijzigddoorander_MA_wijzigingdoorander || 2.16.840.1.113883.2.4.3.11.999.77.16076005.1"/>
            </authorizingPrescription>
            <dosageInstruction>
               <timing>
                  <repeat>
                     <frequency value="1"/>
                     <period value="1"/>
                     <periodUnit value="d"/>
                  </repeat>
               </timing>
               <route>
                  <coding>
                     <system value="urn:oid:2.16.840.1.113883.2.4.4.9"/>
                     <code value="9"/>
                     <display value="Oraal"/>
                  </coding>
               </route>
               <doseAndRate>
                  <doseQuantity>
                     <extension url="http://hl7.org/fhir/StructureDefinition/iso21090-PQ-translation">
                        <valueQuantity>
                           <value value="2"/>
                           <unit value="stuk"/>
                           <system value="urn:oid:2.16.840.1.113883.2.4.4.1.900.2"/>
                           <code value="245"/>
                        </valueQuantity>
                     </extension>
                     <value value="2"/>
                     <unit value="stuk"/>
                     <system value="http://unitsofmeasure.org"/>
                     <code value="1"/>
                  </doseQuantity>
               </doseAndRate>
            </dosageInstruction>
         </MedicationDispense>
      </resource>
      <search>
         <mode value="include"/>
      </search>
   </entry>
   <entry>
      <fullUrl value="urn:uuid:853b36ba-a6b9-11ec-1306-020000000000"/>
      <resource>
         <MedicationDispense>
            <id value="853b3413-a6b9-11ec-1306-020000000000"/>
            <meta>
               <profile value="http://nictiz.nl/fhir/StructureDefinition/nl-core-AdministrationAgreement"/>
            </meta>
            <extension url="http://nictiz.nl/fhir/StructureDefinition/ext-AdministrationAgreement.AdministrationAgreementDateTime">
               <valueDateTime value="2020-09-23T19:12:00+02:00"/>
            </extension>
            <extension url="http://nictiz.nl/fhir/StructureDefinition/ext-RenderedDosageInstruction">
               <valueString value="Vanaf 1 aug 2020, tot en met 23 sep 2020, 1 maal per dag 1 stuk, Oraal, tijdelijk gestopt"/>
            </extension>
            <extension url="http://nictiz.nl/fhir/StructureDefinition/ext-TimeInterval.Period">
               <valuePeriod>
                  <start value="2020-08-01T00:00:00+02:00"/>
                  <end value="2020-09-23T23:59:59+02:00"/>
               </valuePeriod>
            </extension>
            <extension url="http://nictiz.nl/fhir/StructureDefinition/ext-PharmaceuticalTreatment.Identifier">
               <valueIdentifier>
                  <system value="urn:oid:2.16.840.1.113883.2.4.3.11.999.77.1.1"/>
                  <value value="MBH_200_onderbroken"/>
               </valueIdentifier>
            </extension>
            <modifierExtension url="http://nictiz.nl/fhir/StructureDefinition/ext-StopType">
               <valueCodeableConcept>
                  <coding>
                     <system value="http://snomed.info/sct"/>
                     <code value="113381000146106"/>
                     <display value="tijdelijk gestopt met medicatie"/>
                  </coding>
               </valueCodeableConcept>
            </modifierExtension>
            <identifier>
               <system value="urn:oid:2.16.840.1.113883.2.4.3.11.999.77.422037009.1"/>
               <value value="MBH_200_onderbroken_TA_onderbreken"/>
            </identifier>
            <status value="unknown"/>
            <category>
               <coding>
                  <system value="http://snomed.info/sct"/>
                  <code value="422037009"/>
                  <display value="toedieningsafspraak"/>
               </coding>
            </category>
            <medicationReference>
               <reference value="urn:uuid:853b38d6-a6b9-11ec-1306-020000000000"/>
               <type value="Medication"/>
               <display value="FUROSEMIDE CF TABLET 20MG"/>
            </medicationReference>
            <subject>
               <reference value="urn:uuid:853b35ca-a6b9-11ec-1306-020000000000"/>
               <type value="Patient"/>
               <display value="Patient, C. XXX_Dijk"/>
            </subject>
            <performer>
               <actor>
                  <reference value="urn:uuid:853b3ad4-a6b9-11ec-1306-020000000000"/>
                  <type value="Organization"/>
                  <display value="Healthcare provider (organization), Apotheek De Gulle Gaper"/>
               </actor>
            </performer>
            <authorizingPrescription>
               <type value="MedicationRequest"/>
               <identifier>
                  <system value="urn:oid:2.16.840.1.113883.2.4.3.11.999.77.16076005.1"/>
                  <value value="MBH_200_onderbroken_MA_onderbreken"/>
               </identifier>
               <display value="relatie naar medicatieafspraak met identificatie: MBH_200_onderbroken_MA_onderbreken || 2.16.840.1.113883.2.4.3.11.999.77.16076005.1"/>
            </authorizingPrescription>
            <dosageInstruction>
               <timing>
                  <repeat>
                     <frequency value="1"/>
                     <period value="1"/>
                     <periodUnit value="d"/>
                  </repeat>
               </timing>
               <route>
                  <coding>
                     <system value="urn:oid:2.16.840.1.113883.2.4.4.9"/>
                     <code value="9"/>
                     <display value="Oraal"/>
                  </coding>
               </route>
               <doseAndRate>
                  <doseQuantity>
                     <extension url="http://hl7.org/fhir/StructureDefinition/iso21090-PQ-translation">
                        <valueQuantity>
                           <value value="1"/>
                           <unit value="stuk"/>
                           <system value="urn:oid:2.16.840.1.113883.2.4.4.1.900.2"/>
                           <code value="245"/>
                        </valueQuantity>
                     </extension>
                     <value value="1"/>
                     <unit value="stuk"/>
                     <system value="http://unitsofmeasure.org"/>
                     <code value="1"/>
                  </doseQuantity>
               </doseAndRate>
            </dosageInstruction>
         </MedicationDispense>
      </resource>
      <search>
         <mode value="include"/>
      </search>
   </entry>
   <entry>
      <fullUrl value="urn:uuid:853b36f6-a6b9-11ec-1306-020000000000"/>
      <resource>
         <MedicationDispense>
            <id value="216840111388324311999774220370091-MBH200eigen1TA"/>
            <meta>
               <profile value="http://nictiz.nl/fhir/StructureDefinition/nl-core-AdministrationAgreement"/>
            </meta>
            <extension url="http://nictiz.nl/fhir/StructureDefinition/ext-AdministrationAgreement.AdministrationAgreementDateTime">
               <valueDateTime value="2020-12-22T18:45:00+01:00"/>
            </extension>
            <extension url="http://nictiz.nl/fhir/StructureDefinition/ext-RenderedDosageInstruction">
               <valueString value="Vanaf 23 dec 2020, tot en met 16 jan 2021, 1 maal per dag 1 stuk, Oraal"/>
            </extension>
            <extension url="http://nictiz.nl/fhir/StructureDefinition/ext-TimeInterval.Period">
               <valuePeriod>
                  <start value="2020-12-23T00:00:00+01:00"/>
                  <end value="2021-01-16T23:59:59+01:00"/>
               </valuePeriod>
            </extension>
            <extension url="http://nictiz.nl/fhir/StructureDefinition/ext-PharmaceuticalTreatment.Identifier">
               <valueIdentifier>
                  <system value="urn:oid:2.16.840.1.113883.2.4.3.11.999.77.1.1"/>
                  <value value="MBH_200_eigen1"/>
               </valueIdentifier>
            </extension>
            <identifier>
               <system value="urn:oid:2.16.840.1.113883.2.4.3.11.999.77.422037009.1"/>
               <value value="MBH_200_eigen1_TA"/>
            </identifier>
            <status value="unknown"/>
            <category>
               <coding>
                  <system value="http://snomed.info/sct"/>
                  <code value="422037009"/>
                  <display value="toedieningsafspraak"/>
               </coding>
            </category>
            <medicationReference>
               <reference value="urn:uuid:853b3912-a6b9-11ec-1306-020000000000"/>
               <type value="Medication"/>
               <display value="PANTOPRAZOL TEVA TABLET MSR 20MG"/>
            </medicationReference>
            <subject>
               <reference value="urn:uuid:853b35ca-a6b9-11ec-1306-020000000000"/>
               <type value="Patient"/>
               <display value="Patient, C. XXX_Dijk"/>
            </subject>
            <performer>
               <actor>
                  <reference value="urn:uuid:853b3ad4-a6b9-11ec-1306-020000000000"/>
                  <type value="Organization"/>
                  <display value="Healthcare provider (organization), Apotheek De Gulle Gaper"/>
               </actor>
            </performer>
            <authorizingPrescription>
               <type value="MedicationRequest"/>
               <identifier>
                  <system value="urn:oid:2.16.840.1.113883.2.4.3.11.999.77.16076005.1"/>
                  <value value="MBH_200_eigen1_MA"/>
               </identifier>
               <display value="relatie naar medicatieafspraak met identificatie: MBH_200_eigen1_MA || 2.16.840.1.113883.2.4.3.11.999.77.16076005.1"/>
            </authorizingPrescription>
            <dosageInstruction>
               <timing>
                  <repeat>
                     <frequency value="1"/>
                     <period value="1"/>
                     <periodUnit value="d"/>
                  </repeat>
               </timing>
               <route>
                  <coding>
                     <system value="urn:oid:2.16.840.1.113883.2.4.4.9"/>
                     <code value="9"/>
                     <display value="Oraal"/>
                  </coding>
               </route>
               <doseAndRate>
                  <doseQuantity>
                     <extension url="http://hl7.org/fhir/StructureDefinition/iso21090-PQ-translation">
                        <valueQuantity>
                           <value value="1"/>
                           <unit value="stuk"/>
                           <system value="urn:oid:2.16.840.1.113883.2.4.4.1.900.2"/>
                           <code value="245"/>
                        </valueQuantity>
                     </extension>
                     <value value="1"/>
                     <unit value="stuk"/>
                     <system value="http://unitsofmeasure.org"/>
                     <code value="1"/>
                  </doseQuantity>
               </doseAndRate>
            </dosageInstruction>
         </MedicationDispense>
      </resource>
      <search>
         <mode value="include"/>
      </search>
   </entry>
   <entry>
      <fullUrl value="urn:uuid:853b3732-a6b9-11ec-1306-020000000000"/>
      <resource>
         <MedicationDispense>
            <id value="216840111388324311999774220370091-MBH200eigen2TA"/>
            <meta>
               <profile value="http://nictiz.nl/fhir/StructureDefinition/nl-core-AdministrationAgreement"/>
            </meta>
            <extension url="http://nictiz.nl/fhir/StructureDefinition/ext-AdministrationAgreement.AdministrationAgreementDateTime">
               <valueDateTime value="2020-07-26T09:15:00+02:00"/>
            </extension>
            <extension url="http://nictiz.nl/fhir/StructureDefinition/ext-RenderedDosageInstruction">
               <valueString value="Vanaf 26 jul 2020, gedurende 1 week, 3 maal per dag 1 stuk, Oraal"/>
            </extension>
            <extension url="http://nictiz.nl/fhir/StructureDefinition/ext-TimeInterval.Period">
               <valuePeriod>
                  <extension url="http://nictiz.nl/fhir/StructureDefinition/ext-TimeInterval.Duration">
                     <valueDuration>
                        <value value="1"/>
                        <unit value="week"/>
                        <system value="http://unitsofmeasure.org"/>
                        <code value="wk"/>
                     </valueDuration>
                  </extension>
                  <start value="2020-07-26T00:00:00+02:00"/>
               </valuePeriod>
            </extension>
            <extension url="http://nictiz.nl/fhir/StructureDefinition/ext-PharmaceuticalTreatment.Identifier">
               <valueIdentifier>
                  <system value="urn:oid:2.16.840.1.113883.2.4.3.11.999.77.1.1"/>
                  <value value="MBH_200_eigen2"/>
               </valueIdentifier>
            </extension>
            <identifier>
               <system value="urn:oid:2.16.840.1.113883.2.4.3.11.999.77.422037009.1"/>
               <value value="MBH_200_eigen2_TA"/>
            </identifier>
            <status value="unknown"/>
            <category>
               <coding>
                  <system value="http://snomed.info/sct"/>
                  <code value="422037009"/>
                  <display value="toedieningsafspraak"/>
               </coding>
            </category>
            <medicationReference>
               <reference value="urn:uuid:853b394e-a6b9-11ec-1306-020000000000"/>
               <type value="Medication"/>
               <display value="AMOXICILLINE DISPER SANDOZ TABLET 500MG"/>
            </medicationReference>
            <subject>
               <reference value="urn:uuid:853b35ca-a6b9-11ec-1306-020000000000"/>
               <type value="Patient"/>
               <display value="Patient, C. XXX_Dijk"/>
            </subject>
            <performer>
               <actor>
                  <reference value="urn:uuid:853b3ad4-a6b9-11ec-1306-020000000000"/>
                  <type value="Organization"/>
                  <display value="Healthcare provider (organization), Apotheek De Gulle Gaper"/>
               </actor>
            </performer>
            <authorizingPrescription>
               <type value="MedicationRequest"/>
               <identifier>
                  <system value="urn:oid:2.16.840.1.113883.2.4.3.11.999.77.16076005.1"/>
                  <value value="MBH_200_eigen2_MA"/>
               </identifier>
               <display value="relatie naar medicatieafspraak met identificatie: MBH_200_eigen2_MA || 2.16.840.1.113883.2.4.3.11.999.77.16076005.1"/>
            </authorizingPrescription>
            <dosageInstruction>
               <timing>
                  <repeat>
                     <frequency value="3"/>
                     <period value="1"/>
                     <periodUnit value="d"/>
                  </repeat>
               </timing>
               <route>
                  <coding>
                     <system value="urn:oid:2.16.840.1.113883.2.4.4.9"/>
                     <code value="9"/>
                     <display value="Oraal"/>
                  </coding>
               </route>
               <doseAndRate>
                  <doseQuantity>
                     <extension url="http://hl7.org/fhir/StructureDefinition/iso21090-PQ-translation">
                        <valueQuantity>
                           <value value="1"/>
                           <unit value="stuk"/>
                           <system value="urn:oid:2.16.840.1.113883.2.4.4.1.900.2"/>
                           <code value="245"/>
                        </valueQuantity>
                     </extension>
                     <value value="1"/>
                     <unit value="stuk"/>
                     <system value="http://unitsofmeasure.org"/>
                     <code value="1"/>
                  </doseQuantity>
               </doseAndRate>
            </dosageInstruction>
         </MedicationDispense>
      </resource>
      <search>
         <mode value="include"/>
      </search>
   </entry>
   <entry>
      <fullUrl value="urn:uuid:853b376e-a6b9-11ec-1306-020000000000"/>
      <resource>
         <MedicationDispense>
            <id value="216840111388324311999774220370091-MBH200andermansTA"/>
            <meta>
               <profile value="http://nictiz.nl/fhir/StructureDefinition/nl-core-AdministrationAgreement"/>
            </meta>
            <extension url="http://nictiz.nl/fhir/StructureDefinition/ext-AdministrationAgreement.AdministrationAgreementDateTime">
               <valueDateTime value="2020-12-22T19:05:00+01:00"/>
            </extension>
            <extension url="http://nictiz.nl/fhir/StructureDefinition/ext-RenderedDosageInstruction">
               <valueString value="Vanaf 23 dec 2020, 2 maal per dag 1 stuk, Oraal"/>
            </extension>
            <extension url="http://nictiz.nl/fhir/StructureDefinition/ext-TimeInterval.Period">
               <valuePeriod>
                  <start value="2020-12-23T00:00:00+01:00"/>
               </valuePeriod>
            </extension>
            <extension url="http://nictiz.nl/fhir/StructureDefinition/ext-CopyIndicator">
               <valueBoolean value="true"/>
            </extension>
            <extension url="http://nictiz.nl/fhir/StructureDefinition/ext-PharmaceuticalTreatment.Identifier">
               <valueIdentifier>
                  <system value="urn:oid:2.16.840.1.113883.2.4.3.11.999.77.1.1"/>
                  <value value="MBH_200_andermans"/>
               </valueIdentifier>
            </extension>
            <identifier>
               <system value="urn:oid:2.16.840.1.113883.2.4.3.11.999.77.422037009.1"/>
               <value value="MBH_200_andermans_TA"/>
            </identifier>
            <status value="unknown"/>
            <category>
               <coding>
                  <system value="http://snomed.info/sct"/>
                  <code value="422037009"/>
                  <display value="toedieningsafspraak"/>
               </coding>
            </category>
            <medicationReference>
               <reference value="urn:uuid:853b398a-a6b9-11ec-1306-020000000000"/>
               <type value="Medication"/>
               <display value="IBUPROFEN PCH TABLET 600MG"/>
            </medicationReference>
            <subject>
               <reference value="urn:uuid:853b35ca-a6b9-11ec-1306-020000000000"/>
               <type value="Patient"/>
               <display value="Patient, C. XXX_Dijk"/>
            </subject>
            <performer>
               <actor>
                  <reference value="urn:uuid:853b3b4c-a6b9-11ec-1306-020000000000"/>
                  <type value="Organization"/>
                  <display value="Healthcare provider (organization), Apotheek Jansen en Co"/>
               </actor>
            </performer>
            <authorizingPrescription>
               <type value="MedicationRequest"/>
               <identifier>
                  <system value="urn:oid:2.16.840.1.113883.2.4.3.11.999.77.16076005.1"/>
                  <value value="MBH_200_andermans_MA"/>
               </identifier>
               <display value="relatie naar medicatieafspraak met identificatie: MBH_200_andermans_MA || 2.16.840.1.113883.2.4.3.11.999.77.16076005.1"/>
            </authorizingPrescription>
            <dosageInstruction>
               <timing>
                  <repeat>
                     <frequency value="2"/>
                     <period value="1"/>
                     <periodUnit value="d"/>
                  </repeat>
               </timing>
               <route>
                  <coding>
                     <system value="urn:oid:2.16.840.1.113883.2.4.4.9"/>
                     <code value="9"/>
                     <display value="Oraal"/>
                  </coding>
               </route>
               <doseAndRate>
                  <doseQuantity>
                     <extension url="http://hl7.org/fhir/StructureDefinition/iso21090-PQ-translation">
                        <valueQuantity>
                           <value value="1"/>
                           <unit value="stuk"/>
                           <system value="urn:oid:2.16.840.1.113883.2.4.4.1.900.2"/>
                           <code value="245"/>
                        </valueQuantity>
                     </extension>
                     <value value="1"/>
                     <unit value="stuk"/>
                     <system value="http://unitsofmeasure.org"/>
                     <code value="1"/>
                  </doseQuantity>
               </doseAndRate>
            </dosageInstruction>
         </MedicationDispense>
      </resource>
      <search>
         <mode value="include"/>
      </search>
   </entry>
   <entry>
      <fullUrl value="urn:uuid:853b37aa-a6b9-11ec-1306-020000000000"/>
      <resource>
         <MedicationDispense>
            <id value="216840111388324311999774220370091-MBH200toekomstigTA"/>
            <meta>
               <profile value="http://nictiz.nl/fhir/StructureDefinition/nl-core-AdministrationAgreement"/>
            </meta>
            <extension url="http://nictiz.nl/fhir/StructureDefinition/ext-AdministrationAgreement.AdministrationAgreementDateTime">
               <valueDateTime value="2020-12-31T09:15:00+01:00"/>
            </extension>
            <extension url="http://nictiz.nl/fhir/StructureDefinition/ext-RenderedDosageInstruction">
               <valueString value="Vanaf 16 jan 2021, tot en met 21 feb 2021, 1 maal per dag 1 stuk, Oraal"/>
            </extension>
            <extension url="http://nictiz.nl/fhir/StructureDefinition/ext-TimeInterval.Period">
               <valuePeriod>
                  <start value="2021-01-16T00:00:00+01:00"/>
                  <end value="2021-02-21T23:59:59+01:00"/>
               </valuePeriod>
            </extension>
            <extension url="http://nictiz.nl/fhir/StructureDefinition/ext-PharmaceuticalTreatment.Identifier">
               <valueIdentifier>
                  <system value="urn:oid:2.16.840.1.113883.2.4.3.11.999.77.1.1"/>
                  <value value="MBH_200_toekomstig"/>
               </valueIdentifier>
            </extension>
            <identifier>
               <system value="urn:oid:2.16.840.1.113883.2.4.3.11.999.77.422037009.1"/>
               <value value="MBH_200_toekomstig_TA"/>
            </identifier>
            <status value="unknown"/>
            <category>
               <coding>
                  <system value="http://snomed.info/sct"/>
                  <code value="422037009"/>
                  <display value="toedieningsafspraak"/>
               </coding>
            </category>
            <medicationReference>
               <reference value="urn:uuid:853b39c6-a6b9-11ec-1306-020000000000"/>
               <type value="Medication"/>
               <display value="DOXYCYCLINE PCH TABLET 100MG"/>
            </medicationReference>
            <subject>
               <reference value="urn:uuid:853b35ca-a6b9-11ec-1306-020000000000"/>
               <type value="Patient"/>
               <display value="Patient, C. XXX_Dijk"/>
            </subject>
            <performer>
               <actor>
                  <reference value="urn:uuid:853b3ad4-a6b9-11ec-1306-020000000000"/>
                  <type value="Organization"/>
                  <display value="Healthcare provider (organization), Apotheek De Gulle Gaper"/>
               </actor>
            </performer>
            <authorizingPrescription>
               <type value="MedicationRequest"/>
               <identifier>
                  <system value="urn:oid:2.16.840.1.113883.2.4.3.11.999.77.16076005.1"/>
                  <value value="MBH_200_toekomstig_MA"/>
               </identifier>
               <display value="relatie naar medicatieafspraak met identificatie: MBH_200_toekomstig_MA || 2.16.840.1.113883.2.4.3.11.999.77.16076005.1"/>
            </authorizingPrescription>
            <dosageInstruction>
               <timing>
                  <repeat>
                     <frequency value="1"/>
                     <period value="1"/>
                     <periodUnit value="d"/>
                  </repeat>
               </timing>
               <route>
                  <coding>
                     <system value="urn:oid:2.16.840.1.113883.2.4.4.9"/>
                     <code value="9"/>
                     <display value="Oraal"/>
                  </coding>
               </route>
               <doseAndRate>
                  <doseQuantity>
                     <extension url="http://hl7.org/fhir/StructureDefinition/iso21090-PQ-translation">
                        <valueQuantity>
                           <value value="1"/>
                           <unit value="stuk"/>
                           <system value="urn:oid:2.16.840.1.113883.2.4.4.1.900.2"/>
                           <code value="245"/>
                        </valueQuantity>
                     </extension>
                     <value value="1"/>
                     <unit value="stuk"/>
                     <system value="http://unitsofmeasure.org"/>
                     <code value="1"/>
                  </doseQuantity>
               </doseAndRate>
            </dosageInstruction>
         </MedicationDispense>
      </resource>
      <search>
         <mode value="include"/>
      </search>
   </entry>
   <entry>
      <fullUrl value="urn:uuid:853b37e6-a6b9-11ec-1306-020000000000"/>
      <resource>
         <MedicationDispense>
            <id value="853b3525-a6b9-11ec-1306-020000000000"/>
            <meta>
               <profile value="http://nictiz.nl/fhir/StructureDefinition/nl-core-AdministrationAgreement"/>
            </meta>
            <extension url="http://nictiz.nl/fhir/StructureDefinition/ext-AdministrationAgreement.AdministrationAgreementDateTime">
               <valueDateTime value="2020-12-22T19:00:00+01:00"/>
            </extension>
            <extension url="http://nictiz.nl/fhir/StructureDefinition/ext-RenderedDosageInstruction">
               <valueString value="Vanaf 12 dec 2020, tot en met 22 dec 2020, 1 maal per dag 1 stuk, Oraal, definitief gestopt"/>
            </extension>
            <extension url="http://nictiz.nl/fhir/StructureDefinition/ext-TimeInterval.Period">
               <valuePeriod>
                  <start value="2020-12-12T00:00:00+01:00"/>
                  <end value="2020-12-22T23:59:59+01:00"/>
               </valuePeriod>
            </extension>
            <extension url="http://nictiz.nl/fhir/StructureDefinition/ext-CopyIndicator">
               <valueBoolean value="true"/>
            </extension>
            <extension url="http://nictiz.nl/fhir/StructureDefinition/ext-PharmaceuticalTreatment.Identifier">
               <valueIdentifier>
                  <system value="urn:oid:2.16.840.1.113883.2.4.3.11.999.77.1.1"/>
                  <value value="MBH_200_gestoptandermans"/>
               </valueIdentifier>
            </extension>
            <modifierExtension url="http://nictiz.nl/fhir/StructureDefinition/ext-StopType">
               <valueCodeableConcept>
                  <coding>
                     <system value="http://snomed.info/sct"/>
                     <code value="113371000146109"/>
                     <display value="definitief gestopt met medicatie"/>
                  </coding>
               </valueCodeableConcept>
            </modifierExtension>
            <identifier>
               <system value="urn:oid:2.16.840.1.113883.2.4.3.11.999.77.422037009.1"/>
               <value value="MBH_200_gestoptandermans_TA_staken"/>
            </identifier>
            <status value="unknown"/>
            <category>
               <coding>
                  <system value="http://snomed.info/sct"/>
                  <code value="422037009"/>
                  <display value="toedieningsafspraak"/>
               </coding>
            </category>
            <medicationReference>
               <reference value="urn:uuid:853b3a02-a6b9-11ec-1306-020000000000"/>
               <type value="Medication"/>
               <display value="DICLOFENAC NATRIUM SANDOZ RETARD TABLET MGA 100MG"/>
            </medicationReference>
            <subject>
               <reference value="urn:uuid:853b35ca-a6b9-11ec-1306-020000000000"/>
               <type value="Patient"/>
               <display value="Patient, C. XXX_Dijk"/>
            </subject>
            <performer>
               <actor>
                  <reference value="urn:uuid:853b3b4c-a6b9-11ec-1306-020000000000"/>
                  <type value="Organization"/>
                  <display value="Healthcare provider (organization), Apotheek Jansen en Co"/>
               </actor>
            </performer>
            <authorizingPrescription>
               <type value="MedicationRequest"/>
               <identifier>
                  <system value="urn:oid:2.16.840.1.113883.2.4.3.11.999.77.16076005.1"/>
                  <value value="MBH_200_gestoptandermans_MA_staken"/>
               </identifier>
               <display value="relatie naar medicatieafspraak met identificatie: MBH_200_gestoptandermans_MA_staken || 2.16.840.1.113883.2.4.3.11.999.77.16076005.1"/>
            </authorizingPrescription>
            <dosageInstruction>
               <timing>
                  <repeat>
                     <frequency value="1"/>
                     <period value="1"/>
                     <periodUnit value="d"/>
                  </repeat>
               </timing>
               <route>
                  <coding>
                     <system value="urn:oid:2.16.840.1.113883.2.4.4.9"/>
                     <code value="9"/>
                     <display value="Oraal"/>
                  </coding>
               </route>
               <doseAndRate>
                  <doseQuantity>
                     <extension url="http://hl7.org/fhir/StructureDefinition/iso21090-PQ-translation">
                        <valueQuantity>
                           <value value="1"/>
                           <unit value="stuk"/>
                           <system value="urn:oid:2.16.840.1.113883.2.4.4.1.900.2"/>
                           <code value="245"/>
                        </valueQuantity>
                     </extension>
                     <value value="1"/>
                     <unit value="stuk"/>
                     <system value="http://unitsofmeasure.org"/>
                     <code value="1"/>
                  </doseQuantity>
               </doseAndRate>
            </dosageInstruction>
         </MedicationDispense>
      </resource>
      <search>
         <mode value="include"/>
      </search>
   </entry>
   <entry>
      <fullUrl value="urn:uuid:853b3ba6-a6b9-11ec-1306-020000000000"/>
      <resource>
         <MedicationDispense>
            <id value="853b35b5-a6b9-11ec-1306-020000000000"/>
            <meta>
               <profile value="http://nictiz.nl/fhir/StructureDefinition/nl-core-AdministrationAgreement"/>
            </meta>
            <extension url="http://nictiz.nl/fhir/StructureDefinition/ext-PharmaceuticalTreatment.Identifier">
               <valueIdentifier>
                  <system value="urn:oid:2.16.840.1.113883.2.4.3.11.999.77.1.1"/>
                  <value value="MBH_200_gestopt"/>
               </valueIdentifier>
            </extension>
            <status value="unknown"/>
            <category>
               <coding>
                  <system value="http://snomed.info/sct"/>
                  <code value="422037009"/>
                  <display value="toedieningsafspraak"/>
               </coding>
            </category>
            <subject>
               <reference value="urn:uuid:853b35ca-a6b9-11ec-1306-020000000000"/>
               <type value="Patient"/>
               <display value="Patient, C. XXX_Dijk"/>
            </subject>
         </MedicationDispense>
      </resource>
      <search>
         <mode value="include"/>
      </search>
   </entry>
   <entry>
      <fullUrl value="urn:uuid:853b3be2-a6b9-11ec-1306-020000000000"/>
      <resource>
         <MedicationDispense>
            <id value="853b35bc-a6b9-11ec-1306-020000000000"/>
            <meta>
               <profile value="http://nictiz.nl/fhir/StructureDefinition/nl-core-AdministrationAgreement"/>
            </meta>
            <extension url="http://nictiz.nl/fhir/StructureDefinition/ext-PharmaceuticalTreatment.Identifier">
               <valueIdentifier>
                  <system value="urn:oid:2.16.840.1.113883.2.4.3.11.999.77.1.1"/>
                  <value value="MBH_200_gewijzigd"/>
               </valueIdentifier>
            </extension>
            <status value="unknown"/>
            <category>
               <coding>
                  <system value="http://snomed.info/sct"/>
                  <code value="422037009"/>
                  <display value="toedieningsafspraak"/>
               </coding>
            </category>
            <subject>
               <reference value="urn:uuid:853b35ca-a6b9-11ec-1306-020000000000"/>
               <type value="Patient"/>
               <display value="Patient, C. XXX_Dijk"/>
            </subject>
         </MedicationDispense>
      </resource>
      <search>
         <mode value="include"/>
      </search>
   </entry>
   <entry>
      <fullUrl value="urn:uuid:853b3c1e-a6b9-11ec-1306-020000000000"/>
      <resource>
         <MedicationDispense>
            <id value="853b35c3-a6b9-11ec-1306-020000000000"/>
            <meta>
               <profile value="http://nictiz.nl/fhir/StructureDefinition/nl-core-AdministrationAgreement"/>
            </meta>
            <extension url="http://nictiz.nl/fhir/StructureDefinition/ext-PharmaceuticalTreatment.Identifier">
               <valueIdentifier>
                  <system value="urn:oid:2.16.840.1.113883.2.4.3.11.999.77.1.1"/>
                  <value value="MBH_200_gewijzigddoorander"/>
               </valueIdentifier>
            </extension>
            <status value="unknown"/>
            <category>
               <coding>
                  <system value="http://snomed.info/sct"/>
                  <code value="422037009"/>
                  <display value="toedieningsafspraak"/>
               </coding>
            </category>
            <subject>
               <reference value="urn:uuid:853b35ca-a6b9-11ec-1306-020000000000"/>
               <type value="Patient"/>
               <display value="Patient, C. XXX_Dijk"/>
            </subject>
         </MedicationDispense>
      </resource>
      <search>
         <mode value="include"/>
      </search>
   </entry>
   <entry>
      <fullUrl value="urn:uuid:853b3c78-a6b9-11ec-1306-020000000000"/>
      <resource>
         <MedicationDispense>
            <id value="853b35cd-a6b9-11ec-1306-020000000000"/>
            <meta>
               <profile value="http://nictiz.nl/fhir/StructureDefinition/nl-core-AdministrationAgreement"/>
            </meta>
            <extension url="http://nictiz.nl/fhir/StructureDefinition/ext-PharmaceuticalTreatment.Identifier">
               <valueIdentifier>
                  <system value="urn:oid:2.16.840.1.113883.2.4.3.11.999.77.1.1"/>
                  <value value="MBH_200_onderbroken"/>
               </valueIdentifier>
            </extension>
            <status value="unknown"/>
            <category>
               <coding>
                  <system value="http://snomed.info/sct"/>
                  <code value="422037009"/>
                  <display value="toedieningsafspraak"/>
               </coding>
            </category>
            <subject>
               <reference value="urn:uuid:853b35ca-a6b9-11ec-1306-020000000000"/>
               <type value="Patient"/>
               <display value="Patient, C. XXX_Dijk"/>
            </subject>
         </MedicationDispense>
      </resource>
      <search>
         <mode value="include"/>
      </search>
   </entry>
   <entry>
      <fullUrl value="urn:uuid:853b3cb4-a6b9-11ec-1306-020000000000"/>
      <resource>
         <MedicationDispense>
            <id value="853b35d4-a6b9-11ec-1306-020000000000"/>
            <meta>
               <profile value="http://nictiz.nl/fhir/StructureDefinition/nl-core-AdministrationAgreement"/>
            </meta>
            <extension url="http://nictiz.nl/fhir/StructureDefinition/ext-PharmaceuticalTreatment.Identifier">
               <valueIdentifier>
                  <system value="urn:oid:2.16.840.1.113883.2.4.3.11.999.77.1.1"/>
                  <value value="MBH_200_eigen1"/>
               </valueIdentifier>
            </extension>
            <status value="unknown"/>
            <category>
               <coding>
                  <system value="http://snomed.info/sct"/>
                  <code value="422037009"/>
                  <display value="toedieningsafspraak"/>
               </coding>
            </category>
            <subject>
               <reference value="urn:uuid:853b35ca-a6b9-11ec-1306-020000000000"/>
               <type value="Patient"/>
               <display value="Patient, C. XXX_Dijk"/>
            </subject>
         </MedicationDispense>
      </resource>
      <search>
         <mode value="include"/>
      </search>
   </entry>
   <entry>
      <fullUrl value="urn:uuid:853b3d2c-a6b9-11ec-1306-020000000000"/>
      <resource>
         <MedicationDispense>
            <id value="853b35e1-a6b9-11ec-1306-020000000000"/>
            <meta>
               <profile value="http://nictiz.nl/fhir/StructureDefinition/nl-core-AdministrationAgreement"/>
            </meta>
            <extension url="http://nictiz.nl/fhir/StructureDefinition/ext-PharmaceuticalTreatment.Identifier">
               <valueIdentifier>
                  <system value="2.16.840.1.113883.2.4.3.11.999.77.1.1"/>
                  <value value="MBH_200_eigen2"/>
               </valueIdentifier>
            </extension>
            <status value="unknown"/>
            <category>
               <coding>
                  <system value="http://snomed.info/sct"/>
                  <code value="422037009"/>
                  <display value="toedieningsafspraak"/>
               </coding>
            </category>
            <subject>
               <reference value="urn:uuid:853b35ca-a6b9-11ec-1306-020000000000"/>
               <type value="Patient"/>
               <display value="Patient, C. XXX_Dijk"/>
            </subject>
         </MedicationDispense>
      </resource>
      <search>
         <mode value="include"/>
      </search>
   </entry>
   <entry>
      <fullUrl value="urn:uuid:853b3d86-a6b9-11ec-1306-020000000000"/>
      <resource>
         <MedicationDispense>
            <id value="853b35ed-a6b9-11ec-1306-020000000000"/>
            <meta>
               <profile value="http://nictiz.nl/fhir/StructureDefinition/nl-core-AdministrationAgreement"/>
            </meta>
            <extension url="http://nictiz.nl/fhir/StructureDefinition/ext-PharmaceuticalTreatment.Identifier">
               <valueIdentifier>
                  <system value="2.16.840.1.113883.2.4.3.11.999.77.1.1"/>
                  <value value="MBH_200_andermans"/>
               </valueIdentifier>
            </extension>
            <status value="unknown"/>
            <category>
               <coding>
                  <system value="http://snomed.info/sct"/>
                  <code value="422037009"/>
                  <display value="toedieningsafspraak"/>
               </coding>
            </category>
            <subject>
               <reference value="urn:uuid:853b35ca-a6b9-11ec-1306-020000000000"/>
               <type value="Patient"/>
               <display value="Patient, C. XXX_Dijk"/>
            </subject>
         </MedicationDispense>
      </resource>
      <search>
         <mode value="include"/>
      </search>
   </entry>
   <entry>
      <fullUrl value="urn:uuid:853b3dc2-a6b9-11ec-1306-020000000000"/>
      <resource>
         <MedicationDispense>
            <id value="853b35f5-a6b9-11ec-1306-020000000000"/>
            <meta>
               <profile value="http://nictiz.nl/fhir/StructureDefinition/nl-core-AdministrationAgreement"/>
            </meta>
            <extension url="http://nictiz.nl/fhir/StructureDefinition/ext-PharmaceuticalTreatment.Identifier">
               <valueIdentifier>
                  <system value="2.16.840.1.113883.2.4.3.11.999.77.1.1"/>
                  <value value="MBH_200_toekomstig"/>
               </valueIdentifier>
            </extension>
            <status value="unknown"/>
            <category>
               <coding>
                  <system value="http://snomed.info/sct"/>
                  <code value="422037009"/>
                  <display value="toedieningsafspraak"/>
               </coding>
            </category>
            <subject>
               <reference value="urn:uuid:853b35ca-a6b9-11ec-1306-020000000000"/>
               <type value="Patient"/>
               <display value="Patient, C. XXX_Dijk"/>
            </subject>
         </MedicationDispense>
      </resource>
      <search>
         <mode value="include"/>
      </search>
   </entry>
   <entry>
      <fullUrl value="urn:uuid:853b3dfe-a6b9-11ec-1306-020000000000"/>
      <resource>
         <MedicationDispense>
            <id value="853b35fc-a6b9-11ec-1306-020000000000"/>
            <meta>
               <profile value="http://nictiz.nl/fhir/StructureDefinition/nl-core-AdministrationAgreement"/>
            </meta>
            <extension url="http://nictiz.nl/fhir/StructureDefinition/ext-PharmaceuticalTreatment.Identifier">
               <valueIdentifier>
                  <system value="2.16.840.1.113883.2.4.3.11.999.77.1.1"/>
                  <value value="MBH_200_gestoptandermans"/>
               </valueIdentifier>
            </extension>
            <status value="unknown"/>
            <category>
               <coding>
                  <system value="http://snomed.info/sct"/>
                  <code value="422037009"/>
                  <display value="toedieningsafspraak"/>
               </coding>
            </category>
            <subject>
               <reference value="urn:uuid:853b35ca-a6b9-11ec-1306-020000000000"/>
               <type value="Patient"/>
               <display value="Patient, C. XXX_Dijk"/>
            </subject>
         </MedicationDispense>
      </resource>
      <search>
         <mode value="include"/>
      </search>
   </entry>
   <entry>
      <fullUrl value="urn:uuid:853b3c3c-a6b9-11ec-1306-020000000000"/>
      <resource>
         <MedicationStatement>
            <id value="853b35c5-a6b9-11ec-1306-020000000000"/>
            <meta>
               <profile value="http://nictiz.nl/fhir/StructureDefinition/nl-core-MedicationUse2"/>
            </meta>
            <extension url="http://nictiz.nl/fhir/StructureDefinition/ext-PharmaceuticalTreatment.Identifier">
               <valueIdentifier>
                  <system value="urn:oid:2.16.840.1.113883.2.4.3.11.999.77.1.1"/>
                  <value value="MBH_200_gewijzigddoorander"/>
               </valueIdentifier>
            </extension>
            <status value="unknown"/>
            <category>
               <coding>
                  <system value="http://snomed.info/sct"/>
                  <code value="422979000"/>
                  <display value="bevinding betreffende gedrag met betrekking tot medicatieregime"/>
               </coding>
            </category>
            <subject>
               <reference value="urn:uuid:853b35ca-a6b9-11ec-1306-020000000000"/>
               <type value="Patient"/>
               <display value="Patient, C. XXX_Dijk"/>
            </subject>
         </MedicationStatement>
      </resource>
      <search>
         <mode value="include"/>
      </search>
   </entry>
   <entry>
      <fullUrl value="urn:uuid:853b3cd2-a6b9-11ec-1306-020000000000"/>
      <resource>
         <MedicationStatement>
            <id value="853b35d6-a6b9-11ec-1306-020000000000"/>
            <meta>
               <profile value="http://nictiz.nl/fhir/StructureDefinition/nl-core-MedicationUse2"/>
            </meta>
            <extension url="http://nictiz.nl/fhir/StructureDefinition/ext-PharmaceuticalTreatment.Identifier">
               <valueIdentifier>
                  <system value="urn:oid:2.16.840.1.113883.2.4.3.11.999.77.1.1"/>
                  <value value="MBH_200_eigen1"/>
               </valueIdentifier>
            </extension>
            <status value="unknown"/>
            <category>
               <coding>
                  <system value="http://snomed.info/sct"/>
                  <code value="422979000"/>
                  <display value="bevinding betreffende gedrag met betrekking tot medicatieregime"/>
               </coding>
            </category>
            <subject>
               <reference value="urn:uuid:853b35ca-a6b9-11ec-1306-020000000000"/>
               <type value="Patient"/>
               <display value="Patient, C. XXX_Dijk"/>
            </subject>
         </MedicationStatement>
      </resource>
      <search>
         <mode value="include"/>
      </search>
   </entry>
   <entry>
      <fullUrl value="urn:uuid:853b3cf0-a6b9-11ec-1306-020000000000"/>
      <resource>
         <MedicationStatement>
            <id value="853b35d9-a6b9-11ec-1306-020000000000"/>
            <meta>
               <profile value="http://nictiz.nl/fhir/StructureDefinition/nl-core-MedicationUse2"/>
            </meta>
            <extension url="http://nictiz.nl/fhir/StructureDefinition/ext-PharmaceuticalTreatment.Identifier">
               <valueIdentifier>
                  <system value="urn:oid:2.16.840.1.113883.2.4.3.11.999.77.1.1"/>
                  <value value="MBH_200_eigen1"/>
               </valueIdentifier>
            </extension>
            <status value="unknown"/>
            <category>
               <coding>
                  <system value="http://snomed.info/sct"/>
                  <code value="422979000"/>
                  <display value="bevinding betreffende gedrag met betrekking tot medicatieregime"/>
               </coding>
            </category>
            <subject>
               <reference value="urn:uuid:853b35ca-a6b9-11ec-1306-020000000000"/>
               <type value="Patient"/>
               <display value="Patient, C. XXX_Dijk"/>
            </subject>
         </MedicationStatement>
      </resource>
      <search>
         <mode value="include"/>
      </search>
   </entry>
   <entry>
      <fullUrl value="urn:uuid:853b3d4a-a6b9-11ec-1306-020000000000"/>
      <resource>
         <MedicationStatement>
            <id value="853b35e5-a6b9-11ec-1306-020000000000"/>
            <meta>
               <profile value="http://nictiz.nl/fhir/StructureDefinition/nl-core-MedicationUse2"/>
            </meta>
            <extension url="http://nictiz.nl/fhir/StructureDefinition/ext-PharmaceuticalTreatment.Identifier">
               <valueIdentifier>
                  <system value="2.16.840.1.113883.2.4.3.11.999.77.1.1"/>
                  <value value="MBH_200_gebruik"/>
               </valueIdentifier>
            </extension>
            <status value="unknown"/>
            <category>
               <coding>
                  <system value="http://snomed.info/sct"/>
                  <code value="422979000"/>
                  <display value="bevinding betreffende gedrag met betrekking tot medicatieregime"/>
               </coding>
            </category>
            <subject>
               <reference value="urn:uuid:853b35ca-a6b9-11ec-1306-020000000000"/>
               <type value="Patient"/>
               <display value="Patient, C. XXX_Dijk"/>
            </subject>
         </MedicationStatement>
      </resource>
      <search>
         <mode value="include"/>
      </search>
   </entry>
   <entry>
      <fullUrl value="urn:uuid:853b35ca-a6b9-11ec-1306-020000000000"/>
      <resource>
         <Patient>
            <id value="C.XXX-Dijk"/>
            <meta>
               <profile value="http://nictiz.nl/fhir/StructureDefinition/nl-core-Patient"/>
            </meta>
            <identifier>
               <system value="http://fhir.nl/fhir/NamingSystem/bsn"/>
               <value value="999900456"/>
            </identifier>
            <name>
               <extension url="http://hl7.org/fhir/StructureDefinition/humanname-assembly-order">
                  <valueCode value="NL1"/>
               </extension>
               <use value="official"/>
               <text value="C. XXX_Dijk"/>
               <family value="XXX_Dijk">
                  <extension url="http://hl7.org/fhir/StructureDefinition/humanname-own-name">
                     <valueString value="XXX_Dijk"/>
                  </extension>
               </family>
               <given value="C.">
                  <extension url="http://hl7.org/fhir/StructureDefinition/iso21090-EN-qualifier">
                     <valueCode value="IN"/>
                  </extension>
               </given>
            </name>
            <gender value="male">
               <extension url="http://nictiz.nl/fhir/StructureDefinition/ext-CodeSpecification">
                  <valueCodeableConcept>
                     <coding>
                        <system value="http://terminology.hl7.org/CodeSystem/v3-AdministrativeGender"/>
                        <code value="M"/>
                        <display value="Man"/>
                     </coding>
                  </valueCodeableConcept>
               </extension>
            </gender>
            <birthDate value="1963-10-20"/>
         </Patient>
      </resource>
   </entry>
   <entry>
      <fullUrl value="urn:uuid:853b3a20-a6b9-11ec-1306-020000000000"/>
      <resource>
         <PractitionerRole>
            <id value="000001111-0100-00001111"/>
            <meta>
               <profile value="http://nictiz.nl/fhir/StructureDefinition/nl-core-HealthProfessional-PractitionerRole"/>
            </meta>
            <practitioner>
               <reference value="urn:uuid:853b3a3e-a6b9-11ec-1306-020000000000"/>
               <type value="Practitioner"/>
               <display value="Healthcare professional (person), Peter van Pulver"/>
            </practitioner>
            <organization>
               <reference value="urn:uuid:853b3a98-a6b9-11ec-1306-020000000000"/>
               <type value="Organization"/>
               <display value="Healthcare provider (organization), Huisartsenpraktijk Pulver &amp; Partners"/>
            </organization>
            <specialty>
               <coding>
                  <system value="urn:oid:2.16.840.1.113883.2.4.6.7"/>
                  <version value="2020-10-23T00:00:00"/>
                  <code value="0100"/>
                  <display value="Huisartsen, niet nader gespecificeerd"/>
               </coding>
            </specialty>
         </PractitionerRole>
      </resource>
   </entry>
   <entry>
      <fullUrl value="urn:uuid:853b3a3e-a6b9-11ec-1306-020000000000"/>
      <resource>
         <Practitioner>
            <id value="2.16.528.1.1007.3.1-000001111"/>
            <meta>
               <profile value="http://nictiz.nl/fhir/StructureDefinition/nl-core-HealthProfessional-Practitioner"/>
            </meta>
            <identifier>
               <system value="http://fhir.nl/fhir/NamingSystem/uzi-nr-pers"/>
               <value value="000001111"/>
            </identifier>
            <name>
               <use value="official"/>
               <text value="Peter van Pulver"/>
               <family value="van Pulver">
                  <extension url="http://hl7.org/fhir/StructureDefinition/humanname-own-prefix">
                     <valueString value="van"/>
                  </extension>
                  <extension url="http://hl7.org/fhir/StructureDefinition/humanname-own-name">
                     <valueString value="Pulver"/>
                  </extension>
               </family>
               <given value="Peter">
                  <extension url="http://hl7.org/fhir/StructureDefinition/iso21090-EN-qualifier">
                     <valueCode value="BR"/>
                  </extension>
               </given>
            </name>
         </Practitioner>
      </resource>
   </entry>
   <entry>
      <fullUrl value="urn:uuid:853b3a5c-a6b9-11ec-1306-020000000000"/>
      <resource>
         <PractitionerRole>
            <id value="000001115-0100-00005111"/>
            <meta>
               <profile value="http://nictiz.nl/fhir/StructureDefinition/nl-core-HealthProfessional-PractitionerRole"/>
            </meta>
            <practitioner>
               <reference value="urn:uuid:853b3a7a-a6b9-11ec-1306-020000000000"/>
               <type value="Practitioner"/>
               <display value="Healthcare professional (person), Marcha van Partners"/>
            </practitioner>
            <organization>
               <reference value="urn:uuid:853b3b10-a6b9-11ec-1306-020000000000"/>
               <type value="Organization"/>
               <display value="Healthcare provider (organization), Huisartsenpraktijk Itis"/>
            </organization>
            <specialty>
               <coding>
                  <system value="urn:oid:2.16.840.1.113883.2.4.6.7"/>
                  <version value="2020-10-23T00:00:00"/>
                  <code value="0100"/>
                  <display value="Huisartsen, niet nader gespecificeerd"/>
               </coding>
            </specialty>
         </PractitionerRole>
      </resource>
   </entry>
   <entry>
      <fullUrl value="urn:uuid:853b3a7a-a6b9-11ec-1306-020000000000"/>
      <resource>
         <Practitioner>
            <id value="2.16.528.1.1007.3.1-000001115"/>
            <meta>
               <profile value="http://nictiz.nl/fhir/StructureDefinition/nl-core-HealthProfessional-Practitioner"/>
            </meta>
            <identifier>
               <system value="http://fhir.nl/fhir/NamingSystem/uzi-nr-pers"/>
               <value value="000001115"/>
            </identifier>
            <name>
               <use value="official"/>
               <text value="Marcha van Partners"/>
               <family value="van Partners">
                  <extension url="http://hl7.org/fhir/StructureDefinition/humanname-own-prefix">
                     <valueString value="van"/>
                  </extension>
                  <extension url="http://hl7.org/fhir/StructureDefinition/humanname-own-name">
                     <valueString value="Partners"/>
                  </extension>
               </family>
               <given value="Marcha">
                  <extension url="http://hl7.org/fhir/StructureDefinition/iso21090-EN-qualifier">
                     <valueCode value="BR"/>
                  </extension>
               </given>
            </name>
         </Practitioner>
      </resource>
   </entry>
   <entry>
      <fullUrl value="urn:uuid:853b3a98-a6b9-11ec-1306-020000000000"/>
      <resource>
         <Organization>
            <id value="2.16.528.1.1007.3.3-00001111"/>
            <meta>
               <profile value="http://nictiz.nl/fhir/StructureDefinition/nl-core-HealthcareProvider-Organization"/>
            </meta>
            <identifier>
               <system value="http://fhir.nl/fhir/NamingSystem/ura"/>
               <value value="00001111"/>
            </identifier>
            <name value="Huisartsenpraktijk Pulver &amp; Partners"/>
            <address>
               <extension url="http://nictiz.nl/fhir/StructureDefinition/ext-AddressInformation.AddressType">
                  <valueCodeableConcept>
                     <coding>
                        <system value="http://terminology.hl7.org/CodeSystem/v3-AddressUse"/>
                        <code value="WP"/>
                        <display value="Werkadres"/>
                     </coding>
                  </valueCodeableConcept>
               </extension>
               <use value="work"/>
               <line value="Dorpsstraat 1">
                  <extension url="http://hl7.org/fhir/StructureDefinition/iso21090-ADXP-streetName">
                     <valueString value="Dorpsstraat"/>
                  </extension>
                  <extension url="http://hl7.org/fhir/StructureDefinition/iso21090-ADXP-houseNumber">
                     <valueString value="1"/>
                  </extension>
               </line>
               <city value="Ons Dorp"/>
               <postalCode value="1234AA"/>
            </address>
         </Organization>
      </resource>
   </entry>
   <entry>
      <fullUrl value="urn:uuid:853b3ad4-a6b9-11ec-1306-020000000000"/>
      <resource>
         <Organization>
            <id value="2.16.528.1.1007.3.3-01236578"/>
            <meta>
               <profile value="http://nictiz.nl/fhir/StructureDefinition/nl-core-HealthcareProvider-Organization"/>
            </meta>
            <identifier>
               <system value="http://fhir.nl/fhir/NamingSystem/ura"/>
               <value value="01236578"/>
            </identifier>
            <name value="Apotheek De Gulle Gaper"/>
         </Organization>
      </resource>
   </entry>
   <entry>
      <fullUrl value="urn:uuid:853b3b10-a6b9-11ec-1306-020000000000"/>
      <resource>
         <Organization>
            <id value="2.16.528.1.1007.3.3-00005111"/>
            <meta>
               <profile value="http://nictiz.nl/fhir/StructureDefinition/nl-core-HealthcareProvider-Organization"/>
            </meta>
            <identifier>
               <system value="http://fhir.nl/fhir/NamingSystem/ura"/>
               <value value="00005111"/>
            </identifier>
            <name value="Huisartsenpraktijk Itis"/>
            <address>
               <extension url="http://nictiz.nl/fhir/StructureDefinition/ext-AddressInformation.AddressType">
                  <valueCodeableConcept>
                     <coding>
                        <system value="http://terminology.hl7.org/CodeSystem/v3-AddressUse"/>
                        <code value="WP"/>
                        <display value="Werkadres"/>
                     </coding>
                  </valueCodeableConcept>
               </extension>
               <use value="work"/>
               <line value="Langelaan 1">
                  <extension url="http://hl7.org/fhir/StructureDefinition/iso21090-ADXP-streetName">
                     <valueString value="Langelaan"/>
                  </extension>
                  <extension url="http://hl7.org/fhir/StructureDefinition/iso21090-ADXP-houseNumber">
                     <valueString value="1"/>
                  </extension>
               </line>
               <city value="Onze Stad"/>
               <postalCode value="1234ZZ"/>
            </address>
         </Organization>
      </resource>
   </entry>
   <entry>
      <fullUrl value="urn:uuid:853b3b4c-a6b9-11ec-1306-020000000000"/>
      <resource>
         <Organization>
            <id value="2.16.528.1.1007.3.3-99901111"/>
            <meta>
               <profile value="http://nictiz.nl/fhir/StructureDefinition/nl-core-HealthcareProvider-Organization"/>
            </meta>
            <identifier>
               <system value="http://fhir.nl/fhir/NamingSystem/ura"/>
               <value value="99901111"/>
            </identifier>
            <name value="Apotheek Jansen en Co"/>
         </Organization>
      </resource>
   </entry>
   <entry>
      <fullUrl value="urn:uuid:853b3e26-a6b9-11ec-1306-020000000000"/>
      <resource>
         <Organization>
            <id value="853b3e1c-a6b9-11ec-1306-020000000000"/>
            <meta>
               <profile value="http://nictiz.nl/fhir/StructureDefinition/nl-core-HealthcareProvider-Organization"/>
            </meta>
            <identifier>
               <system value="http://fhir.nl/fhir/NamingSystem/ura"/>
               <value value="01236578"/>
            </identifier>
            <name value="Apotheek De Gulle Gaper"/>
            <telecom>
               <system value="phone"/>
               <value value="099-98985678"/>
            </telecom>
            <address>
               <extension url="http://nictiz.nl/fhir/StructureDefinition/ext-AddressInformation.AddressType">
                  <valueCodeableConcept>
                     <coding>
                        <system value="http://terminology.hl7.org/CodeSystem/v3-AddressUse"/>
                        <code value="WP"/>
                        <display value="Werkadres"/>
                     </coding>
                  </valueCodeableConcept>
               </extension>
               <use value="work"/>
               <line value="Dorpsweg 28">
                  <extension url="http://hl7.org/fhir/StructureDefinition/iso21090-ADXP-streetName">
                     <valueString value="Dorpsweg"/>
                  </extension>
                  <extension url="http://hl7.org/fhir/StructureDefinition/iso21090-ADXP-houseNumber">
                     <valueString value="28"/>
                  </extension>
               </line>
               <city value="Ons Dorp"/>
               <postalCode value="1234AB"/>
            </address>
         </Organization>
      </resource>
   </entry>
   <entry>
      <fullUrl value="urn:uuid:853b3804-a6b9-11ec-1306-020000000000"/>
      <resource>
         <Medication>
            <id value="2.16.840.1.113883.2.4.4.10-60062"/>
            <meta>
               <profile value="http://nictiz.nl/fhir/StructureDefinition/nl-core-PharmaceuticalProduct"/>
            </meta>
            <code>
               <coding>
                  <system value="urn:oid:2.16.840.1.113883.2.4.4.10"/>
                  <code value="60062"/>
                  <display value="OMEPRAZOL 20MG CAPSULE MSR"/>
                  <userSelected value="true"/>
               </coding>
               <coding>
                  <system value="urn:oid:2.16.840.1.113883.2.4.4.1"/>
                  <code value="114529"/>
                  <display value="OMEPRAZOL 20MG CAPSULE MSR"/>
               </coding>
               <text value="OMEPRAZOL 20MG CAPSULE MSR"/>
            </code>
         </Medication>
      </resource>
   </entry>
   <entry>
      <fullUrl value="urn:uuid:853b3822-a6b9-11ec-1306-020000000000"/>
      <resource>
         <Medication>
            <id value="2.16.840.1.113883.2.4.4.7-1500570"/>
            <meta>
               <profile value="http://nictiz.nl/fhir/StructureDefinition/nl-core-PharmaceuticalProduct"/>
            </meta>
            <code>
               <coding>
                  <system value="urn:oid:2.16.840.1.113883.2.4.4.7"/>
                  <code value="1500570"/>
                  <display value="OMEPRAZOL SANDOZ CAPSULE MSR 20MG"/>
                  <userSelected value="true"/>
               </coding>
               <coding>
                  <system value="urn:oid:2.16.840.1.113883.2.4.4.10"/>
                  <code value="60062"/>
                  <display value="OMEPRAZOL 20MG CAPSULE MSR"/>
               </coding>
               <coding>
                  <system value="urn:oid:2.16.840.1.113883.2.4.4.1"/>
                  <code value="114529"/>
                  <display value="OMEPRAZOL 20MG CAPSULE MSR"/>
               </coding>
               <text value="OMEPRAZOL SANDOZ CAPSULE MSR 20MG"/>
            </code>
         </Medication>
      </resource>
   </entry>
   <entry>
      <fullUrl value="urn:uuid:853b3840-a6b9-11ec-1306-020000000000"/>
      <resource>
         <Medication>
            <id value="2.16.840.1.113883.2.4.4.10-26190"/>
            <meta>
               <profile value="http://nictiz.nl/fhir/StructureDefinition/nl-core-PharmaceuticalProduct"/>
            </meta>
            <code>
               <coding>
                  <system value="urn:oid:2.16.840.1.113883.2.4.4.10"/>
                  <code value="26190"/>
                  <display value="METOPROLOL 100MG TB MGA SUC"/>
                  <userSelected value="true"/>
               </coding>
               <coding>
                  <system value="urn:oid:2.16.840.1.113883.2.4.4.1"/>
                  <code value="71013"/>
                  <display value="METOPROLOL 100MG TB MGA SUC"/>
               </coding>
               <text value="METOPROLOL 100MG TB MGA SUC"/>
            </code>
         </Medication>
      </resource>
   </entry>
   <entry>
      <fullUrl value="urn:uuid:853b385e-a6b9-11ec-1306-020000000000"/>
      <resource>
         <Medication>
            <id value="2.16.840.1.113883.2.4.4.7-2069474"/>
            <meta>
               <profile value="http://nictiz.nl/fhir/StructureDefinition/nl-core-PharmaceuticalProduct"/>
            </meta>
            <code>
               <coding>
                  <system value="urn:oid:2.16.840.1.113883.2.4.4.7"/>
                  <code value="2069474"/>
                  <display value="METOPROLOLSUCCINAAT MYLAN RET 100 TABL MVA 95MG"/>
                  <userSelected value="true"/>
               </coding>
               <coding>
                  <system value="urn:oid:2.16.840.1.113883.2.4.4.10"/>
                  <code value="26190"/>
                  <display value="METOPROLOL 100MG TB MGA SUC"/>
               </coding>
               <coding>
                  <system value="urn:oid:2.16.840.1.113883.2.4.4.1"/>
                  <code value="71013"/>
                  <display value="METOPROLOL 100MG TB MGA SUC"/>
               </coding>
               <text value="METOPROLOLSUCCINAAT MYLAN RET 100 TABL MVA 95MG"/>
            </code>
         </Medication>
      </resource>
   </entry>
   <entry>
      <fullUrl value="urn:uuid:853b387c-a6b9-11ec-1306-020000000000"/>
      <resource>
         <Medication>
            <id value="2.16.840.1.113883.2.4.4.10-98604"/>
            <meta>
               <profile value="http://nictiz.nl/fhir/StructureDefinition/nl-core-PharmaceuticalProduct"/>
            </meta>
            <code>
               <coding>
                  <system value="urn:oid:2.16.840.1.113883.2.4.4.10"/>
                  <code value="98604"/>
                  <display value="ATORVASTATINE 10MG TABLET"/>
                  <userSelected value="true"/>
               </coding>
               <coding>
                  <system value="urn:oid:2.16.840.1.113883.2.4.4.1"/>
                  <code value="137197"/>
                  <display value="ATORVASTATINE 10MG TABLET"/>
               </coding>
               <text value="ATORVASTATINE 10MG TABLET"/>
            </code>
         </Medication>
      </resource>
   </entry>
   <entry>
      <fullUrl value="urn:uuid:853b389a-a6b9-11ec-1306-020000000000"/>
      <resource>
         <Medication>
            <id value="2.16.840.1.113883.2.4.4.7-2198088"/>
            <meta>
               <profile value="http://nictiz.nl/fhir/StructureDefinition/nl-core-PharmaceuticalProduct"/>
            </meta>
            <code>
               <coding>
                  <system value="urn:oid:2.16.840.1.113883.2.4.4.7"/>
                  <code value="2198088"/>
                  <display value="ATORVASTATINE TEVA TABLET FILMOMHULD 10MG"/>
                  <userSelected value="true"/>
               </coding>
               <coding>
                  <system value="urn:oid:2.16.840.1.113883.2.4.4.10"/>
                  <code value="98604"/>
                  <display value="ATORVASTATINE 10MG TABLET"/>
               </coding>
               <coding>
                  <system value="urn:oid:2.16.840.1.113883.2.4.4.1"/>
                  <code value="137197"/>
                  <display value="ATORVASTATINE 10MG TABLET"/>
               </coding>
               <text value="ATORVASTATINE TEVA TABLET FILMOMHULD 10MG"/>
            </code>
         </Medication>
      </resource>
   </entry>
   <entry>
      <fullUrl value="urn:uuid:853b38b8-a6b9-11ec-1306-020000000000"/>
      <resource>
         <Medication>
            <id value="2.16.840.1.113883.2.4.4.10-3387"/>
            <meta>
               <profile value="http://nictiz.nl/fhir/StructureDefinition/nl-core-PharmaceuticalProduct"/>
            </meta>
            <code>
               <coding>
                  <system value="urn:oid:2.16.840.1.113883.2.4.4.10"/>
                  <code value="3387"/>
                  <display value="FUROSEMIDE 20MG TABLET"/>
                  <userSelected value="true"/>
               </coding>
               <coding>
                  <system value="urn:oid:2.16.840.1.113883.2.4.4.1"/>
                  <code value="10995"/>
                  <display value="FUROSEMIDE 20MG TABLET"/>
               </coding>
               <text value="FUROSEMIDE 20MG TABLET"/>
            </code>
         </Medication>
      </resource>
   </entry>
   <entry>
      <fullUrl value="urn:uuid:853b38d6-a6b9-11ec-1306-020000000000"/>
      <resource>
         <Medication>
            <id value="2.16.840.1.113883.2.4.4.7-1099469"/>
            <meta>
               <profile value="http://nictiz.nl/fhir/StructureDefinition/nl-core-PharmaceuticalProduct"/>
            </meta>
            <code>
               <coding>
                  <system value="urn:oid:2.16.840.1.113883.2.4.4.7"/>
                  <code value="1099469"/>
                  <display value="FUROSEMIDE CF TABLET 20MG"/>
                  <userSelected value="true"/>
               </coding>
               <coding>
                  <system value="urn:oid:2.16.840.1.113883.2.4.4.10"/>
                  <code value="3387"/>
                  <display value="FUROSEMIDE 20MG TABLET"/>
               </coding>
               <coding>
                  <system value="urn:oid:2.16.840.1.113883.2.4.4.1"/>
                  <code value="10995"/>
                  <display value="FUROSEMIDE 20MG TABLET"/>
               </coding>
               <text value="FUROSEMIDE CF TABLET 20MG"/>
            </code>
         </Medication>
      </resource>
   </entry>
   <entry>
      <fullUrl value="urn:uuid:853b38f4-a6b9-11ec-1306-020000000000"/>
      <resource>
         <Medication>
            <id value="2.16.840.1.113883.2.4.4.10-52272"/>
            <meta>
               <profile value="http://nictiz.nl/fhir/StructureDefinition/nl-core-PharmaceuticalProduct"/>
            </meta>
            <code>
               <coding>
                  <system value="urn:oid:2.16.840.1.113883.2.4.4.10"/>
                  <code value="52272"/>
                  <display value="PANTOPRAZOL 20MG TABLET MSR"/>
                  <userSelected value="true"/>
               </coding>
               <coding>
                  <system value="urn:oid:2.16.840.1.113883.2.4.4.1"/>
                  <code value="106275"/>
                  <display value="PANTOPRAZOL 20MG TABLET MSR"/>
               </coding>
               <text value="PANTOPRAZOL 20MG TABLET MSR"/>
            </code>
         </Medication>
      </resource>
   </entry>
   <entry>
      <fullUrl value="urn:uuid:853b3912-a6b9-11ec-1306-020000000000"/>
      <resource>
         <Medication>
            <id value="2.16.840.1.113883.2.4.4.7-2002914"/>
            <meta>
               <profile value="http://nictiz.nl/fhir/StructureDefinition/nl-core-PharmaceuticalProduct"/>
            </meta>
            <code>
               <coding>
                  <system value="urn:oid:2.16.840.1.113883.2.4.4.7"/>
                  <code value="2002914"/>
                  <display value="PANTOPRAZOL TEVA TABLET MSR 20MG"/>
                  <userSelected value="true"/>
               </coding>
               <coding>
                  <system value="urn:oid:2.16.840.1.113883.2.4.4.10"/>
                  <code value="52272"/>
                  <display value="PANTOPRAZOL 20MG TABLET MSR"/>
               </coding>
               <coding>
                  <system value="urn:oid:2.16.840.1.113883.2.4.4.1"/>
                  <code value="106275"/>
                  <display value="PANTOPRAZOL 20MG TABLET MSR"/>
               </coding>
               <text value="PANTOPRAZOL TEVA TABLET MSR 20MG"/>
            </code>
         </Medication>
      </resource>
   </entry>
   <entry>
      <fullUrl value="urn:uuid:853b3930-a6b9-11ec-1306-020000000000"/>
      <resource>
         <Medication>
            <id value="2.16.840.1.113883.2.4.4.10-68519"/>
            <meta>
               <profile value="http://nictiz.nl/fhir/StructureDefinition/nl-core-PharmaceuticalProduct"/>
            </meta>
            <code>
               <coding>
                  <system value="urn:oid:2.16.840.1.113883.2.4.4.10"/>
                  <code value="68519"/>
                  <display value="AMOXICILLINE DISPERTABLET 500MG"/>
                  <userSelected value="true"/>
               </coding>
               <coding>
                  <system value="urn:oid:2.16.840.1.113883.2.4.4.1"/>
                  <code value="117080"/>
                  <display value="AMOXICILLINE DISPERTABLET 500MG"/>
               </coding>
               <text value="AMOXICILLINE DISPERTABLET 500MG"/>
            </code>
         </Medication>
      </resource>
   </entry>
   <entry>
      <fullUrl value="urn:uuid:853b394e-a6b9-11ec-1306-020000000000"/>
      <resource>
         <Medication>
            <id value="2.16.840.1.113883.2.4.4.7-802891"/>
            <meta>
               <profile value="http://nictiz.nl/fhir/StructureDefinition/nl-core-PharmaceuticalProduct"/>
            </meta>
            <code>
               <coding>
                  <system value="urn:oid:2.16.840.1.113883.2.4.4.7"/>
                  <code value="802891"/>
                  <display value="AMOXICILLINE DISPER SANDOZ TABLET 500MG"/>
                  <userSelected value="true"/>
               </coding>
               <coding>
                  <system value="urn:oid:2.16.840.1.113883.2.4.4.10"/>
                  <code value="68519"/>
                  <display value="AMOXICILLINE DISPERTABLET 500MG"/>
               </coding>
               <coding>
                  <system value="urn:oid:2.16.840.1.113883.2.4.4.1"/>
                  <code value="117080"/>
                  <display value="AMOXICILLINE DISPERTABLET 500MG"/>
               </coding>
               <text value="AMOXICILLINE DISPER SANDOZ TABLET 500MG"/>
            </code>
         </Medication>
      </resource>
   </entry>
   <entry>
      <fullUrl value="urn:uuid:853b396c-a6b9-11ec-1306-020000000000"/>
      <resource>
         <Medication>
            <id value="2.16.840.1.113883.2.4.4.10-17469"/>
            <meta>
               <profile value="http://nictiz.nl/fhir/StructureDefinition/nl-core-PharmaceuticalProduct"/>
            </meta>
            <code>
               <coding>
                  <system value="urn:oid:2.16.840.1.113883.2.4.4.10"/>
                  <code value="17469"/>
                  <display value="IBUPROFEN TABLET 600MG"/>
                  <userSelected value="true"/>
               </coding>
               <coding>
                  <system value="urn:oid:2.16.840.1.113883.2.4.4.1"/>
                  <code value="42080"/>
                  <display value="IBUPROFEN TABLET 600MG"/>
               </coding>
               <text value="IBUPROFEN TABLET 600MG"/>
            </code>
         </Medication>
      </resource>
   </entry>
   <entry>
      <fullUrl value="urn:uuid:853b398a-a6b9-11ec-1306-020000000000"/>
      <resource>
         <Medication>
            <id value="2.16.840.1.113883.2.4.4.7-641898"/>
            <meta>
               <profile value="http://nictiz.nl/fhir/StructureDefinition/nl-core-PharmaceuticalProduct"/>
            </meta>
            <code>
               <coding>
                  <system value="urn:oid:2.16.840.1.113883.2.4.4.7"/>
                  <code value="641898"/>
                  <display value="IBUPROFEN PCH TABLET 600MG"/>
                  <userSelected value="true"/>
               </coding>
               <coding>
                  <system value="urn:oid:2.16.840.1.113883.2.4.4.10"/>
                  <code value="17469"/>
                  <display value="IBUPROFEN TABLET 600MG"/>
               </coding>
               <coding>
                  <system value="urn:oid:2.16.840.1.113883.2.4.4.1"/>
                  <code value="42080"/>
                  <display value="IBUPROFEN TABLET 600MG"/>
               </coding>
               <text value="IBUPROFEN PCH TABLET 600MG"/>
            </code>
         </Medication>
      </resource>
   </entry>
   <entry>
      <fullUrl value="urn:uuid:853b39a8-a6b9-11ec-1306-020000000000"/>
      <resource>
         <Medication>
            <id value="2.16.840.1.113883.2.4.4.10-19844"/>
            <meta>
               <profile value="http://nictiz.nl/fhir/StructureDefinition/nl-core-PharmaceuticalProduct"/>
            </meta>
            <code>
               <coding>
                  <system value="urn:oid:2.16.840.1.113883.2.4.4.10"/>
                  <code value="19844"/>
                  <display value="DOXYCYCLINE 100MG TABLET"/>
                  <userSelected value="true"/>
               </coding>
               <coding>
                  <system value="urn:oid:2.16.840.1.113883.2.4.4.1"/>
                  <code value="22179"/>
                  <display value="DOXYCYCLINE 100MG TABLET"/>
               </coding>
               <text value="DOXYCYCLINE 100MG TABLET"/>
            </code>
         </Medication>
      </resource>
   </entry>
   <entry>
      <fullUrl value="urn:uuid:853b39c6-a6b9-11ec-1306-020000000000"/>
      <resource>
         <Medication>
            <id value="2.16.840.1.113883.2.4.4.7-1141317"/>
            <meta>
               <profile value="http://nictiz.nl/fhir/StructureDefinition/nl-core-PharmaceuticalProduct"/>
            </meta>
            <code>
               <coding>
                  <system value="urn:oid:2.16.840.1.113883.2.4.4.7"/>
                  <code value="1141317"/>
                  <display value="DOXYCYCLINE PCH TABLET 100MG"/>
                  <userSelected value="true"/>
               </coding>
               <coding>
                  <system value="urn:oid:2.16.840.1.113883.2.4.4.10"/>
                  <code value="19844"/>
                  <display value="DOXYCYCLINE 100MG TABLET"/>
               </coding>
               <coding>
                  <system value="urn:oid:2.16.840.1.113883.2.4.4.1"/>
                  <code value="22179"/>
                  <display value="DOXYCYCLINE 100MG TABLET"/>
               </coding>
               <text value="DOXYCYCLINE PCH TABLET 100MG"/>
            </code>
         </Medication>
      </resource>
   </entry>
   <entry>
      <fullUrl value="urn:uuid:853b39e4-a6b9-11ec-1306-020000000000"/>
      <resource>
         <Medication>
            <id value="2.16.840.1.113883.2.4.4.10-8052"/>
            <meta>
               <profile value="http://nictiz.nl/fhir/StructureDefinition/nl-core-PharmaceuticalProduct"/>
            </meta>
            <code>
               <coding>
                  <system value="urn:oid:2.16.840.1.113883.2.4.4.10"/>
                  <code value="8052"/>
                  <display value="DICLOFENAC NATRIUM TABLET MGA 100MG"/>
                  <userSelected value="true"/>
               </coding>
               <coding>
                  <system value="urn:oid:2.16.840.1.113883.2.4.4.1"/>
                  <code value="22268"/>
                  <display value="DICLOFENAC NATRIUM TABLET MGA 100MG"/>
               </coding>
               <text value="DICLOFENAC NATRIUM TABLET MGA 100MG"/>
            </code>
         </Medication>
      </resource>
   </entry>
   <entry>
      <fullUrl value="urn:uuid:853b3a02-a6b9-11ec-1306-020000000000"/>
      <resource>
         <Medication>
            <id value="2.16.840.1.113883.2.4.4.7-594253"/>
            <meta>
               <profile value="http://nictiz.nl/fhir/StructureDefinition/nl-core-PharmaceuticalProduct"/>
            </meta>
            <code>
               <coding>
                  <system value="urn:oid:2.16.840.1.113883.2.4.4.7"/>
                  <code value="594253"/>
                  <display value="DICLOFENAC NATRIUM SANDOZ RETARD TABLET MGA 100MG"/>
                  <userSelected value="true"/>
               </coding>
               <coding>
                  <system value="urn:oid:2.16.840.1.113883.2.4.4.10"/>
                  <code value="8052"/>
                  <display value="DICLOFENAC NATRIUM TABLET MGA 100MG"/>
               </coding>
               <coding>
                  <system value="urn:oid:2.16.840.1.113883.2.4.4.1"/>
                  <code value="22268"/>
                  <display value="DICLOFENAC NATRIUM TABLET MGA 100MG"/>
               </coding>
               <text value="DICLOFENAC NATRIUM SANDOZ RETARD TABLET MGA 100MG"/>
            </code>
         </Medication>
      </resource>
   </entry>
</Bundle>
