<Bundle xmlns="http://hl7.org/fhir">
   <id value="mg-mgrp-999901084-ALL"/>
   <type value="transaction"/>
   <entry>
<<<<<<< HEAD:ada_2_fhir-r4/mp/9.2.0/beschikbaarstellen_medicatiegegevens/fhir_instance/mg-mgrp-999900389-ALL.xml
      <fullUrl value="urn:uuid:c33f0424-6a95-11ec-0000-020000000000"/>
      <resource>
         <MedicationRequest>
            <id value="mp-MedAgr-mp9-21684011138832431199977160760051-MBH200QA1MA"/>
=======
      <fullUrl value="urn:uuid:c33f2670-6a95-11ec-0000-020000000000"/>
      <resource>
         <MedicationRequest>
>>>>>>> origin/master:ada_2_fhir-r4/mp/9.2.0/beschikbaarstellen_medicatiegegevens/fhir_instance/mg-mgrp-999901084-ALL.xml
            <meta>
               <profile value="http://nictiz.nl/fhir/StructureDefinition/mp-MedicationAgreement"/>
            </meta>
            <extension url="http://nictiz.nl/fhir/StructureDefinition/ext-RenderedDosageInstruction">
               <valueString value="Vanaf T - 20 dagen, tot en met T + 9 dagen, 2 maal per dag 1 stuk, oraal"/>
            </extension>
            <extension url="http://nictiz.nl/fhir/StructureDefinition/ext-TimeInterval.Period">
               <valuePeriod>
                  <start value="${DATE, T, D, -20}T00:00:00+02:00"/>
                  <end value="${DATE, T, D, +9}T23:59:59+02:00"/>
               </valuePeriod>
            </extension>
            <extension url="http://nictiz.nl/fhir/StructureDefinition/ext-PharmaceuticalTreatment.Identifier">
               <valueIdentifier>
                  <system value="urn:oid:2.16.840.1.113883.2.4.3.11.999.77.1.1"/>
                  <value value="MBH_200_QA1"/>
               </valueIdentifier>
            </extension>
            <identifier>
               <system value="urn:oid:2.16.840.1.113883.2.4.3.11.999.77.16076005.1"/>
               <value value="MBH_200_QA1_MA"/>
            </identifier>
            <status value="unknown"/>
            <intent value="order"/>
            <category>
               <coding>
                  <system value="http://snomed.info/sct"/>
                  <code value="33633005"/>
                  <display value="voorschrijven van geneesmiddel"/>
               </coding>
            </category>
            <medicationReference>
<<<<<<< HEAD:ada_2_fhir-r4/mp/9.2.0/beschikbaarstellen_medicatiegegevens/fhir_instance/mg-mgrp-999900389-ALL.xml
               <reference value="urn:uuid:c33f06f4-6a95-11ec-0000-020000000000"/>
=======
               <reference value="urn:uuid:c33f0230-6a95-11ec-0000-020000000000"/>
>>>>>>> origin/master:ada_2_fhir-r4/mp/9.2.0/beschikbaarstellen_medicatiegegevens/fhir_instance/mg-mgrp-999901084-ALL.xml
               <type value="Medication"/>
               <display value="IBUPROFEN TABLET 600MG"/>
            </medicationReference>
            <subject>
               <reference value="urn:uuid:c33f2616-6a95-11ec-0000-020000000000"/>
               <type value="Patient"/>
               <display value="Patient, R. van XXX_Sonnenberg"/>
            </subject>
            <authoredOn value="${DATE, T, D, -20}T08:00:00+02:00"/>
            <requester>
<<<<<<< HEAD:ada_2_fhir-r4/mp/9.2.0/beschikbaarstellen_medicatiegegevens/fhir_instance/mg-mgrp-999900389-ALL.xml
               <reference value="urn:uuid:c33f035c-6a95-11ec-0000-020000000000"/>
=======
               <reference value="urn:uuid:c33f2634-6a95-11ec-0000-020000000000"/>
>>>>>>> origin/master:ada_2_fhir-r4/mp/9.2.0/beschikbaarstellen_medicatiegegevens/fhir_instance/mg-mgrp-999901084-ALL.xml
               <type value="PractitionerRole"/>
               <display value="Healthcare professional (role), Peter van Pulver, Huisartsen, niet nader gespecificeerd, Huisartsenpraktijk Pulver &amp; Partners"/>
            </requester>
            <dosageInstruction>
               <timing>
                  <repeat>
                     <frequency value="2"/>
                     <period value="1"/>
                     <periodUnit value="d"/>
                  </repeat>
               </timing>
               <route>
                  <coding>
                     <system value="urn:oid:2.16.840.1.113883.2.4.4.9"/>
                     <code value="9"/>
                     <display value="oraal"/>
                  </coding>
               </route>
               <doseAndRate>
                  <doseQuantity>
                     <extension url="http://hl7.org/fhir/StructureDefinition/iso21090-PQ-translation">
                        <valueQuantity>
                           <value value="1"/>
                           <unit value="stuk"/>
                           <system value="urn:oid:2.16.840.1.113883.2.4.4.1.900.2"/>
                           <code value="245"/>
                        </valueQuantity>
                     </extension>
                     <value value="1"/>
                     <unit value="stuk"/>
                     <system value="http://unitsofmeasure.org"/>
                     <code value="1"/>
                  </doseQuantity>
               </doseAndRate>
            </dosageInstruction>
         </MedicationRequest>
      </resource>
      <request>
         <method value="POST"/>
         <url value="MedicationRequest"/>
      </request>
   </entry>
   <entry>
<<<<<<< HEAD:ada_2_fhir-r4/mp/9.2.0/beschikbaarstellen_medicatiegegevens/fhir_instance/mg-mgrp-999900389-ALL.xml
      <fullUrl value="urn:uuid:c33f0442-6a95-11ec-0000-020000000000"/>
      <resource>
         <MedicationRequest>
            <id value="mp-MedAgr-mp9-21684011138832431199977160760051-MBH200QA2MA"/>
=======
      <fullUrl value="urn:uuid:c33f268e-6a95-11ec-0000-020000000000"/>
      <resource>
         <MedicationRequest>
>>>>>>> origin/master:ada_2_fhir-r4/mp/9.2.0/beschikbaarstellen_medicatiegegevens/fhir_instance/mg-mgrp-999901084-ALL.xml
            <meta>
               <profile value="http://nictiz.nl/fhir/StructureDefinition/mp-MedicationAgreement"/>
            </meta>
            <extension url="http://nictiz.nl/fhir/StructureDefinition/ext-RenderedDosageInstruction">
               <valueString value="Vanaf T - 100 dagen, tot en met T - 72 dagen, 1 maal per dag 10 ml, oraal"/>
            </extension>
            <extension url="http://nictiz.nl/fhir/StructureDefinition/ext-TimeInterval.Period">
               <valuePeriod>
                  <start value="${DATE, T, D, -100}T00:00:00+02:00"/>
                  <end value="${DATE, T, D, -72}T23:59:59+02:00"/>
               </valuePeriod>
            </extension>
            <extension url="http://nictiz.nl/fhir/StructureDefinition/ext-PharmaceuticalTreatment.Identifier">
               <valueIdentifier>
                  <system value="urn:oid:2.16.840.1.113883.2.4.3.11.999.77.1.1"/>
                  <value value="MBH_200_QA2"/>
               </valueIdentifier>
            </extension>
            <identifier>
               <system value="urn:oid:2.16.840.1.113883.2.4.3.11.999.77.16076005.1"/>
               <value value="MBH_200_QA2_MA"/>
            </identifier>
            <status value="unknown"/>
            <intent value="order"/>
            <category>
               <coding>
                  <system value="http://snomed.info/sct"/>
                  <code value="33633005"/>
                  <display value="voorschrijven van geneesmiddel"/>
               </coding>
            </category>
            <medicationReference>
<<<<<<< HEAD:ada_2_fhir-r4/mp/9.2.0/beschikbaarstellen_medicatiegegevens/fhir_instance/mg-mgrp-999900389-ALL.xml
               <reference value="urn:uuid:c33f0730-6a95-11ec-0000-020000000000"/>
=======
               <reference value="urn:uuid:c33f026c-6a95-11ec-0000-020000000000"/>
>>>>>>> origin/master:ada_2_fhir-r4/mp/9.2.0/beschikbaarstellen_medicatiegegevens/fhir_instance/mg-mgrp-999901084-ALL.xml
               <type value="Medication"/>
               <display value="SENNOSIDEN A+B STROOP 2MG/ML"/>
            </medicationReference>
            <subject>
               <reference value="urn:uuid:c33f2616-6a95-11ec-0000-020000000000"/>
               <type value="Patient"/>
               <display value="Patient, R. van XXX_Sonnenberg"/>
            </subject>
            <authoredOn value="${DATE, T, D, -100}T08:04:00+02:00"/>
            <requester>
<<<<<<< HEAD:ada_2_fhir-r4/mp/9.2.0/beschikbaarstellen_medicatiegegevens/fhir_instance/mg-mgrp-999900389-ALL.xml
               <reference value="urn:uuid:c33f035c-6a95-11ec-0000-020000000000"/>
=======
               <reference value="urn:uuid:c33f2634-6a95-11ec-0000-020000000000"/>
>>>>>>> origin/master:ada_2_fhir-r4/mp/9.2.0/beschikbaarstellen_medicatiegegevens/fhir_instance/mg-mgrp-999901084-ALL.xml
               <type value="PractitionerRole"/>
               <display value="Healthcare professional (role), Peter van Pulver, Huisartsen, niet nader gespecificeerd, Huisartsenpraktijk Pulver &amp; Partners"/>
            </requester>
            <dosageInstruction>
               <timing>
                  <repeat>
                     <frequency value="1"/>
                     <period value="1"/>
                     <periodUnit value="d"/>
                  </repeat>
               </timing>
               <route>
                  <coding>
                     <system value="urn:oid:2.16.840.1.113883.2.4.4.9"/>
                     <code value="9"/>
                     <display value="oraal"/>
                  </coding>
               </route>
               <doseAndRate>
                  <doseQuantity>
                     <extension url="http://hl7.org/fhir/StructureDefinition/iso21090-PQ-translation">
                        <valueQuantity>
                           <value value="10"/>
                           <unit value="milliliter"/>
                           <system value="urn:oid:2.16.840.1.113883.2.4.4.1.900.2"/>
                           <code value="233"/>
                        </valueQuantity>
                     </extension>
                     <value value="10"/>
                     <unit value="milliliter"/>
                     <system value="http://unitsofmeasure.org"/>
                     <code value="ml"/>
                  </doseQuantity>
               </doseAndRate>
            </dosageInstruction>
         </MedicationRequest>
      </resource>
      <request>
         <method value="POST"/>
         <url value="MedicationRequest"/>
      </request>
   </entry>
   <entry>
<<<<<<< HEAD:ada_2_fhir-r4/mp/9.2.0/beschikbaarstellen_medicatiegegevens/fhir_instance/mg-mgrp-999900389-ALL.xml
      <fullUrl value="urn:uuid:c33f0460-6a95-11ec-0000-020000000000"/>
      <resource>
         <MedicationRequest>
            <id value="mp-MedAgr-mp9-21684011138832431199977160760051-MBH200QA3MA"/>
=======
      <fullUrl value="urn:uuid:c33f26ac-6a95-11ec-0000-020000000000"/>
      <resource>
         <MedicationRequest>
>>>>>>> origin/master:ada_2_fhir-r4/mp/9.2.0/beschikbaarstellen_medicatiegegevens/fhir_instance/mg-mgrp-999901084-ALL.xml
            <meta>
               <profile value="http://nictiz.nl/fhir/StructureDefinition/mp-MedicationAgreement"/>
            </meta>
            <extension url="http://nictiz.nl/fhir/StructureDefinition/ext-RenderedDosageInstruction">
               <valueString value="Vanaf T - 50 dagen, tot en met T - 11 dagen, 2 maal per dag 50 ml, oraal"/>
            </extension>
            <extension url="http://nictiz.nl/fhir/StructureDefinition/ext-TimeInterval.Period">
               <valuePeriod>
                  <start value="${DATE, T, D, -50}T00:00:00+02:00"/>
                  <end value="${DATE, T, D, -11}T23:59:59+02:00"/>
               </valuePeriod>
            </extension>
            <extension url="http://nictiz.nl/fhir/StructureDefinition/ext-PharmaceuticalTreatment.Identifier">
               <valueIdentifier>
                  <system value="urn:oid:2.16.840.1.113883.2.4.3.11.999.77.1.1"/>
                  <value value="MBH_200_QA3"/>
               </valueIdentifier>
            </extension>
            <identifier>
               <system value="urn:oid:2.16.840.1.113883.2.4.3.11.999.77.16076005.1"/>
               <value value="MBH_200_QA3_MA"/>
            </identifier>
            <status value="unknown"/>
            <intent value="order"/>
            <category>
               <coding>
                  <system value="http://snomed.info/sct"/>
                  <code value="33633005"/>
                  <display value="voorschrijven van geneesmiddel"/>
               </coding>
            </category>
            <medicationReference>
<<<<<<< HEAD:ada_2_fhir-r4/mp/9.2.0/beschikbaarstellen_medicatiegegevens/fhir_instance/mg-mgrp-999900389-ALL.xml
               <reference value="urn:uuid:c33f076c-6a95-11ec-0000-020000000000"/>
=======
               <reference value="urn:uuid:c33f02a8-6a95-11ec-0000-020000000000"/>
>>>>>>> origin/master:ada_2_fhir-r4/mp/9.2.0/beschikbaarstellen_medicatiegegevens/fhir_instance/mg-mgrp-999901084-ALL.xml
               <type value="Medication"/>
               <display value="VLOEIBARE VOEDING MET O.A. VITAMINE K"/>
            </medicationReference>
            <subject>
               <reference value="urn:uuid:c33f2616-6a95-11ec-0000-020000000000"/>
               <type value="Patient"/>
               <display value="Patient, R. van XXX_Sonnenberg"/>
            </subject>
            <authoredOn value="${DATE, T, D, -50}T08:10:00+02:00"/>
            <requester>
<<<<<<< HEAD:ada_2_fhir-r4/mp/9.2.0/beschikbaarstellen_medicatiegegevens/fhir_instance/mg-mgrp-999900389-ALL.xml
               <reference value="urn:uuid:c33f035c-6a95-11ec-0000-020000000000"/>
=======
               <reference value="urn:uuid:c33f2634-6a95-11ec-0000-020000000000"/>
>>>>>>> origin/master:ada_2_fhir-r4/mp/9.2.0/beschikbaarstellen_medicatiegegevens/fhir_instance/mg-mgrp-999901084-ALL.xml
               <type value="PractitionerRole"/>
               <display value="Healthcare professional (role), Peter van Pulver, Huisartsen, niet nader gespecificeerd, Huisartsenpraktijk Pulver &amp; Partners"/>
            </requester>
            <dosageInstruction>
               <timing>
                  <repeat>
                     <frequency value="2"/>
                     <period value="1"/>
                     <periodUnit value="d"/>
                  </repeat>
               </timing>
               <route>
                  <coding>
                     <system value="urn:oid:2.16.840.1.113883.2.4.4.9"/>
                     <code value="9"/>
                     <display value="oraal"/>
                  </coding>
               </route>
               <doseAndRate>
                  <doseQuantity>
                     <extension url="http://hl7.org/fhir/StructureDefinition/iso21090-PQ-translation">
                        <valueQuantity>
                           <value value="50"/>
                           <unit value="milliliter"/>
                           <system value="urn:oid:2.16.840.1.113883.2.4.4.1.900.2"/>
                           <code value="233"/>
                        </valueQuantity>
                     </extension>
                     <value value="50"/>
                     <unit value="milliliter"/>
                     <system value="http://unitsofmeasure.org"/>
                     <code value="ml"/>
                  </doseQuantity>
               </doseAndRate>
            </dosageInstruction>
         </MedicationRequest>
      </resource>
      <request>
         <method value="POST"/>
         <url value="MedicationRequest"/>
      </request>
   </entry>
   <entry>
<<<<<<< HEAD:ada_2_fhir-r4/mp/9.2.0/beschikbaarstellen_medicatiegegevens/fhir_instance/mg-mgrp-999900389-ALL.xml
      <fullUrl value="urn:uuid:c33f047e-6a95-11ec-0000-020000000000"/>
      <resource>
         <MedicationRequest>
            <id value="mp-MedAgr-mp9-21684011138832431199977160760051-MBH200QA4MA"/>
=======
      <fullUrl value="urn:uuid:c33f26ca-6a95-11ec-0000-020000000000"/>
      <resource>
         <MedicationRequest>
>>>>>>> origin/master:ada_2_fhir-r4/mp/9.2.0/beschikbaarstellen_medicatiegegevens/fhir_instance/mg-mgrp-999901084-ALL.xml
            <meta>
               <profile value="http://nictiz.nl/fhir/StructureDefinition/mp-MedicationAgreement"/>
            </meta>
            <extension url="http://nictiz.nl/fhir/StructureDefinition/ext-RenderedDosageInstruction">
               <valueString value="Vanaf T - 10 dagen, tot en met T + 19 dagen, 1 maal per dag 1 stuk, oraal"/>
            </extension>
            <extension url="http://nictiz.nl/fhir/StructureDefinition/ext-TimeInterval.Period">
               <valuePeriod>
                  <start value="${DATE, T, D, -10}T00:00:00+02:00"/>
                  <end value="${DATE, T, D, +19}T23:59:59+02:00"/>
               </valuePeriod>
            </extension>
            <extension url="http://nictiz.nl/fhir/StructureDefinition/ext-PharmaceuticalTreatment.Identifier">
               <valueIdentifier>
                  <system value="urn:oid:2.16.840.1.113883.2.4.3.11.999.77.1.1"/>
                  <value value="MBH_200_QA4"/>
               </valueIdentifier>
            </extension>
            <identifier>
               <system value="urn:oid:2.16.840.1.113883.2.4.3.11.999.77.16076005.1"/>
               <value value="MBH_200_QA4_MA"/>
            </identifier>
            <status value="unknown"/>
            <intent value="order"/>
            <category>
               <coding>
                  <system value="http://snomed.info/sct"/>
                  <code value="33633005"/>
                  <display value="voorschrijven van geneesmiddel"/>
               </coding>
            </category>
            <medicationReference>
<<<<<<< HEAD:ada_2_fhir-r4/mp/9.2.0/beschikbaarstellen_medicatiegegevens/fhir_instance/mg-mgrp-999900389-ALL.xml
               <reference value="urn:uuid:c33f07a8-6a95-11ec-0000-020000000000"/>
=======
               <reference value="urn:uuid:c33f02e4-6a95-11ec-0000-020000000000"/>
>>>>>>> origin/master:ada_2_fhir-r4/mp/9.2.0/beschikbaarstellen_medicatiegegevens/fhir_instance/mg-mgrp-999901084-ALL.xml
               <type value="Medication"/>
               <display value="ACETYLSALICYLZUUR TABLET 100MG"/>
            </medicationReference>
            <subject>
               <reference value="urn:uuid:c33f2616-6a95-11ec-0000-020000000000"/>
               <type value="Patient"/>
               <display value="Patient, R. van XXX_Sonnenberg"/>
            </subject>
            <authoredOn value="${DATE, T, D, -10}T08:12:00+02:00"/>
            <requester>
<<<<<<< HEAD:ada_2_fhir-r4/mp/9.2.0/beschikbaarstellen_medicatiegegevens/fhir_instance/mg-mgrp-999900389-ALL.xml
               <reference value="urn:uuid:c33f035c-6a95-11ec-0000-020000000000"/>
=======
               <reference value="urn:uuid:c33f2634-6a95-11ec-0000-020000000000"/>
>>>>>>> origin/master:ada_2_fhir-r4/mp/9.2.0/beschikbaarstellen_medicatiegegevens/fhir_instance/mg-mgrp-999901084-ALL.xml
               <type value="PractitionerRole"/>
               <display value="Healthcare professional (role), Peter van Pulver, Huisartsen, niet nader gespecificeerd, Huisartsenpraktijk Pulver &amp; Partners"/>
            </requester>
            <dosageInstruction>
               <timing>
                  <repeat>
                     <frequency value="1"/>
                     <period value="1"/>
                     <periodUnit value="d"/>
                  </repeat>
               </timing>
               <route>
                  <coding>
                     <system value="urn:oid:2.16.840.1.113883.2.4.4.9"/>
                     <code value="9"/>
                     <display value="oraal"/>
                  </coding>
               </route>
               <doseAndRate>
                  <doseQuantity>
                     <extension url="http://hl7.org/fhir/StructureDefinition/iso21090-PQ-translation">
                        <valueQuantity>
                           <value value="1"/>
                           <unit value="stuk"/>
                           <system value="urn:oid:2.16.840.1.113883.2.4.4.1.900.2"/>
                           <code value="245"/>
                        </valueQuantity>
                     </extension>
                     <value value="1"/>
                     <unit value="stuk"/>
                     <system value="http://unitsofmeasure.org"/>
                     <code value="1"/>
                  </doseQuantity>
               </doseAndRate>
            </dosageInstruction>
         </MedicationRequest>
      </resource>
      <request>
         <method value="POST"/>
         <url value="MedicationRequest"/>
      </request>
   </entry>
   <entry>
<<<<<<< HEAD:ada_2_fhir-r4/mp/9.2.0/beschikbaarstellen_medicatiegegevens/fhir_instance/mg-mgrp-999900389-ALL.xml
      <fullUrl value="urn:uuid:c33f049c-6a95-11ec-0000-020000000000"/>
      <resource>
         <MedicationRequest>
            <id value="mp-MedAgr-mp9-21684011138832431199977160760051-MBH200QA5MA"/>
=======
      <fullUrl value="urn:uuid:c33f26e8-6a95-11ec-0000-020000000000"/>
      <resource>
         <MedicationRequest>
>>>>>>> origin/master:ada_2_fhir-r4/mp/9.2.0/beschikbaarstellen_medicatiegegevens/fhir_instance/mg-mgrp-999901084-ALL.xml
            <meta>
               <profile value="http://nictiz.nl/fhir/StructureDefinition/mp-MedicationAgreement"/>
            </meta>
            <extension url="http://nictiz.nl/fhir/StructureDefinition/ext-RenderedDosageInstruction">
               <valueString value="Vanaf T - 50 dagen, gedurende 7 dagen, 4 maal per dag 2 stuks, oraal"/>
            </extension>
            <extension url="http://nictiz.nl/fhir/StructureDefinition/ext-TimeInterval.Period">
               <valuePeriod>
                  <extension url="http://nictiz.nl/fhir/StructureDefinition/ext-TimeInterval.Duration">
                     <valueDuration>
                        <value value="7"/>
                        <unit value="dag"/>
                        <system value="http://unitsofmeasure.org"/>
                        <code value="d"/>
                     </valueDuration>
                  </extension>
                  <start value="${DATE, T, D, -50}T00:00:00+02:00"/>
               </valuePeriod>
            </extension>
            <extension url="http://nictiz.nl/fhir/StructureDefinition/ext-PharmaceuticalTreatment.Identifier">
               <valueIdentifier>
                  <system value="urn:oid:2.16.840.1.113883.2.4.3.11.999.77.1.1"/>
                  <value value="MBH_200_QA5"/>
               </valueIdentifier>
            </extension>
            <identifier>
               <system value="urn:oid:2.16.840.1.113883.2.4.3.11.999.77.16076005.1"/>
               <value value="MBH_200_QA5_MA"/>
            </identifier>
            <status value="unknown"/>
            <intent value="order"/>
            <category>
               <coding>
                  <system value="http://snomed.info/sct"/>
                  <code value="33633005"/>
                  <display value="voorschrijven van geneesmiddel"/>
               </coding>
            </category>
            <medicationReference>
<<<<<<< HEAD:ada_2_fhir-r4/mp/9.2.0/beschikbaarstellen_medicatiegegevens/fhir_instance/mg-mgrp-999900389-ALL.xml
               <reference value="urn:uuid:c33f07e4-6a95-11ec-0000-020000000000"/>
=======
               <reference value="urn:uuid:c33f0320-6a95-11ec-0000-020000000000"/>
>>>>>>> origin/master:ada_2_fhir-r4/mp/9.2.0/beschikbaarstellen_medicatiegegevens/fhir_instance/mg-mgrp-999901084-ALL.xml
               <type value="Medication"/>
               <display value="PARACETAMOL 500MG TABLET"/>
            </medicationReference>
            <subject>
               <reference value="urn:uuid:c33f2616-6a95-11ec-0000-020000000000"/>
               <type value="Patient"/>
               <display value="Patient, R. van XXX_Sonnenberg"/>
            </subject>
            <authoredOn value="${DATE, T, D, -50}T08:15:00+02:00"/>
            <requester>
<<<<<<< HEAD:ada_2_fhir-r4/mp/9.2.0/beschikbaarstellen_medicatiegegevens/fhir_instance/mg-mgrp-999900389-ALL.xml
               <reference value="urn:uuid:c33f035c-6a95-11ec-0000-020000000000"/>
=======
               <reference value="urn:uuid:c33f2634-6a95-11ec-0000-020000000000"/>
>>>>>>> origin/master:ada_2_fhir-r4/mp/9.2.0/beschikbaarstellen_medicatiegegevens/fhir_instance/mg-mgrp-999901084-ALL.xml
               <type value="PractitionerRole"/>
               <display value="Healthcare professional (role), Peter van Pulver, Huisartsen, niet nader gespecificeerd, Huisartsenpraktijk Pulver &amp; Partners"/>
            </requester>
            <dosageInstruction>
               <timing>
                  <repeat>
                     <frequency value="4"/>
                     <period value="1"/>
                     <periodUnit value="d"/>
                  </repeat>
               </timing>
               <route>
                  <coding>
                     <system value="urn:oid:2.16.840.1.113883.2.4.4.9"/>
                     <code value="9"/>
                     <display value="oraal"/>
                  </coding>
               </route>
               <doseAndRate>
                  <doseQuantity>
                     <extension url="http://hl7.org/fhir/StructureDefinition/iso21090-PQ-translation">
                        <valueQuantity>
                           <value value="2"/>
                           <unit value="stuk"/>
                           <system value="urn:oid:2.16.840.1.113883.2.4.4.1.900.2"/>
                           <code value="245"/>
                        </valueQuantity>
                     </extension>
                     <value value="2"/>
                     <unit value="stuk"/>
                     <system value="http://unitsofmeasure.org"/>
                     <code value="1"/>
                  </doseQuantity>
               </doseAndRate>
            </dosageInstruction>
         </MedicationRequest>
      </resource>
      <request>
         <method value="POST"/>
         <url value="MedicationRequest"/>
      </request>
   </entry>
   <entry>
<<<<<<< HEAD:ada_2_fhir-r4/mp/9.2.0/beschikbaarstellen_medicatiegegevens/fhir_instance/mg-mgrp-999900389-ALL.xml
      <fullUrl value="urn:uuid:c33f04ba-6a95-11ec-0000-020000000000"/>
      <resource>
         <MedicationRequest>
            <id value="mp-MedAgr-mp9-21684011138832431199977160760051-MBH200QA6MA"/>
=======
      <fullUrl value="urn:uuid:c33f2706-6a95-11ec-0000-020000000000"/>
      <resource>
         <MedicationRequest>
>>>>>>> origin/master:ada_2_fhir-r4/mp/9.2.0/beschikbaarstellen_medicatiegegevens/fhir_instance/mg-mgrp-999901084-ALL.xml
            <meta>
               <profile value="http://nictiz.nl/fhir/StructureDefinition/mp-MedicationAgreement"/>
            </meta>
            <extension url="http://nictiz.nl/fhir/StructureDefinition/ext-RenderedDosageInstruction">
               <valueString value="Vanaf T - 5 dagen, tot en met T + 1 dag, 3 maal per dag 1 stuk, oraal"/>
            </extension>
            <extension url="http://nictiz.nl/fhir/StructureDefinition/ext-TimeInterval.Period">
               <valuePeriod>
                  <start value="${DATE, T, D, -5}T00:00:00+02:00"/>
                  <end value="${DATE, T, D, +1}T23:59:59+02:00"/>
               </valuePeriod>
            </extension>
            <extension url="http://nictiz.nl/fhir/StructureDefinition/ext-PharmaceuticalTreatment.Identifier">
               <valueIdentifier>
                  <system value="urn:oid:2.16.840.1.113883.2.4.3.11.999.77.1.1"/>
                  <value value="MBH_200_QA6"/>
               </valueIdentifier>
            </extension>
            <identifier>
               <system value="urn:oid:2.16.840.1.113883.2.4.3.11.999.77.16076005.1"/>
               <value value="MBH_200_QA6_MA"/>
            </identifier>
            <status value="unknown"/>
            <intent value="order"/>
            <category>
               <coding>
                  <system value="http://snomed.info/sct"/>
                  <code value="33633005"/>
                  <display value="voorschrijven van geneesmiddel"/>
               </coding>
            </category>
            <medicationReference>
<<<<<<< HEAD:ada_2_fhir-r4/mp/9.2.0/beschikbaarstellen_medicatiegegevens/fhir_instance/mg-mgrp-999900389-ALL.xml
               <reference value="urn:uuid:c33f0820-6a95-11ec-0000-020000000000"/>
=======
               <reference value="urn:uuid:c33f035c-6a95-11ec-0000-020000000000"/>
>>>>>>> origin/master:ada_2_fhir-r4/mp/9.2.0/beschikbaarstellen_medicatiegegevens/fhir_instance/mg-mgrp-999901084-ALL.xml
               <type value="Medication"/>
               <display value="OXAZEPAM TABLET 10MG"/>
            </medicationReference>
            <subject>
               <reference value="urn:uuid:c33f2616-6a95-11ec-0000-020000000000"/>
               <type value="Patient"/>
               <display value="Patient, R. van XXX_Sonnenberg"/>
            </subject>
            <authoredOn value="${DATE, T, D, -5}T08:18:00+02:00"/>
            <requester>
<<<<<<< HEAD:ada_2_fhir-r4/mp/9.2.0/beschikbaarstellen_medicatiegegevens/fhir_instance/mg-mgrp-999900389-ALL.xml
               <reference value="urn:uuid:c33f035c-6a95-11ec-0000-020000000000"/>
=======
               <reference value="urn:uuid:c33f2634-6a95-11ec-0000-020000000000"/>
>>>>>>> origin/master:ada_2_fhir-r4/mp/9.2.0/beschikbaarstellen_medicatiegegevens/fhir_instance/mg-mgrp-999901084-ALL.xml
               <type value="PractitionerRole"/>
               <display value="Healthcare professional (role), Peter van Pulver, Huisartsen, niet nader gespecificeerd, Huisartsenpraktijk Pulver &amp; Partners"/>
            </requester>
            <dosageInstruction>
               <timing>
                  <repeat>
                     <frequency value="3"/>
                     <period value="1"/>
                     <periodUnit value="d"/>
                  </repeat>
               </timing>
               <route>
                  <coding>
                     <system value="urn:oid:2.16.840.1.113883.2.4.4.9"/>
                     <code value="9"/>
                     <display value="oraal"/>
                  </coding>
               </route>
               <doseAndRate>
                  <doseQuantity>
                     <extension url="http://hl7.org/fhir/StructureDefinition/iso21090-PQ-translation">
                        <valueQuantity>
                           <value value="1"/>
                           <unit value="stuk"/>
                           <system value="urn:oid:2.16.840.1.113883.2.4.4.1.900.2"/>
                           <code value="245"/>
                        </valueQuantity>
                     </extension>
                     <value value="1"/>
                     <unit value="stuk"/>
                     <system value="http://unitsofmeasure.org"/>
                     <code value="1"/>
                  </doseQuantity>
               </doseAndRate>
            </dosageInstruction>
         </MedicationRequest>
      </resource>
      <request>
         <method value="POST"/>
         <url value="MedicationRequest"/>
      </request>
   </entry>
   <entry>
<<<<<<< HEAD:ada_2_fhir-r4/mp/9.2.0/beschikbaarstellen_medicatiegegevens/fhir_instance/mg-mgrp-999900389-ALL.xml
      <fullUrl value="urn:uuid:c33f04d8-6a95-11ec-0000-020000000000"/>
      <resource>
         <MedicationRequest>
            <id value="mp-DspReq-mp9-21684011138832431199977527110001461081-MBH200QA1VV"/>
=======
      <fullUrl value="urn:uuid:c33f0014-6a95-11ec-0000-020000000000"/>
      <resource>
         <MedicationRequest>
>>>>>>> origin/master:ada_2_fhir-r4/mp/9.2.0/beschikbaarstellen_medicatiegegevens/fhir_instance/mg-mgrp-999901084-ALL.xml
            <meta>
               <profile value="http://nictiz.nl/fhir/StructureDefinition/mp-DispenseRequest"/>
            </meta>
            <extension url="http://nictiz.nl/fhir/StructureDefinition/ext-PharmaceuticalTreatment.Identifier">
               <valueIdentifier>
                  <system value="urn:oid:2.16.840.1.113883.2.4.3.11.999.77.1.1"/>
                  <value value="MBH_200_QA1"/>
               </valueIdentifier>
            </extension>
            <identifier>
               <system value="urn:oid:2.16.840.1.113883.2.4.3.11.999.77.52711000146108.1"/>
               <value value="MBH_200_QA1_VV"/>
            </identifier>
            <status value="unknown"/>
            <intent value="order"/>
            <category>
               <coding>
                  <system value="http://snomed.info/sct"/>
                  <code value="52711000146108"/>
                  <display value="verstrekkingsverzoek"/>
               </coding>
            </category>
            <medicationReference>
<<<<<<< HEAD:ada_2_fhir-r4/mp/9.2.0/beschikbaarstellen_medicatiegegevens/fhir_instance/mg-mgrp-999900389-ALL.xml
               <reference value="urn:uuid:c33f06f4-6a95-11ec-0000-020000000000"/>
=======
               <reference value="urn:uuid:c33f0230-6a95-11ec-0000-020000000000"/>
>>>>>>> origin/master:ada_2_fhir-r4/mp/9.2.0/beschikbaarstellen_medicatiegegevens/fhir_instance/mg-mgrp-999901084-ALL.xml
               <type value="Medication"/>
               <display value="IBUPROFEN TABLET 600MG"/>
            </medicationReference>
            <subject>
               <reference value="urn:uuid:c33f2616-6a95-11ec-0000-020000000000"/>
               <type value="Patient"/>
               <display value="Patient, R. van XXX_Sonnenberg"/>
            </subject>
            <authoredOn value="${DATE, T, D, -20}T08:00:00+02:00"/>
            <requester>
<<<<<<< HEAD:ada_2_fhir-r4/mp/9.2.0/beschikbaarstellen_medicatiegegevens/fhir_instance/mg-mgrp-999900389-ALL.xml
               <reference value="urn:uuid:c33f035c-6a95-11ec-0000-020000000000"/>
=======
               <reference value="urn:uuid:c33f2634-6a95-11ec-0000-020000000000"/>
>>>>>>> origin/master:ada_2_fhir-r4/mp/9.2.0/beschikbaarstellen_medicatiegegevens/fhir_instance/mg-mgrp-999901084-ALL.xml
               <type value="PractitionerRole"/>
               <display value="Healthcare professional (role), Peter van Pulver, Huisartsen, niet nader gespecificeerd, Huisartsenpraktijk Pulver &amp; Partners"/>
            </requester>
            <performer>
<<<<<<< HEAD:ada_2_fhir-r4/mp/9.2.0/beschikbaarstellen_medicatiegegevens/fhir_instance/mg-mgrp-999900389-ALL.xml
               <reference value="urn:uuid:c33f03e8-6a95-11ec-0000-020000000000"/>
=======
               <reference value="urn:uuid:c33f03d4-6a95-11ec-0000-020000000000"/>
>>>>>>> origin/master:ada_2_fhir-r4/mp/9.2.0/beschikbaarstellen_medicatiegegevens/fhir_instance/mg-mgrp-999901084-ALL.xml
               <type value="Organization"/>
               <display value="Healthcare provider (organization), Apotheek De Gulle Gaper"/>
            </performer>
            <basedOn>
               <type value="MedicationRequest"/>
               <identifier>
                  <system value="urn:oid:2.16.840.1.113883.2.4.3.11.999.77.16076005.1"/>
                  <value value="MBH_200_QA1_MA"/>
               </identifier>
               <display value="relatie naar medicatieafspraak  met identificatie: MBH_200_QA1_MA || 2.16.840.1.113883.2.4.3.11.999.77.16076005.1"/>
            </basedOn>
            <dispenseRequest>
               <quantity>
                  <extension url="http://hl7.org/fhir/StructureDefinition/iso21090-PQ-translation">
                     <valueQuantity>
                        <value value="60"/>
                        <unit value="stuk"/>
                        <system value="urn:oid:2.16.840.1.113883.2.4.4.1.900.2"/>
                        <code value="245"/>
                     </valueQuantity>
                  </extension>
                  <value value="60"/>
                  <unit value="stuk"/>
                  <system value="http://unitsofmeasure.org"/>
                  <code value="1"/>
               </quantity>
            </dispenseRequest>
         </MedicationRequest>
      </resource>
      <request>
         <method value="POST"/>
         <url value="MedicationRequest"/>
      </request>
   </entry>
   <entry>
<<<<<<< HEAD:ada_2_fhir-r4/mp/9.2.0/beschikbaarstellen_medicatiegegevens/fhir_instance/mg-mgrp-999900389-ALL.xml
      <fullUrl value="urn:uuid:c33f04f6-6a95-11ec-0000-020000000000"/>
      <resource>
         <MedicationRequest>
            <id value="mp-DspReq-mp9-21684011138832431199977527110001461081-MBH200QA2VV"/>
=======
      <fullUrl value="urn:uuid:c33f0032-6a95-11ec-0000-020000000000"/>
      <resource>
         <MedicationRequest>
>>>>>>> origin/master:ada_2_fhir-r4/mp/9.2.0/beschikbaarstellen_medicatiegegevens/fhir_instance/mg-mgrp-999901084-ALL.xml
            <meta>
               <profile value="http://nictiz.nl/fhir/StructureDefinition/mp-DispenseRequest"/>
            </meta>
            <extension url="http://nictiz.nl/fhir/StructureDefinition/ext-PharmaceuticalTreatment.Identifier">
               <valueIdentifier>
                  <system value="urn:oid:2.16.840.1.113883.2.4.3.11.999.77.1.1"/>
                  <value value="MBH_200_QA2"/>
               </valueIdentifier>
            </extension>
            <identifier>
               <system value="urn:oid:2.16.840.1.113883.2.4.3.11.999.77.52711000146108.1"/>
               <value value="MBH_200_QA2_VV"/>
            </identifier>
            <status value="unknown"/>
            <intent value="order"/>
            <category>
               <coding>
                  <system value="http://snomed.info/sct"/>
                  <code value="52711000146108"/>
                  <display value="verstrekkingsverzoek"/>
               </coding>
            </category>
            <medicationReference>
<<<<<<< HEAD:ada_2_fhir-r4/mp/9.2.0/beschikbaarstellen_medicatiegegevens/fhir_instance/mg-mgrp-999900389-ALL.xml
               <reference value="urn:uuid:c33f0730-6a95-11ec-0000-020000000000"/>
=======
               <reference value="urn:uuid:c33f026c-6a95-11ec-0000-020000000000"/>
>>>>>>> origin/master:ada_2_fhir-r4/mp/9.2.0/beschikbaarstellen_medicatiegegevens/fhir_instance/mg-mgrp-999901084-ALL.xml
               <type value="Medication"/>
               <display value="SENNOSIDEN A+B STROOP 2MG/ML"/>
            </medicationReference>
            <subject>
               <reference value="urn:uuid:c33f2616-6a95-11ec-0000-020000000000"/>
               <type value="Patient"/>
               <display value="Patient, R. van XXX_Sonnenberg"/>
            </subject>
            <authoredOn value="${DATE, T, D, -100}T08:04:00+02:00"/>
            <requester>
<<<<<<< HEAD:ada_2_fhir-r4/mp/9.2.0/beschikbaarstellen_medicatiegegevens/fhir_instance/mg-mgrp-999900389-ALL.xml
               <reference value="urn:uuid:c33f035c-6a95-11ec-0000-020000000000"/>
=======
               <reference value="urn:uuid:c33f2634-6a95-11ec-0000-020000000000"/>
>>>>>>> origin/master:ada_2_fhir-r4/mp/9.2.0/beschikbaarstellen_medicatiegegevens/fhir_instance/mg-mgrp-999901084-ALL.xml
               <type value="PractitionerRole"/>
               <display value="Healthcare professional (role), Peter van Pulver, Huisartsen, niet nader gespecificeerd, Huisartsenpraktijk Pulver &amp; Partners"/>
            </requester>
            <performer>
<<<<<<< HEAD:ada_2_fhir-r4/mp/9.2.0/beschikbaarstellen_medicatiegegevens/fhir_instance/mg-mgrp-999900389-ALL.xml
               <reference value="urn:uuid:c33f03e8-6a95-11ec-0000-020000000000"/>
=======
               <reference value="urn:uuid:c33f03d4-6a95-11ec-0000-020000000000"/>
>>>>>>> origin/master:ada_2_fhir-r4/mp/9.2.0/beschikbaarstellen_medicatiegegevens/fhir_instance/mg-mgrp-999901084-ALL.xml
               <type value="Organization"/>
               <display value="Healthcare provider (organization), Apotheek De Gulle Gaper"/>
            </performer>
            <basedOn>
               <type value="MedicationRequest"/>
               <identifier>
                  <system value="urn:oid:2.16.840.1.113883.2.4.3.11.999.77.16076005.1"/>
                  <value value="MBH_200_QA2_MA"/>
               </identifier>
               <display value="relatie naar medicatieafspraak  met identificatie: MBH_200_QA2_MA || 2.16.840.1.113883.2.4.3.11.999.77.16076005.1"/>
            </basedOn>
            <dispenseRequest>
               <quantity>
                  <extension url="http://hl7.org/fhir/StructureDefinition/iso21090-PQ-translation">
                     <valueQuantity>
                        <value value="300"/>
                        <unit value="milliliter"/>
                        <system value="urn:oid:2.16.840.1.113883.2.4.4.1.900.2"/>
                        <code value="233"/>
                     </valueQuantity>
                  </extension>
                  <value value="300"/>
                  <unit value="milliliter"/>
                  <system value="http://unitsofmeasure.org"/>
                  <code value="ml"/>
               </quantity>
            </dispenseRequest>
         </MedicationRequest>
      </resource>
      <request>
         <method value="POST"/>
         <url value="MedicationRequest"/>
      </request>
   </entry>
   <entry>
<<<<<<< HEAD:ada_2_fhir-r4/mp/9.2.0/beschikbaarstellen_medicatiegegevens/fhir_instance/mg-mgrp-999900389-ALL.xml
      <fullUrl value="urn:uuid:c33f0514-6a95-11ec-0000-020000000000"/>
      <resource>
         <MedicationRequest>
            <id value="mp-DspReq-mp9-21684011138832431199977527110001461081-MBH200QA3VV"/>
=======
      <fullUrl value="urn:uuid:c33f0050-6a95-11ec-0000-020000000000"/>
      <resource>
         <MedicationRequest>
>>>>>>> origin/master:ada_2_fhir-r4/mp/9.2.0/beschikbaarstellen_medicatiegegevens/fhir_instance/mg-mgrp-999901084-ALL.xml
            <meta>
               <profile value="http://nictiz.nl/fhir/StructureDefinition/mp-DispenseRequest"/>
            </meta>
            <extension url="http://nictiz.nl/fhir/StructureDefinition/ext-PharmaceuticalTreatment.Identifier">
               <valueIdentifier>
                  <system value="urn:oid:2.16.840.1.113883.2.4.3.11.999.77.1.1"/>
                  <value value="MBH_200_QA3"/>
               </valueIdentifier>
            </extension>
            <identifier>
               <system value="urn:oid:2.16.840.1.113883.2.4.3.11.999.77.52711000146108.1"/>
               <value value="MBH_200_QA3_VV"/>
            </identifier>
            <status value="unknown"/>
            <intent value="order"/>
            <category>
               <coding>
                  <system value="http://snomed.info/sct"/>
                  <code value="52711000146108"/>
                  <display value="verstrekkingsverzoek"/>
               </coding>
            </category>
            <medicationReference>
<<<<<<< HEAD:ada_2_fhir-r4/mp/9.2.0/beschikbaarstellen_medicatiegegevens/fhir_instance/mg-mgrp-999900389-ALL.xml
               <reference value="urn:uuid:c33f076c-6a95-11ec-0000-020000000000"/>
=======
               <reference value="urn:uuid:c33f02a8-6a95-11ec-0000-020000000000"/>
>>>>>>> origin/master:ada_2_fhir-r4/mp/9.2.0/beschikbaarstellen_medicatiegegevens/fhir_instance/mg-mgrp-999901084-ALL.xml
               <type value="Medication"/>
               <display value="VLOEIBARE VOEDING MET O.A. VITAMINE K"/>
            </medicationReference>
            <subject>
               <reference value="urn:uuid:c33f2616-6a95-11ec-0000-020000000000"/>
               <type value="Patient"/>
               <display value="Patient, R. van XXX_Sonnenberg"/>
            </subject>
            <authoredOn value="${DATE, T, D, -50}T08:10:00+02:00"/>
            <requester>
<<<<<<< HEAD:ada_2_fhir-r4/mp/9.2.0/beschikbaarstellen_medicatiegegevens/fhir_instance/mg-mgrp-999900389-ALL.xml
               <reference value="urn:uuid:c33f035c-6a95-11ec-0000-020000000000"/>
=======
               <reference value="urn:uuid:c33f2634-6a95-11ec-0000-020000000000"/>
>>>>>>> origin/master:ada_2_fhir-r4/mp/9.2.0/beschikbaarstellen_medicatiegegevens/fhir_instance/mg-mgrp-999901084-ALL.xml
               <type value="PractitionerRole"/>
               <display value="Healthcare professional (role), Peter van Pulver, Huisartsen, niet nader gespecificeerd, Huisartsenpraktijk Pulver &amp; Partners"/>
            </requester>
            <performer>
<<<<<<< HEAD:ada_2_fhir-r4/mp/9.2.0/beschikbaarstellen_medicatiegegevens/fhir_instance/mg-mgrp-999900389-ALL.xml
               <reference value="urn:uuid:c33f03e8-6a95-11ec-0000-020000000000"/>
=======
               <reference value="urn:uuid:c33f03d4-6a95-11ec-0000-020000000000"/>
>>>>>>> origin/master:ada_2_fhir-r4/mp/9.2.0/beschikbaarstellen_medicatiegegevens/fhir_instance/mg-mgrp-999901084-ALL.xml
               <type value="Organization"/>
               <display value="Healthcare provider (organization), Apotheek De Gulle Gaper"/>
            </performer>
            <basedOn>
               <type value="MedicationRequest"/>
               <identifier>
                  <system value="urn:oid:2.16.840.1.113883.2.4.3.11.999.77.16076005.1"/>
                  <value value="MBH_200_QA3_MA"/>
               </identifier>
               <display value="relatie naar medicatieafspraak  met identificatie: MBH_200_QA3_MA || 2.16.840.1.113883.2.4.3.11.999.77.16076005.1"/>
            </basedOn>
            <dispenseRequest>
               <quantity>
                  <extension url="http://hl7.org/fhir/StructureDefinition/iso21090-PQ-translation">
                     <valueQuantity>
                        <value value="4000"/>
                        <unit value="milliliter"/>
                        <system value="urn:oid:2.16.840.1.113883.2.4.4.1.900.2"/>
                        <code value="233"/>
                     </valueQuantity>
                  </extension>
                  <value value="4000"/>
                  <unit value="milliliter"/>
                  <system value="http://unitsofmeasure.org"/>
                  <code value="ml"/>
               </quantity>
            </dispenseRequest>
         </MedicationRequest>
      </resource>
      <request>
         <method value="POST"/>
         <url value="MedicationRequest"/>
      </request>
   </entry>
   <entry>
<<<<<<< HEAD:ada_2_fhir-r4/mp/9.2.0/beschikbaarstellen_medicatiegegevens/fhir_instance/mg-mgrp-999900389-ALL.xml
      <fullUrl value="urn:uuid:c33f0532-6a95-11ec-0000-020000000000"/>
      <resource>
         <MedicationRequest>
            <id value="mp-DspReq-mp9-21684011138832431199977527110001461081-MBH200QA4VV"/>
=======
      <fullUrl value="urn:uuid:c33f006e-6a95-11ec-0000-020000000000"/>
      <resource>
         <MedicationRequest>
>>>>>>> origin/master:ada_2_fhir-r4/mp/9.2.0/beschikbaarstellen_medicatiegegevens/fhir_instance/mg-mgrp-999901084-ALL.xml
            <meta>
               <profile value="http://nictiz.nl/fhir/StructureDefinition/mp-DispenseRequest"/>
            </meta>
            <extension url="http://nictiz.nl/fhir/StructureDefinition/ext-PharmaceuticalTreatment.Identifier">
               <valueIdentifier>
                  <system value="urn:oid:2.16.840.1.113883.2.4.3.11.999.77.1.1"/>
                  <value value="MBH_200_QA4"/>
               </valueIdentifier>
            </extension>
            <identifier>
               <system value="urn:oid:2.16.840.1.113883.2.4.3.11.999.77.52711000146108.1"/>
               <value value="MBH_200_QA4_VV"/>
            </identifier>
            <status value="unknown"/>
            <intent value="order"/>
            <category>
               <coding>
                  <system value="http://snomed.info/sct"/>
                  <code value="52711000146108"/>
                  <display value="verstrekkingsverzoek"/>
               </coding>
            </category>
            <medicationReference>
<<<<<<< HEAD:ada_2_fhir-r4/mp/9.2.0/beschikbaarstellen_medicatiegegevens/fhir_instance/mg-mgrp-999900389-ALL.xml
               <reference value="urn:uuid:c33f07a8-6a95-11ec-0000-020000000000"/>
=======
               <reference value="urn:uuid:c33f02e4-6a95-11ec-0000-020000000000"/>
>>>>>>> origin/master:ada_2_fhir-r4/mp/9.2.0/beschikbaarstellen_medicatiegegevens/fhir_instance/mg-mgrp-999901084-ALL.xml
               <type value="Medication"/>
               <display value="ACETYLSALICYLZUUR TABLET 100MG"/>
            </medicationReference>
            <subject>
               <reference value="urn:uuid:c33f2616-6a95-11ec-0000-020000000000"/>
               <type value="Patient"/>
               <display value="Patient, R. van XXX_Sonnenberg"/>
            </subject>
            <authoredOn value="${DATE, T, D, -10}T08:12:00+02:00"/>
            <requester>
<<<<<<< HEAD:ada_2_fhir-r4/mp/9.2.0/beschikbaarstellen_medicatiegegevens/fhir_instance/mg-mgrp-999900389-ALL.xml
               <reference value="urn:uuid:c33f035c-6a95-11ec-0000-020000000000"/>
=======
               <reference value="urn:uuid:c33f2634-6a95-11ec-0000-020000000000"/>
>>>>>>> origin/master:ada_2_fhir-r4/mp/9.2.0/beschikbaarstellen_medicatiegegevens/fhir_instance/mg-mgrp-999901084-ALL.xml
               <type value="PractitionerRole"/>
               <display value="Healthcare professional (role), Peter van Pulver, Huisartsen, niet nader gespecificeerd, Huisartsenpraktijk Pulver &amp; Partners"/>
            </requester>
            <performer>
<<<<<<< HEAD:ada_2_fhir-r4/mp/9.2.0/beschikbaarstellen_medicatiegegevens/fhir_instance/mg-mgrp-999900389-ALL.xml
               <reference value="urn:uuid:c33f03e8-6a95-11ec-0000-020000000000"/>
=======
               <reference value="urn:uuid:c33f03d4-6a95-11ec-0000-020000000000"/>
>>>>>>> origin/master:ada_2_fhir-r4/mp/9.2.0/beschikbaarstellen_medicatiegegevens/fhir_instance/mg-mgrp-999901084-ALL.xml
               <type value="Organization"/>
               <display value="Healthcare provider (organization), Apotheek De Gulle Gaper"/>
            </performer>
            <basedOn>
               <type value="MedicationRequest"/>
               <identifier>
                  <system value="urn:oid:2.16.840.1.113883.2.4.3.11.999.77.16076005.1"/>
                  <value value="MBH_200_QA4_MA"/>
               </identifier>
               <display value="relatie naar medicatieafspraak  met identificatie: MBH_200_QA4_MA || 2.16.840.1.113883.2.4.3.11.999.77.16076005.1"/>
            </basedOn>
            <dispenseRequest>
               <quantity>
                  <extension url="http://hl7.org/fhir/StructureDefinition/iso21090-PQ-translation">
                     <valueQuantity>
                        <value value="30"/>
                        <unit value="stuk"/>
                        <system value="urn:oid:2.16.840.1.113883.2.4.4.1.900.2"/>
                        <code value="245"/>
                     </valueQuantity>
                  </extension>
                  <value value="30"/>
                  <unit value="stuk"/>
                  <system value="http://unitsofmeasure.org"/>
                  <code value="1"/>
               </quantity>
            </dispenseRequest>
         </MedicationRequest>
      </resource>
      <request>
         <method value="POST"/>
         <url value="MedicationRequest"/>
      </request>
   </entry>
   <entry>
<<<<<<< HEAD:ada_2_fhir-r4/mp/9.2.0/beschikbaarstellen_medicatiegegevens/fhir_instance/mg-mgrp-999900389-ALL.xml
      <fullUrl value="urn:uuid:c33f0550-6a95-11ec-0000-020000000000"/>
      <resource>
         <MedicationRequest>
            <id value="mp-DspReq-mp9-21684011138832431199977527110001461081-MBH200QA5VV"/>
=======
      <fullUrl value="urn:uuid:c33f008c-6a95-11ec-0000-020000000000"/>
      <resource>
         <MedicationRequest>
>>>>>>> origin/master:ada_2_fhir-r4/mp/9.2.0/beschikbaarstellen_medicatiegegevens/fhir_instance/mg-mgrp-999901084-ALL.xml
            <meta>
               <profile value="http://nictiz.nl/fhir/StructureDefinition/mp-DispenseRequest"/>
            </meta>
            <extension url="http://nictiz.nl/fhir/StructureDefinition/ext-PharmaceuticalTreatment.Identifier">
               <valueIdentifier>
                  <system value="urn:oid:2.16.840.1.113883.2.4.3.11.999.77.1.1"/>
                  <value value="MBH_200_QA5"/>
               </valueIdentifier>
            </extension>
            <identifier>
               <system value="urn:oid:2.16.840.1.113883.2.4.3.11.999.77.52711000146108.1"/>
               <value value="MBH_200_QA5_VV"/>
            </identifier>
            <status value="unknown"/>
            <intent value="order"/>
            <category>
               <coding>
                  <system value="http://snomed.info/sct"/>
                  <code value="52711000146108"/>
                  <display value="verstrekkingsverzoek"/>
               </coding>
            </category>
            <medicationReference>
<<<<<<< HEAD:ada_2_fhir-r4/mp/9.2.0/beschikbaarstellen_medicatiegegevens/fhir_instance/mg-mgrp-999900389-ALL.xml
               <reference value="urn:uuid:c33f07e4-6a95-11ec-0000-020000000000"/>
=======
               <reference value="urn:uuid:c33f0320-6a95-11ec-0000-020000000000"/>
>>>>>>> origin/master:ada_2_fhir-r4/mp/9.2.0/beschikbaarstellen_medicatiegegevens/fhir_instance/mg-mgrp-999901084-ALL.xml
               <type value="Medication"/>
               <display value="PARACETAMOL 500MG TABLET"/>
            </medicationReference>
            <subject>
               <reference value="urn:uuid:c33f2616-6a95-11ec-0000-020000000000"/>
               <type value="Patient"/>
               <display value="Patient, R. van XXX_Sonnenberg"/>
            </subject>
            <authoredOn value="${DATE, T, D, -50}T08:15:00+02:00"/>
            <requester>
<<<<<<< HEAD:ada_2_fhir-r4/mp/9.2.0/beschikbaarstellen_medicatiegegevens/fhir_instance/mg-mgrp-999900389-ALL.xml
               <reference value="urn:uuid:c33f035c-6a95-11ec-0000-020000000000"/>
=======
               <reference value="urn:uuid:c33f2634-6a95-11ec-0000-020000000000"/>
>>>>>>> origin/master:ada_2_fhir-r4/mp/9.2.0/beschikbaarstellen_medicatiegegevens/fhir_instance/mg-mgrp-999901084-ALL.xml
               <type value="PractitionerRole"/>
               <display value="Healthcare professional (role), Peter van Pulver, Huisartsen, niet nader gespecificeerd, Huisartsenpraktijk Pulver &amp; Partners"/>
            </requester>
            <performer>
<<<<<<< HEAD:ada_2_fhir-r4/mp/9.2.0/beschikbaarstellen_medicatiegegevens/fhir_instance/mg-mgrp-999900389-ALL.xml
               <reference value="urn:uuid:c33f03e8-6a95-11ec-0000-020000000000"/>
=======
               <reference value="urn:uuid:c33f03d4-6a95-11ec-0000-020000000000"/>
>>>>>>> origin/master:ada_2_fhir-r4/mp/9.2.0/beschikbaarstellen_medicatiegegevens/fhir_instance/mg-mgrp-999901084-ALL.xml
               <type value="Organization"/>
               <display value="Healthcare provider (organization), Apotheek De Gulle Gaper"/>
            </performer>
            <basedOn>
               <type value="MedicationRequest"/>
               <identifier>
                  <system value="urn:oid:2.16.840.1.113883.2.4.3.11.999.77.16076005.1"/>
                  <value value="MBH_200_QA5_MA"/>
               </identifier>
               <display value="relatie naar medicatieafspraak  met identificatie: MBH_200_QA5_MA || 2.16.840.1.113883.2.4.3.11.999.77.16076005.1"/>
            </basedOn>
            <dispenseRequest>
               <quantity>
                  <extension url="http://hl7.org/fhir/StructureDefinition/iso21090-PQ-translation">
                     <valueQuantity>
                        <value value="56"/>
                        <unit value="stuk"/>
                        <system value="urn:oid:2.16.840.1.113883.2.4.4.1.900.2"/>
                        <code value="245"/>
                     </valueQuantity>
                  </extension>
                  <value value="56"/>
                  <unit value="stuk"/>
                  <system value="http://unitsofmeasure.org"/>
                  <code value="1"/>
               </quantity>
            </dispenseRequest>
         </MedicationRequest>
      </resource>
      <request>
         <method value="POST"/>
         <url value="MedicationRequest"/>
      </request>
   </entry>
   <entry>
<<<<<<< HEAD:ada_2_fhir-r4/mp/9.2.0/beschikbaarstellen_medicatiegegevens/fhir_instance/mg-mgrp-999900389-ALL.xml
      <fullUrl value="urn:uuid:c33f056e-6a95-11ec-0000-020000000000"/>
      <resource>
         <MedicationRequest>
            <id value="mp-DspReq-mp9-21684011138832431199977527110001461081-MBH200QA6VV"/>
=======
      <fullUrl value="urn:uuid:c33f00aa-6a95-11ec-0000-020000000000"/>
      <resource>
         <MedicationRequest>
>>>>>>> origin/master:ada_2_fhir-r4/mp/9.2.0/beschikbaarstellen_medicatiegegevens/fhir_instance/mg-mgrp-999901084-ALL.xml
            <meta>
               <profile value="http://nictiz.nl/fhir/StructureDefinition/mp-DispenseRequest"/>
            </meta>
            <extension url="http://nictiz.nl/fhir/StructureDefinition/ext-PharmaceuticalTreatment.Identifier">
               <valueIdentifier>
                  <system value="urn:oid:2.16.840.1.113883.2.4.3.11.999.77.1.1"/>
                  <value value="MBH_200_QA6"/>
               </valueIdentifier>
            </extension>
            <identifier>
               <system value="urn:oid:2.16.840.1.113883.2.4.3.11.999.77.52711000146108.1"/>
               <value value="MBH_200_QA6_VV"/>
            </identifier>
            <status value="unknown"/>
            <intent value="order"/>
            <category>
               <coding>
                  <system value="http://snomed.info/sct"/>
                  <code value="52711000146108"/>
                  <display value="verstrekkingsverzoek"/>
               </coding>
            </category>
            <medicationReference>
<<<<<<< HEAD:ada_2_fhir-r4/mp/9.2.0/beschikbaarstellen_medicatiegegevens/fhir_instance/mg-mgrp-999900389-ALL.xml
               <reference value="urn:uuid:c33f0820-6a95-11ec-0000-020000000000"/>
=======
               <reference value="urn:uuid:c33f035c-6a95-11ec-0000-020000000000"/>
>>>>>>> origin/master:ada_2_fhir-r4/mp/9.2.0/beschikbaarstellen_medicatiegegevens/fhir_instance/mg-mgrp-999901084-ALL.xml
               <type value="Medication"/>
               <display value="OXAZEPAM TABLET 10MG"/>
            </medicationReference>
            <subject>
               <reference value="urn:uuid:c33f2616-6a95-11ec-0000-020000000000"/>
               <type value="Patient"/>
               <display value="Patient, R. van XXX_Sonnenberg"/>
            </subject>
            <authoredOn value="${DATE, T, D, -5}T08:18:00+02:00"/>
            <requester>
<<<<<<< HEAD:ada_2_fhir-r4/mp/9.2.0/beschikbaarstellen_medicatiegegevens/fhir_instance/mg-mgrp-999900389-ALL.xml
               <reference value="urn:uuid:c33f035c-6a95-11ec-0000-020000000000"/>
=======
               <reference value="urn:uuid:c33f2634-6a95-11ec-0000-020000000000"/>
>>>>>>> origin/master:ada_2_fhir-r4/mp/9.2.0/beschikbaarstellen_medicatiegegevens/fhir_instance/mg-mgrp-999901084-ALL.xml
               <type value="PractitionerRole"/>
               <display value="Healthcare professional (role), Peter van Pulver, Huisartsen, niet nader gespecificeerd, Huisartsenpraktijk Pulver &amp; Partners"/>
            </requester>
            <performer>
<<<<<<< HEAD:ada_2_fhir-r4/mp/9.2.0/beschikbaarstellen_medicatiegegevens/fhir_instance/mg-mgrp-999900389-ALL.xml
               <reference value="urn:uuid:c33f03e8-6a95-11ec-0000-020000000000"/>
=======
               <reference value="urn:uuid:c33f03d4-6a95-11ec-0000-020000000000"/>
>>>>>>> origin/master:ada_2_fhir-r4/mp/9.2.0/beschikbaarstellen_medicatiegegevens/fhir_instance/mg-mgrp-999901084-ALL.xml
               <type value="Organization"/>
               <display value="Healthcare provider (organization), Apotheek De Gulle Gaper"/>
            </performer>
            <basedOn>
               <type value="MedicationRequest"/>
               <identifier>
                  <system value="urn:oid:2.16.840.1.113883.2.4.3.11.999.77.16076005.1"/>
                  <value value="MBH_200_QA6_MA"/>
               </identifier>
               <display value="relatie naar medicatieafspraak  met identificatie: MBH_200_QA6_MA || 2.16.840.1.113883.2.4.3.11.999.77.16076005.1"/>
            </basedOn>
            <dispenseRequest>
               <quantity>
                  <extension url="http://hl7.org/fhir/StructureDefinition/iso21090-PQ-translation">
                     <valueQuantity>
                        <value value="21"/>
                        <unit value="stuks"/>
                        <system value="urn:oid:2.16.840.1.113883.2.4.4.1.900.2"/>
                        <code value="245"/>
                     </valueQuantity>
                  </extension>
                  <value value="21"/>
                  <unit value="stuks"/>
                  <system value="http://unitsofmeasure.org"/>
                  <code value="1"/>
               </quantity>
            </dispenseRequest>
         </MedicationRequest>
      </resource>
      <request>
         <method value="POST"/>
         <url value="MedicationRequest"/>
      </request>
   </entry>
   <entry>
<<<<<<< HEAD:ada_2_fhir-r4/mp/9.2.0/beschikbaarstellen_medicatiegegevens/fhir_instance/mg-mgrp-999900389-ALL.xml
      <fullUrl value="urn:uuid:c33f058c-6a95-11ec-0000-020000000000"/>
      <resource>
         <MedicationDispense>
            <id value="mp-AdmAgr-mp9-216840111388324311999774220370091-MBH200QA1TA"/>
=======
      <fullUrl value="urn:uuid:c33f00c8-6a95-11ec-0000-020000000000"/>
      <resource>
         <MedicationDispense>
>>>>>>> origin/master:ada_2_fhir-r4/mp/9.2.0/beschikbaarstellen_medicatiegegevens/fhir_instance/mg-mgrp-999901084-ALL.xml
            <meta>
               <profile value="http://nictiz.nl/fhir/StructureDefinition/mp-AdministrationAgreement"/>
            </meta>
            <extension url="http://nictiz.nl/fhir/StructureDefinition/ext-AdministrationAgreement.AdministrationAgreementDateTime">
               <valueDateTime value="${DATE, T, D, -20}T09:00:00+02:00"/>
            </extension>
            <extension url="http://nictiz.nl/fhir/StructureDefinition/ext-RenderedDosageInstruction">
               <valueString value="Vanaf T - 20 dagen, tot en met T + 9 dagen, 2 maal per dag 1 stuk, oraal"/>
            </extension>
            <extension url="http://nictiz.nl/fhir/StructureDefinition/ext-TimeInterval.Period">
               <valuePeriod>
                  <start value="${DATE, T, D, -20}T00:00:00+02:00"/>
                  <end value="${DATE, T, D, +9}T23:59:59+02:00"/>
               </valuePeriod>
            </extension>
            <extension url="http://nictiz.nl/fhir/StructureDefinition/ext-PharmaceuticalTreatment.Identifier">
               <valueIdentifier>
                  <system value="urn:oid:2.16.840.1.113883.2.4.3.11.999.77.1.1"/>
                  <value value="MBH_200_QA1"/>
               </valueIdentifier>
            </extension>
            <identifier>
               <system value="urn:oid:2.16.840.1.113883.2.4.3.11.999.77.422037009.1"/>
               <value value="MBH_200_QA1_TA"/>
            </identifier>
            <status value="unknown"/>
            <category>
               <coding>
                  <system value="http://snomed.info/sct"/>
                  <code value="422037009"/>
                  <display value="toedieningsafspraak"/>
               </coding>
            </category>
            <medicationReference>
<<<<<<< HEAD:ada_2_fhir-r4/mp/9.2.0/beschikbaarstellen_medicatiegegevens/fhir_instance/mg-mgrp-999900389-ALL.xml
               <reference value="urn:uuid:c33f0712-6a95-11ec-0000-020000000000"/>
=======
               <reference value="urn:uuid:c33f024e-6a95-11ec-0000-020000000000"/>
>>>>>>> origin/master:ada_2_fhir-r4/mp/9.2.0/beschikbaarstellen_medicatiegegevens/fhir_instance/mg-mgrp-999901084-ALL.xml
               <type value="Medication"/>
               <display value="IBUPROFEN PCH TABLET 600MG"/>
            </medicationReference>
            <subject>
               <reference value="urn:uuid:c33f2616-6a95-11ec-0000-020000000000"/>
               <type value="Patient"/>
               <display value="Patient, R. van XXX_Sonnenberg"/>
            </subject>
            <performer>
               <actor>
<<<<<<< HEAD:ada_2_fhir-r4/mp/9.2.0/beschikbaarstellen_medicatiegegevens/fhir_instance/mg-mgrp-999900389-ALL.xml
                  <reference value="urn:uuid:c33f03e8-6a95-11ec-0000-020000000000"/>
=======
                  <reference value="urn:uuid:c33f03d4-6a95-11ec-0000-020000000000"/>
>>>>>>> origin/master:ada_2_fhir-r4/mp/9.2.0/beschikbaarstellen_medicatiegegevens/fhir_instance/mg-mgrp-999901084-ALL.xml
                  <type value="Organization"/>
                  <display value="Healthcare provider (organization), Apotheek De Gulle Gaper"/>
               </actor>
            </performer>
            <authorizingPrescription>
               <type value="MedicationRequest"/>
               <identifier>
                  <system value="urn:oid:2.16.840.1.113883.2.4.3.11.999.77.16076005.1"/>
                  <value value="MBH_200_QA1_MA"/>
               </identifier>
               <display value="relatie naar medicatieafspraak met identificatie: MBH_200_QA1_MA || 2.16.840.1.113883.2.4.3.11.999.77.16076005.1"/>
            </authorizingPrescription>
            <dosageInstruction>
               <timing>
                  <repeat>
                     <frequency value="2"/>
                     <period value="1"/>
                     <periodUnit value="d"/>
                  </repeat>
               </timing>
               <route>
                  <coding>
                     <system value="urn:oid:2.16.840.1.113883.2.4.4.9"/>
                     <code value="9"/>
                     <display value="oraal"/>
                  </coding>
               </route>
               <doseAndRate>
                  <doseQuantity>
                     <extension url="http://hl7.org/fhir/StructureDefinition/iso21090-PQ-translation">
                        <valueQuantity>
                           <value value="1"/>
                           <unit value="stuk"/>
                           <system value="urn:oid:2.16.840.1.113883.2.4.4.1.900.2"/>
                           <code value="245"/>
                        </valueQuantity>
                     </extension>
                     <value value="1"/>
                     <unit value="stuk"/>
                     <system value="http://unitsofmeasure.org"/>
                     <code value="1"/>
                  </doseQuantity>
               </doseAndRate>
            </dosageInstruction>
         </MedicationDispense>
      </resource>
      <request>
         <method value="POST"/>
         <url value="MedicationDispense"/>
      </request>
   </entry>
   <entry>
<<<<<<< HEAD:ada_2_fhir-r4/mp/9.2.0/beschikbaarstellen_medicatiegegevens/fhir_instance/mg-mgrp-999900389-ALL.xml
      <fullUrl value="urn:uuid:c33f05aa-6a95-11ec-0000-020000000000"/>
      <resource>
         <MedicationDispense>
            <id value="mp-AdmAgr-mp9-216840111388324311999774220370091-MBH200QA2TA"/>
=======
      <fullUrl value="urn:uuid:c33f00e6-6a95-11ec-0000-020000000000"/>
      <resource>
         <MedicationDispense>
>>>>>>> origin/master:ada_2_fhir-r4/mp/9.2.0/beschikbaarstellen_medicatiegegevens/fhir_instance/mg-mgrp-999901084-ALL.xml
            <meta>
               <profile value="http://nictiz.nl/fhir/StructureDefinition/mp-AdministrationAgreement"/>
            </meta>
            <extension url="http://nictiz.nl/fhir/StructureDefinition/ext-AdministrationAgreement.AdministrationAgreementDateTime">
               <valueDateTime value="${DATE, T, D, -100}T09:04:00+02:00"/>
            </extension>
            <extension url="http://nictiz.nl/fhir/StructureDefinition/ext-RenderedDosageInstruction">
               <valueString value="Vanaf T - 100 dagen, tot en met T - 72 dagen, 1 maal per dag 10 ml, oraal"/>
            </extension>
            <extension url="http://nictiz.nl/fhir/StructureDefinition/ext-TimeInterval.Period">
               <valuePeriod>
                  <start value="${DATE, T, D, -100}T00:00:00+02:00"/>
                  <end value="${DATE, T, D, -72}T23:59:59+02:00"/>
               </valuePeriod>
            </extension>
            <extension url="http://nictiz.nl/fhir/StructureDefinition/ext-PharmaceuticalTreatment.Identifier">
               <valueIdentifier>
                  <system value="urn:oid:2.16.840.1.113883.2.4.3.11.999.77.1.1"/>
                  <value value="MBH_200_QA2"/>
               </valueIdentifier>
            </extension>
            <identifier>
               <system value="urn:oid:2.16.840.1.113883.2.4.3.11.999.77.422037009.1"/>
               <value value="MBH_200_QA2_TA"/>
            </identifier>
            <status value="unknown"/>
            <category>
               <coding>
                  <system value="http://snomed.info/sct"/>
                  <code value="422037009"/>
                  <display value="toedieningsafspraak"/>
               </coding>
            </category>
            <medicationReference>
<<<<<<< HEAD:ada_2_fhir-r4/mp/9.2.0/beschikbaarstellen_medicatiegegevens/fhir_instance/mg-mgrp-999900389-ALL.xml
               <reference value="urn:uuid:c33f074e-6a95-11ec-0000-020000000000"/>
=======
               <reference value="urn:uuid:c33f028a-6a95-11ec-0000-020000000000"/>
>>>>>>> origin/master:ada_2_fhir-r4/mp/9.2.0/beschikbaarstellen_medicatiegegevens/fhir_instance/mg-mgrp-999901084-ALL.xml
               <type value="Medication"/>
               <display value="XPRAEP SIROOP 2MG/ML"/>
            </medicationReference>
            <subject>
               <reference value="urn:uuid:c33f2616-6a95-11ec-0000-020000000000"/>
               <type value="Patient"/>
               <display value="Patient, R. van XXX_Sonnenberg"/>
            </subject>
            <performer>
               <actor>
<<<<<<< HEAD:ada_2_fhir-r4/mp/9.2.0/beschikbaarstellen_medicatiegegevens/fhir_instance/mg-mgrp-999900389-ALL.xml
                  <reference value="urn:uuid:c33f03e8-6a95-11ec-0000-020000000000"/>
=======
                  <reference value="urn:uuid:c33f03d4-6a95-11ec-0000-020000000000"/>
>>>>>>> origin/master:ada_2_fhir-r4/mp/9.2.0/beschikbaarstellen_medicatiegegevens/fhir_instance/mg-mgrp-999901084-ALL.xml
                  <type value="Organization"/>
                  <display value="Healthcare provider (organization), Apotheek De Gulle Gaper"/>
               </actor>
            </performer>
            <authorizingPrescription>
               <type value="MedicationRequest"/>
               <identifier>
                  <system value="urn:oid:2.16.840.1.113883.2.4.3.11.999.77.16076005.1"/>
                  <value value="MBH_200_QA2_MA"/>
               </identifier>
               <display value="relatie naar medicatieafspraak met identificatie: MBH_200_QA2_MA || 2.16.840.1.113883.2.4.3.11.999.77.16076005.1"/>
            </authorizingPrescription>
            <dosageInstruction>
               <timing>
                  <repeat>
                     <frequency value="1"/>
                     <period value="1"/>
                     <periodUnit value="d"/>
                  </repeat>
               </timing>
               <route>
                  <coding>
                     <system value="urn:oid:2.16.840.1.113883.2.4.4.9"/>
                     <code value="9"/>
                     <display value="oraal"/>
                  </coding>
               </route>
               <doseAndRate>
                  <doseQuantity>
                     <extension url="http://hl7.org/fhir/StructureDefinition/iso21090-PQ-translation">
                        <valueQuantity>
                           <value value="10"/>
                           <unit value="milliliter"/>
                           <system value="urn:oid:2.16.840.1.113883.2.4.4.1.900.2"/>
                           <code value="233"/>
                        </valueQuantity>
                     </extension>
                     <value value="10"/>
                     <unit value="milliliter"/>
                     <system value="http://unitsofmeasure.org"/>
                     <code value="ml"/>
                  </doseQuantity>
               </doseAndRate>
            </dosageInstruction>
         </MedicationDispense>
      </resource>
      <request>
         <method value="POST"/>
         <url value="MedicationDispense"/>
      </request>
   </entry>
   <entry>
<<<<<<< HEAD:ada_2_fhir-r4/mp/9.2.0/beschikbaarstellen_medicatiegegevens/fhir_instance/mg-mgrp-999900389-ALL.xml
      <fullUrl value="urn:uuid:c33f05c8-6a95-11ec-0000-020000000000"/>
      <resource>
         <MedicationDispense>
            <id value="mp-AdmAgr-mp9-216840111388324311999774220370091-MBH200QA3TA"/>
=======
      <fullUrl value="urn:uuid:c33f0104-6a95-11ec-0000-020000000000"/>
      <resource>
         <MedicationDispense>
>>>>>>> origin/master:ada_2_fhir-r4/mp/9.2.0/beschikbaarstellen_medicatiegegevens/fhir_instance/mg-mgrp-999901084-ALL.xml
            <meta>
               <profile value="http://nictiz.nl/fhir/StructureDefinition/mp-AdministrationAgreement"/>
            </meta>
            <extension url="http://nictiz.nl/fhir/StructureDefinition/ext-AdministrationAgreement.AdministrationAgreementDateTime">
               <valueDateTime value="${DATE, T, D, -50}T09:10:00+02:00"/>
            </extension>
            <extension url="http://nictiz.nl/fhir/StructureDefinition/ext-RenderedDosageInstruction">
               <valueString value="Vanaf T - 50 dagen, tot en met T - 11 dagen, 2 maal per dag 50 ml, oraal"/>
            </extension>
            <extension url="http://nictiz.nl/fhir/StructureDefinition/ext-TimeInterval.Period">
               <valuePeriod>
                  <start value="${DATE, T, D, -50}T00:00:00+02:00"/>
                  <end value="${DATE, T, D, -11}T23:59:59+02:00"/>
               </valuePeriod>
            </extension>
            <extension url="http://nictiz.nl/fhir/StructureDefinition/ext-PharmaceuticalTreatment.Identifier">
               <valueIdentifier>
                  <system value="urn:oid:2.16.840.1.113883.2.4.3.11.999.77.1.1"/>
                  <value value="MBH_200_QA3"/>
               </valueIdentifier>
            </extension>
            <identifier>
               <system value="urn:oid:2.16.840.1.113883.2.4.3.11.999.77.422037009.1"/>
               <value value="MBH_200_QA3_TA"/>
            </identifier>
            <status value="unknown"/>
            <category>
               <coding>
                  <system value="http://snomed.info/sct"/>
                  <code value="422037009"/>
                  <display value="toedieningsafspraak"/>
               </coding>
            </category>
            <medicationReference>
<<<<<<< HEAD:ada_2_fhir-r4/mp/9.2.0/beschikbaarstellen_medicatiegegevens/fhir_instance/mg-mgrp-999900389-ALL.xml
               <reference value="urn:uuid:c33f078a-6a95-11ec-0000-020000000000"/>
=======
               <reference value="urn:uuid:c33f02c6-6a95-11ec-0000-020000000000"/>
>>>>>>> origin/master:ada_2_fhir-r4/mp/9.2.0/beschikbaarstellen_medicatiegegevens/fhir_instance/mg-mgrp-999901084-ALL.xml
               <type value="Medication"/>
               <display value="NUTRIDRINK BANAANSMAAK"/>
            </medicationReference>
            <subject>
               <reference value="urn:uuid:c33f2616-6a95-11ec-0000-020000000000"/>
               <type value="Patient"/>
               <display value="Patient, R. van XXX_Sonnenberg"/>
            </subject>
            <performer>
               <actor>
<<<<<<< HEAD:ada_2_fhir-r4/mp/9.2.0/beschikbaarstellen_medicatiegegevens/fhir_instance/mg-mgrp-999900389-ALL.xml
                  <reference value="urn:uuid:c33f03e8-6a95-11ec-0000-020000000000"/>
=======
                  <reference value="urn:uuid:c33f03d4-6a95-11ec-0000-020000000000"/>
>>>>>>> origin/master:ada_2_fhir-r4/mp/9.2.0/beschikbaarstellen_medicatiegegevens/fhir_instance/mg-mgrp-999901084-ALL.xml
                  <type value="Organization"/>
                  <display value="Healthcare provider (organization), Apotheek De Gulle Gaper"/>
               </actor>
            </performer>
            <authorizingPrescription>
               <type value="MedicationRequest"/>
               <identifier>
                  <system value="urn:oid:2.16.840.1.113883.2.4.3.11.999.77.16076005.1"/>
                  <value value="MBH_200_QA3_MA"/>
               </identifier>
               <display value="relatie naar medicatieafspraak met identificatie: MBH_200_QA3_MA || 2.16.840.1.113883.2.4.3.11.999.77.16076005.1"/>
            </authorizingPrescription>
            <dosageInstruction>
               <timing>
                  <repeat>
                     <frequency value="2"/>
                     <period value="1"/>
                     <periodUnit value="d"/>
                  </repeat>
               </timing>
               <route>
                  <coding>
                     <system value="urn:oid:2.16.840.1.113883.2.4.4.9"/>
                     <code value="9"/>
                     <display value="oraal"/>
                  </coding>
               </route>
               <doseAndRate>
                  <doseQuantity>
                     <extension url="http://hl7.org/fhir/StructureDefinition/iso21090-PQ-translation">
                        <valueQuantity>
                           <value value="50"/>
                           <unit value="milliliter"/>
                           <system value="urn:oid:2.16.840.1.113883.2.4.4.1.900.2"/>
                           <code value="233"/>
                        </valueQuantity>
                     </extension>
                     <value value="50"/>
                     <unit value="milliliter"/>
                     <system value="http://unitsofmeasure.org"/>
                     <code value="ml"/>
                  </doseQuantity>
               </doseAndRate>
            </dosageInstruction>
         </MedicationDispense>
      </resource>
      <request>
         <method value="POST"/>
         <url value="MedicationDispense"/>
      </request>
   </entry>
   <entry>
<<<<<<< HEAD:ada_2_fhir-r4/mp/9.2.0/beschikbaarstellen_medicatiegegevens/fhir_instance/mg-mgrp-999900389-ALL.xml
      <fullUrl value="urn:uuid:c33f05e6-6a95-11ec-0000-020000000000"/>
      <resource>
         <MedicationDispense>
            <id value="mp-AdmAgr-mp9-216840111388324311999774220370091-MBH200QA4TA"/>
=======
      <fullUrl value="urn:uuid:c33f0122-6a95-11ec-0000-020000000000"/>
      <resource>
         <MedicationDispense>
>>>>>>> origin/master:ada_2_fhir-r4/mp/9.2.0/beschikbaarstellen_medicatiegegevens/fhir_instance/mg-mgrp-999901084-ALL.xml
            <meta>
               <profile value="http://nictiz.nl/fhir/StructureDefinition/mp-AdministrationAgreement"/>
            </meta>
            <extension url="http://nictiz.nl/fhir/StructureDefinition/ext-AdministrationAgreement.AdministrationAgreementDateTime">
               <valueDateTime value="${DATE, T, D, -10}T09:12:00+02:00"/>
            </extension>
            <extension url="http://nictiz.nl/fhir/StructureDefinition/ext-RenderedDosageInstruction">
               <valueString value="Vanaf T - 10 dagen, tot en met T + 19 dagen, 1 maal per dag 1 stuk, oraal"/>
            </extension>
            <extension url="http://nictiz.nl/fhir/StructureDefinition/ext-TimeInterval.Period">
               <valuePeriod>
                  <start value="${DATE, T, D, -10}T00:00:00+02:00"/>
                  <end value="${DATE, T, D, +19}T23:59:59+02:00"/>
               </valuePeriod>
            </extension>
            <extension url="http://nictiz.nl/fhir/StructureDefinition/ext-PharmaceuticalTreatment.Identifier">
               <valueIdentifier>
                  <system value="urn:oid:2.16.840.1.113883.2.4.3.11.999.77.1.1"/>
                  <value value="MBH_200_QA4"/>
               </valueIdentifier>
            </extension>
            <identifier>
               <system value="urn:oid:2.16.840.1.113883.2.4.3.11.999.77.422037009.1"/>
               <value value="MBH_200_QA4_TA"/>
            </identifier>
            <status value="unknown"/>
            <category>
               <coding>
                  <system value="http://snomed.info/sct"/>
                  <code value="422037009"/>
                  <display value="toedieningsafspraak"/>
               </coding>
            </category>
            <medicationReference>
<<<<<<< HEAD:ada_2_fhir-r4/mp/9.2.0/beschikbaarstellen_medicatiegegevens/fhir_instance/mg-mgrp-999900389-ALL.xml
               <reference value="urn:uuid:c33f07c6-6a95-11ec-0000-020000000000"/>
=======
               <reference value="urn:uuid:c33f0302-6a95-11ec-0000-020000000000"/>
>>>>>>> origin/master:ada_2_fhir-r4/mp/9.2.0/beschikbaarstellen_medicatiegegevens/fhir_instance/mg-mgrp-999901084-ALL.xml
               <type value="Medication"/>
               <display value="ASPIRINE TABLET 100MG"/>
            </medicationReference>
            <subject>
               <reference value="urn:uuid:c33f2616-6a95-11ec-0000-020000000000"/>
               <type value="Patient"/>
               <display value="Patient, R. van XXX_Sonnenberg"/>
            </subject>
            <performer>
               <actor>
<<<<<<< HEAD:ada_2_fhir-r4/mp/9.2.0/beschikbaarstellen_medicatiegegevens/fhir_instance/mg-mgrp-999900389-ALL.xml
                  <reference value="urn:uuid:c33f03e8-6a95-11ec-0000-020000000000"/>
=======
                  <reference value="urn:uuid:c33f03d4-6a95-11ec-0000-020000000000"/>
>>>>>>> origin/master:ada_2_fhir-r4/mp/9.2.0/beschikbaarstellen_medicatiegegevens/fhir_instance/mg-mgrp-999901084-ALL.xml
                  <type value="Organization"/>
                  <display value="Healthcare provider (organization), Apotheek De Gulle Gaper"/>
               </actor>
            </performer>
            <authorizingPrescription>
               <type value="MedicationRequest"/>
               <identifier>
                  <system value="urn:oid:2.16.840.1.113883.2.4.3.11.999.77.16076005.1"/>
                  <value value="MBH_200_QA4_MA"/>
               </identifier>
               <display value="relatie naar medicatieafspraak met identificatie: MBH_200_QA4_MA || 2.16.840.1.113883.2.4.3.11.999.77.16076005.1"/>
            </authorizingPrescription>
            <dosageInstruction>
               <timing>
                  <repeat>
                     <frequency value="1"/>
                     <period value="1"/>
                     <periodUnit value="d"/>
                  </repeat>
               </timing>
               <route>
                  <coding>
                     <system value="urn:oid:2.16.840.1.113883.2.4.4.9"/>
                     <code value="9"/>
                     <display value="oraal"/>
                  </coding>
               </route>
               <doseAndRate>
                  <doseQuantity>
                     <extension url="http://hl7.org/fhir/StructureDefinition/iso21090-PQ-translation">
                        <valueQuantity>
                           <value value="1"/>
                           <unit value="stuk"/>
                           <system value="urn:oid:2.16.840.1.113883.2.4.4.1.900.2"/>
                           <code value="245"/>
                        </valueQuantity>
                     </extension>
                     <value value="1"/>
                     <unit value="stuk"/>
                     <system value="http://unitsofmeasure.org"/>
                     <code value="1"/>
                  </doseQuantity>
               </doseAndRate>
            </dosageInstruction>
         </MedicationDispense>
      </resource>
      <request>
         <method value="POST"/>
         <url value="MedicationDispense"/>
      </request>
   </entry>
   <entry>
<<<<<<< HEAD:ada_2_fhir-r4/mp/9.2.0/beschikbaarstellen_medicatiegegevens/fhir_instance/mg-mgrp-999900389-ALL.xml
      <fullUrl value="urn:uuid:c33f0604-6a95-11ec-0000-020000000000"/>
      <resource>
         <MedicationDispense>
            <id value="mp-AdmAgr-mp9-216840111388324311999774220370091-MBH200QA5TA"/>
=======
      <fullUrl value="urn:uuid:c33f0140-6a95-11ec-0000-020000000000"/>
      <resource>
         <MedicationDispense>
>>>>>>> origin/master:ada_2_fhir-r4/mp/9.2.0/beschikbaarstellen_medicatiegegevens/fhir_instance/mg-mgrp-999901084-ALL.xml
            <meta>
               <profile value="http://nictiz.nl/fhir/StructureDefinition/mp-AdministrationAgreement"/>
            </meta>
            <extension url="http://nictiz.nl/fhir/StructureDefinition/ext-AdministrationAgreement.AdministrationAgreementDateTime">
               <valueDateTime value="${DATE, T, D, -50}T09:15:00+02:00"/>
            </extension>
            <extension url="http://nictiz.nl/fhir/StructureDefinition/ext-RenderedDosageInstruction">
               <valueString value="Vanaf T - 50 dagen, gedurende 7 dagen, 4 maal per dag 2 stuks, oraal"/>
            </extension>
            <extension url="http://nictiz.nl/fhir/StructureDefinition/ext-TimeInterval.Period">
               <valuePeriod>
                  <extension url="http://nictiz.nl/fhir/StructureDefinition/ext-TimeInterval.Duration">
                     <valueDuration>
                        <value value="7"/>
                        <unit value="dag"/>
                        <system value="http://unitsofmeasure.org"/>
                        <code value="d"/>
                     </valueDuration>
                  </extension>
                  <start value="${DATE, T, D, -50}T00:00:00+02:00"/>
               </valuePeriod>
            </extension>
            <extension url="http://nictiz.nl/fhir/StructureDefinition/ext-PharmaceuticalTreatment.Identifier">
               <valueIdentifier>
                  <system value="urn:oid:2.16.840.1.113883.2.4.3.11.999.77.1.1"/>
                  <value value="MBH_200_QA5"/>
               </valueIdentifier>
            </extension>
            <identifier>
               <system value="urn:oid:2.16.840.1.113883.2.4.3.11.999.77.422037009.1"/>
               <value value="MBH_200_QA5_TA"/>
            </identifier>
            <status value="unknown"/>
            <category>
               <coding>
                  <system value="http://snomed.info/sct"/>
                  <code value="422037009"/>
                  <display value="toedieningsafspraak"/>
               </coding>
            </category>
            <medicationReference>
<<<<<<< HEAD:ada_2_fhir-r4/mp/9.2.0/beschikbaarstellen_medicatiegegevens/fhir_instance/mg-mgrp-999900389-ALL.xml
               <reference value="urn:uuid:c33f0802-6a95-11ec-0000-020000000000"/>
=======
               <reference value="urn:uuid:c33f033e-6a95-11ec-0000-020000000000"/>
>>>>>>> origin/master:ada_2_fhir-r4/mp/9.2.0/beschikbaarstellen_medicatiegegevens/fhir_instance/mg-mgrp-999901084-ALL.xml
               <type value="Medication"/>
               <display value="PARACETAMOL SANDOZ TABLET 500MG"/>
            </medicationReference>
            <subject>
               <reference value="urn:uuid:c33f2616-6a95-11ec-0000-020000000000"/>
               <type value="Patient"/>
               <display value="Patient, R. van XXX_Sonnenberg"/>
            </subject>
            <performer>
               <actor>
<<<<<<< HEAD:ada_2_fhir-r4/mp/9.2.0/beschikbaarstellen_medicatiegegevens/fhir_instance/mg-mgrp-999900389-ALL.xml
                  <reference value="urn:uuid:c33f03e8-6a95-11ec-0000-020000000000"/>
=======
                  <reference value="urn:uuid:c33f03d4-6a95-11ec-0000-020000000000"/>
>>>>>>> origin/master:ada_2_fhir-r4/mp/9.2.0/beschikbaarstellen_medicatiegegevens/fhir_instance/mg-mgrp-999901084-ALL.xml
                  <type value="Organization"/>
                  <display value="Healthcare provider (organization), Apotheek De Gulle Gaper"/>
               </actor>
            </performer>
            <authorizingPrescription>
               <type value="MedicationRequest"/>
               <identifier>
                  <system value="urn:oid:2.16.840.1.113883.2.4.3.11.999.77.16076005.1"/>
                  <value value="MBH_200_QA5_MA"/>
               </identifier>
               <display value="relatie naar medicatieafspraak met identificatie: MBH_200_QA5_MA || 2.16.840.1.113883.2.4.3.11.999.77.16076005.1"/>
            </authorizingPrescription>
            <dosageInstruction>
               <timing>
                  <repeat>
                     <frequency value="4"/>
                     <period value="1"/>
                     <periodUnit value="d"/>
                  </repeat>
               </timing>
               <route>
                  <coding>
                     <system value="urn:oid:2.16.840.1.113883.2.4.4.9"/>
                     <code value="9"/>
                     <display value="oraal"/>
                  </coding>
               </route>
               <doseAndRate>
                  <doseQuantity>
                     <extension url="http://hl7.org/fhir/StructureDefinition/iso21090-PQ-translation">
                        <valueQuantity>
                           <value value="2"/>
                           <unit value="stuk"/>
                           <system value="urn:oid:2.16.840.1.113883.2.4.4.1.900.2"/>
                           <code value="245"/>
                        </valueQuantity>
                     </extension>
                     <value value="2"/>
                     <unit value="stuk"/>
                     <system value="http://unitsofmeasure.org"/>
                     <code value="1"/>
                  </doseQuantity>
               </doseAndRate>
            </dosageInstruction>
         </MedicationDispense>
      </resource>
      <request>
         <method value="POST"/>
         <url value="MedicationDispense"/>
      </request>
   </entry>
   <entry>
<<<<<<< HEAD:ada_2_fhir-r4/mp/9.2.0/beschikbaarstellen_medicatiegegevens/fhir_instance/mg-mgrp-999900389-ALL.xml
      <fullUrl value="urn:uuid:c33f0622-6a95-11ec-0000-020000000000"/>
      <resource>
         <MedicationDispense>
            <id value="mp-AdmAgr-mp9-216840111388324311999774220370091-MBH200QA6TA"/>
=======
      <fullUrl value="urn:uuid:c33f015e-6a95-11ec-0000-020000000000"/>
      <resource>
         <MedicationDispense>
>>>>>>> origin/master:ada_2_fhir-r4/mp/9.2.0/beschikbaarstellen_medicatiegegevens/fhir_instance/mg-mgrp-999901084-ALL.xml
            <meta>
               <profile value="http://nictiz.nl/fhir/StructureDefinition/mp-AdministrationAgreement"/>
            </meta>
            <extension url="http://nictiz.nl/fhir/StructureDefinition/ext-AdministrationAgreement.AdministrationAgreementDateTime">
               <valueDateTime value="${DATE, T, D, -5}T09:18:00+02:00"/>
            </extension>
            <extension url="http://nictiz.nl/fhir/StructureDefinition/ext-RenderedDosageInstruction">
               <valueString value="Vanaf T - 5 dagen, tot en met T + 1 dag, 3 maal per dag 1 stuk, oraal"/>
            </extension>
            <extension url="http://nictiz.nl/fhir/StructureDefinition/ext-TimeInterval.Period">
               <valuePeriod>
                  <start value="${DATE, T, D, -5}T00:00:00+02:00"/>
                  <end value="${DATE, T, D, +1}T23:59:59+02:00"/>
               </valuePeriod>
            </extension>
            <extension url="http://nictiz.nl/fhir/StructureDefinition/ext-PharmaceuticalTreatment.Identifier">
               <valueIdentifier>
                  <system value="urn:oid:2.16.840.1.113883.2.4.3.11.999.77.1.1"/>
                  <value value="MBH_200_QA6"/>
               </valueIdentifier>
            </extension>
            <identifier>
               <system value="urn:oid:2.16.840.1.113883.2.4.3.11.999.77.422037009.1"/>
               <value value="MBH_200_QA6_TA"/>
            </identifier>
            <status value="unknown"/>
            <category>
               <coding>
                  <system value="http://snomed.info/sct"/>
                  <code value="422037009"/>
                  <display value="toedieningsafspraak"/>
               </coding>
            </category>
            <medicationReference>
<<<<<<< HEAD:ada_2_fhir-r4/mp/9.2.0/beschikbaarstellen_medicatiegegevens/fhir_instance/mg-mgrp-999900389-ALL.xml
               <reference value="urn:uuid:c33f083e-6a95-11ec-0000-020000000000"/>
=======
               <reference value="urn:uuid:c33f037a-6a95-11ec-0000-020000000000"/>
>>>>>>> origin/master:ada_2_fhir-r4/mp/9.2.0/beschikbaarstellen_medicatiegegevens/fhir_instance/mg-mgrp-999901084-ALL.xml
               <type value="Medication"/>
               <display value="OXAZEPAM ACTAVIS TABLET 10MG"/>
            </medicationReference>
            <subject>
               <reference value="urn:uuid:c33f2616-6a95-11ec-0000-020000000000"/>
               <type value="Patient"/>
               <display value="Patient, R. van XXX_Sonnenberg"/>
            </subject>
            <performer>
               <actor>
<<<<<<< HEAD:ada_2_fhir-r4/mp/9.2.0/beschikbaarstellen_medicatiegegevens/fhir_instance/mg-mgrp-999900389-ALL.xml
                  <reference value="urn:uuid:c33f03e8-6a95-11ec-0000-020000000000"/>
=======
                  <reference value="urn:uuid:c33f03d4-6a95-11ec-0000-020000000000"/>
>>>>>>> origin/master:ada_2_fhir-r4/mp/9.2.0/beschikbaarstellen_medicatiegegevens/fhir_instance/mg-mgrp-999901084-ALL.xml
                  <type value="Organization"/>
                  <display value="Healthcare provider (organization), Apotheek De Gulle Gaper"/>
               </actor>
            </performer>
            <authorizingPrescription>
               <type value="MedicationRequest"/>
               <identifier>
                  <system value="urn:oid:2.16.840.1.113883.2.4.3.11.999.77.16076005.1"/>
                  <value value="MBH_200_QA6_MA"/>
               </identifier>
               <display value="relatie naar medicatieafspraak met identificatie: MBH_200_QA6_MA || 2.16.840.1.113883.2.4.3.11.999.77.16076005.1"/>
            </authorizingPrescription>
            <dosageInstruction>
               <timing>
                  <repeat>
                     <frequency value="3"/>
                     <period value="1"/>
                     <periodUnit value="d"/>
                  </repeat>
               </timing>
               <route>
                  <coding>
                     <system value="urn:oid:2.16.840.1.113883.2.4.4.9"/>
                     <code value="9"/>
                     <display value="oraal"/>
                  </coding>
               </route>
               <doseAndRate>
                  <doseQuantity>
                     <extension url="http://hl7.org/fhir/StructureDefinition/iso21090-PQ-translation">
                        <valueQuantity>
                           <value value="1"/>
                           <unit value="stuk"/>
                           <system value="urn:oid:2.16.840.1.113883.2.4.4.1.900.2"/>
                           <code value="245"/>
                        </valueQuantity>
                     </extension>
                     <value value="1"/>
                     <unit value="stuk"/>
                     <system value="http://unitsofmeasure.org"/>
                     <code value="1"/>
                  </doseQuantity>
               </doseAndRate>
            </dosageInstruction>
         </MedicationDispense>
      </resource>
      <request>
         <method value="POST"/>
         <url value="MedicationDispense"/>
      </request>
   </entry>
   <entry>
<<<<<<< HEAD:ada_2_fhir-r4/mp/9.2.0/beschikbaarstellen_medicatiegegevens/fhir_instance/mg-mgrp-999900389-ALL.xml
      <fullUrl value="urn:uuid:c33f0640-6a95-11ec-0000-020000000000"/>
      <resource>
         <MedicationDispense>
            <id value="mp-MedDsp-mp9-216840111388324311999773737840051-MBH200QA1MVE"/>
=======
      <fullUrl value="urn:uuid:c33f017c-6a95-11ec-0000-020000000000"/>
      <resource>
         <MedicationDispense>
>>>>>>> origin/master:ada_2_fhir-r4/mp/9.2.0/beschikbaarstellen_medicatiegegevens/fhir_instance/mg-mgrp-999901084-ALL.xml
            <meta>
               <profile value="http://nictiz.nl/fhir/StructureDefinition/mp-MedicationDispense"/>
            </meta>
            <extension url="http://nictiz.nl/fhir/StructureDefinition/ext-PharmaceuticalTreatment.Identifier">
               <valueIdentifier>
                  <system value="urn:oid:2.16.840.1.113883.2.4.3.11.999.77.1.1"/>
                  <value value="MBH_200_QA1"/>
               </valueIdentifier>
            </extension>
            <identifier>
               <system value="urn:oid:2.16.840.1.113883.2.4.3.11.999.77.373784005.1"/>
               <value value="MBH_200_QA1_MVE"/>
            </identifier>
            <status value="completed"/>
            <category>
               <coding>
                  <system value="http://snomed.info/sct"/>
                  <code value="373784005"/>
                  <display value="verstrekken van medicatie"/>
               </coding>
            </category>
            <medicationReference>
<<<<<<< HEAD:ada_2_fhir-r4/mp/9.2.0/beschikbaarstellen_medicatiegegevens/fhir_instance/mg-mgrp-999900389-ALL.xml
               <reference value="urn:uuid:c33f0712-6a95-11ec-0000-020000000000"/>
=======
               <reference value="urn:uuid:c33f024e-6a95-11ec-0000-020000000000"/>
>>>>>>> origin/master:ada_2_fhir-r4/mp/9.2.0/beschikbaarstellen_medicatiegegevens/fhir_instance/mg-mgrp-999901084-ALL.xml
               <type value="Medication"/>
               <display value="IBUPROFEN PCH TABLET 600MG"/>
            </medicationReference>
            <subject>
               <reference value="urn:uuid:c33f2616-6a95-11ec-0000-020000000000"/>
               <type value="Patient"/>
               <display value="Patient, R. van XXX_Sonnenberg"/>
            </subject>
            <performer>
               <actor>
<<<<<<< HEAD:ada_2_fhir-r4/mp/9.2.0/beschikbaarstellen_medicatiegegevens/fhir_instance/mg-mgrp-999900389-ALL.xml
                  <reference value="urn:uuid:c33f03e8-6a95-11ec-0000-020000000000"/>
=======
                  <reference value="urn:uuid:c33f03d4-6a95-11ec-0000-020000000000"/>
>>>>>>> origin/master:ada_2_fhir-r4/mp/9.2.0/beschikbaarstellen_medicatiegegevens/fhir_instance/mg-mgrp-999901084-ALL.xml
                  <type value="Organization"/>
                  <display value="Healthcare provider (organization), Apotheek De Gulle Gaper"/>
               </actor>
            </performer>
            <authorizingPrescription>
               <type value="MedicationRequest"/>
               <identifier>
                  <system value="urn:oid:2.16.840.1.113883.2.4.3.11.999.77.52711000146108.1"/>
                  <value value="MBH_200_QA1_VV"/>
               </identifier>
               <display value="relatie naar verstrekkingsverzoek met identificatie: MBH_200_QA1_VV || 2.16.840.1.113883.2.4.3.11.999.77.52711000146108.1"/>
            </authorizingPrescription>
            <quantity>
               <extension url="http://hl7.org/fhir/StructureDefinition/iso21090-PQ-translation">
                  <valueQuantity>
                     <value value="60"/>
                     <unit value="stuk"/>
                     <system value="urn:oid:2.16.840.1.113883.2.4.4.1.900.2"/>
                     <code value="245"/>
                  </valueQuantity>
               </extension>
               <value value="60"/>
               <unit value="stuk"/>
               <system value="http://unitsofmeasure.org"/>
               <code value="1"/>
            </quantity>
            <whenHandedOver value="${DATE, T, D, -20}T09:00:00+02:00"/>
         </MedicationDispense>
      </resource>
      <request>
         <method value="POST"/>
         <url value="MedicationDispense"/>
      </request>
   </entry>
   <entry>
<<<<<<< HEAD:ada_2_fhir-r4/mp/9.2.0/beschikbaarstellen_medicatiegegevens/fhir_instance/mg-mgrp-999900389-ALL.xml
      <fullUrl value="urn:uuid:c33f065e-6a95-11ec-0000-020000000000"/>
      <resource>
         <MedicationDispense>
            <id value="mp-MedDsp-mp9-216840111388324311999773737840051-MBH200QA2MVE"/>
=======
      <fullUrl value="urn:uuid:c33f019a-6a95-11ec-0000-020000000000"/>
      <resource>
         <MedicationDispense>
>>>>>>> origin/master:ada_2_fhir-r4/mp/9.2.0/beschikbaarstellen_medicatiegegevens/fhir_instance/mg-mgrp-999901084-ALL.xml
            <meta>
               <profile value="http://nictiz.nl/fhir/StructureDefinition/mp-MedicationDispense"/>
            </meta>
            <extension url="http://nictiz.nl/fhir/StructureDefinition/ext-PharmaceuticalTreatment.Identifier">
               <valueIdentifier>
                  <system value="urn:oid:2.16.840.1.113883.2.4.3.11.999.77.1.1"/>
                  <value value="MBH_200_QA2"/>
               </valueIdentifier>
            </extension>
            <identifier>
               <system value="urn:oid:2.16.840.1.113883.2.4.3.11.999.77.373784005.1"/>
               <value value="MBH_200_QA2_MVE"/>
            </identifier>
            <status value="completed"/>
            <category>
               <coding>
                  <system value="http://snomed.info/sct"/>
                  <code value="373784005"/>
                  <display value="verstrekken van medicatie"/>
               </coding>
            </category>
            <medicationReference>
<<<<<<< HEAD:ada_2_fhir-r4/mp/9.2.0/beschikbaarstellen_medicatiegegevens/fhir_instance/mg-mgrp-999900389-ALL.xml
               <reference value="urn:uuid:c33f074e-6a95-11ec-0000-020000000000"/>
=======
               <reference value="urn:uuid:c33f028a-6a95-11ec-0000-020000000000"/>
>>>>>>> origin/master:ada_2_fhir-r4/mp/9.2.0/beschikbaarstellen_medicatiegegevens/fhir_instance/mg-mgrp-999901084-ALL.xml
               <type value="Medication"/>
               <display value="XPRAEP SIROOP 2MG/ML"/>
            </medicationReference>
            <subject>
               <reference value="urn:uuid:c33f2616-6a95-11ec-0000-020000000000"/>
               <type value="Patient"/>
               <display value="Patient, R. van XXX_Sonnenberg"/>
            </subject>
            <performer>
               <actor>
<<<<<<< HEAD:ada_2_fhir-r4/mp/9.2.0/beschikbaarstellen_medicatiegegevens/fhir_instance/mg-mgrp-999900389-ALL.xml
                  <reference value="urn:uuid:c33f03e8-6a95-11ec-0000-020000000000"/>
=======
                  <reference value="urn:uuid:c33f03d4-6a95-11ec-0000-020000000000"/>
>>>>>>> origin/master:ada_2_fhir-r4/mp/9.2.0/beschikbaarstellen_medicatiegegevens/fhir_instance/mg-mgrp-999901084-ALL.xml
                  <type value="Organization"/>
                  <display value="Healthcare provider (organization), Apotheek De Gulle Gaper"/>
               </actor>
            </performer>
            <authorizingPrescription>
               <type value="MedicationRequest"/>
               <identifier>
                  <system value="urn:oid:2.16.840.1.113883.2.4.3.11.999.77.52711000146108.1"/>
                  <value value="MBH_200_QA2_VV"/>
               </identifier>
               <display value="relatie naar verstrekkingsverzoek met identificatie: MBH_200_QA2_VV || 2.16.840.1.113883.2.4.3.11.999.77.52711000146108.1"/>
            </authorizingPrescription>
            <quantity>
               <extension url="http://hl7.org/fhir/StructureDefinition/iso21090-PQ-translation">
                  <valueQuantity>
                     <value value="300"/>
                     <unit value="milliliter"/>
                     <system value="urn:oid:2.16.840.1.113883.2.4.4.1.900.2"/>
                     <code value="233"/>
                  </valueQuantity>
               </extension>
               <value value="300"/>
               <unit value="milliliter"/>
               <system value="http://unitsofmeasure.org"/>
               <code value="ml"/>
            </quantity>
            <whenHandedOver value="${DATE, T, D, -100}T09:04:00+02:00"/>
         </MedicationDispense>
      </resource>
      <request>
         <method value="POST"/>
         <url value="MedicationDispense"/>
      </request>
   </entry>
   <entry>
<<<<<<< HEAD:ada_2_fhir-r4/mp/9.2.0/beschikbaarstellen_medicatiegegevens/fhir_instance/mg-mgrp-999900389-ALL.xml
      <fullUrl value="urn:uuid:c33f067c-6a95-11ec-0000-020000000000"/>
      <resource>
         <MedicationDispense>
            <id value="mp-MedDsp-mp9-216840111388324311999773737840051-MBH200QA3MVE"/>
=======
      <fullUrl value="urn:uuid:c33f01b8-6a95-11ec-0000-020000000000"/>
      <resource>
         <MedicationDispense>
>>>>>>> origin/master:ada_2_fhir-r4/mp/9.2.0/beschikbaarstellen_medicatiegegevens/fhir_instance/mg-mgrp-999901084-ALL.xml
            <meta>
               <profile value="http://nictiz.nl/fhir/StructureDefinition/mp-MedicationDispense"/>
            </meta>
            <extension url="http://nictiz.nl/fhir/StructureDefinition/ext-PharmaceuticalTreatment.Identifier">
               <valueIdentifier>
                  <system value="urn:oid:2.16.840.1.113883.2.4.3.11.999.77.1.1"/>
                  <value value="MBH_200_QA3"/>
               </valueIdentifier>
            </extension>
            <identifier>
               <system value="urn:oid:2.16.840.1.113883.2.4.3.11.999.77.373784005.1"/>
               <value value="MBH_200_QA3_MVE"/>
            </identifier>
            <status value="completed"/>
            <category>
               <coding>
                  <system value="http://snomed.info/sct"/>
                  <code value="373784005"/>
                  <display value="verstrekken van medicatie"/>
               </coding>
            </category>
            <medicationReference>
<<<<<<< HEAD:ada_2_fhir-r4/mp/9.2.0/beschikbaarstellen_medicatiegegevens/fhir_instance/mg-mgrp-999900389-ALL.xml
               <reference value="urn:uuid:c33f078a-6a95-11ec-0000-020000000000"/>
=======
               <reference value="urn:uuid:c33f02c6-6a95-11ec-0000-020000000000"/>
>>>>>>> origin/master:ada_2_fhir-r4/mp/9.2.0/beschikbaarstellen_medicatiegegevens/fhir_instance/mg-mgrp-999901084-ALL.xml
               <type value="Medication"/>
               <display value="NUTRIDRINK BANAANSMAAK"/>
            </medicationReference>
            <subject>
               <reference value="urn:uuid:c33f2616-6a95-11ec-0000-020000000000"/>
               <type value="Patient"/>
               <display value="Patient, R. van XXX_Sonnenberg"/>
            </subject>
            <performer>
               <actor>
<<<<<<< HEAD:ada_2_fhir-r4/mp/9.2.0/beschikbaarstellen_medicatiegegevens/fhir_instance/mg-mgrp-999900389-ALL.xml
                  <reference value="urn:uuid:c33f03e8-6a95-11ec-0000-020000000000"/>
=======
                  <reference value="urn:uuid:c33f03d4-6a95-11ec-0000-020000000000"/>
>>>>>>> origin/master:ada_2_fhir-r4/mp/9.2.0/beschikbaarstellen_medicatiegegevens/fhir_instance/mg-mgrp-999901084-ALL.xml
                  <type value="Organization"/>
                  <display value="Healthcare provider (organization), Apotheek De Gulle Gaper"/>
               </actor>
            </performer>
            <authorizingPrescription>
               <type value="MedicationRequest"/>
               <identifier>
                  <system value="urn:oid:2.16.840.1.113883.2.4.3.11.999.77.52711000146108.1"/>
                  <value value="MBH_200_QA3_VV"/>
               </identifier>
               <display value="relatie naar verstrekkingsverzoek met identificatie: MBH_200_QA3_VV || 2.16.840.1.113883.2.4.3.11.999.77.52711000146108.1"/>
            </authorizingPrescription>
            <quantity>
               <extension url="http://hl7.org/fhir/StructureDefinition/iso21090-PQ-translation">
                  <valueQuantity>
                     <value value="4000"/>
                     <unit value="milliliter"/>
                     <system value="urn:oid:2.16.840.1.113883.2.4.4.1.900.2"/>
                     <code value="233"/>
                  </valueQuantity>
               </extension>
               <value value="4000"/>
               <unit value="milliliter"/>
               <system value="http://unitsofmeasure.org"/>
               <code value="ml"/>
            </quantity>
            <whenHandedOver value="${DATE, T, D, -50}T09:10:00+02:00"/>
         </MedicationDispense>
      </resource>
      <request>
         <method value="POST"/>
         <url value="MedicationDispense"/>
      </request>
   </entry>
   <entry>
<<<<<<< HEAD:ada_2_fhir-r4/mp/9.2.0/beschikbaarstellen_medicatiegegevens/fhir_instance/mg-mgrp-999900389-ALL.xml
      <fullUrl value="urn:uuid:c33f069a-6a95-11ec-0000-020000000000"/>
      <resource>
         <MedicationDispense>
            <id value="mp-MedDsp-mp9-216840111388324311999773737840051-MBH200QA4MVE"/>
=======
      <fullUrl value="urn:uuid:c33f01d6-6a95-11ec-0000-020000000000"/>
      <resource>
         <MedicationDispense>
>>>>>>> origin/master:ada_2_fhir-r4/mp/9.2.0/beschikbaarstellen_medicatiegegevens/fhir_instance/mg-mgrp-999901084-ALL.xml
            <meta>
               <profile value="http://nictiz.nl/fhir/StructureDefinition/mp-MedicationDispense"/>
            </meta>
            <extension url="http://nictiz.nl/fhir/StructureDefinition/ext-PharmaceuticalTreatment.Identifier">
               <valueIdentifier>
                  <system value="urn:oid:2.16.840.1.113883.2.4.3.11.999.77.1.1"/>
                  <value value="MBH_200_QA4"/>
               </valueIdentifier>
            </extension>
            <identifier>
               <system value="urn:oid:2.16.840.1.113883.2.4.3.11.999.77.373784005.1"/>
               <value value="MBH_200_QA4_MVE"/>
            </identifier>
            <status value="completed"/>
            <category>
               <coding>
                  <system value="http://snomed.info/sct"/>
                  <code value="373784005"/>
                  <display value="verstrekken van medicatie"/>
               </coding>
            </category>
            <medicationReference>
<<<<<<< HEAD:ada_2_fhir-r4/mp/9.2.0/beschikbaarstellen_medicatiegegevens/fhir_instance/mg-mgrp-999900389-ALL.xml
               <reference value="urn:uuid:c33f07c6-6a95-11ec-0000-020000000000"/>
=======
               <reference value="urn:uuid:c33f0302-6a95-11ec-0000-020000000000"/>
>>>>>>> origin/master:ada_2_fhir-r4/mp/9.2.0/beschikbaarstellen_medicatiegegevens/fhir_instance/mg-mgrp-999901084-ALL.xml
               <type value="Medication"/>
               <display value="ASPIRINE TABLET 100MG"/>
            </medicationReference>
            <subject>
               <reference value="urn:uuid:c33f2616-6a95-11ec-0000-020000000000"/>
               <type value="Patient"/>
               <display value="Patient, R. van XXX_Sonnenberg"/>
            </subject>
            <performer>
               <actor>
<<<<<<< HEAD:ada_2_fhir-r4/mp/9.2.0/beschikbaarstellen_medicatiegegevens/fhir_instance/mg-mgrp-999900389-ALL.xml
                  <reference value="urn:uuid:c33f03e8-6a95-11ec-0000-020000000000"/>
=======
                  <reference value="urn:uuid:c33f03d4-6a95-11ec-0000-020000000000"/>
>>>>>>> origin/master:ada_2_fhir-r4/mp/9.2.0/beschikbaarstellen_medicatiegegevens/fhir_instance/mg-mgrp-999901084-ALL.xml
                  <type value="Organization"/>
                  <display value="Healthcare provider (organization), Apotheek De Gulle Gaper"/>
               </actor>
            </performer>
            <authorizingPrescription>
               <type value="MedicationRequest"/>
               <identifier>
                  <system value="urn:oid:2.16.840.1.113883.2.4.3.11.999.77.52711000146108.1"/>
                  <value value="MBH_200_QA4_VV"/>
               </identifier>
               <display value="relatie naar verstrekkingsverzoek met identificatie: MBH_200_QA4_VV || 2.16.840.1.113883.2.4.3.11.999.77.52711000146108.1"/>
            </authorizingPrescription>
            <quantity>
               <extension url="http://hl7.org/fhir/StructureDefinition/iso21090-PQ-translation">
                  <valueQuantity>
                     <value value="30"/>
                     <unit value="stuk"/>
                     <system value="urn:oid:2.16.840.1.113883.2.4.4.1.900.2"/>
                     <code value="245"/>
                  </valueQuantity>
               </extension>
               <value value="30"/>
               <unit value="stuk"/>
               <system value="http://unitsofmeasure.org"/>
               <code value="1"/>
            </quantity>
            <whenHandedOver value="${DATE, T, D, -10}T09:12:00+02:00"/>
         </MedicationDispense>
      </resource>
      <request>
         <method value="POST"/>
         <url value="MedicationDispense"/>
      </request>
   </entry>
   <entry>
<<<<<<< HEAD:ada_2_fhir-r4/mp/9.2.0/beschikbaarstellen_medicatiegegevens/fhir_instance/mg-mgrp-999900389-ALL.xml
      <fullUrl value="urn:uuid:c33f06b8-6a95-11ec-0000-020000000000"/>
      <resource>
         <MedicationDispense>
            <id value="mp-MedDsp-mp9-216840111388324311999773737840051-MBH200QA5MVE"/>
=======
      <fullUrl value="urn:uuid:c33f01f4-6a95-11ec-0000-020000000000"/>
      <resource>
         <MedicationDispense>
>>>>>>> origin/master:ada_2_fhir-r4/mp/9.2.0/beschikbaarstellen_medicatiegegevens/fhir_instance/mg-mgrp-999901084-ALL.xml
            <meta>
               <profile value="http://nictiz.nl/fhir/StructureDefinition/mp-MedicationDispense"/>
            </meta>
            <extension url="http://nictiz.nl/fhir/StructureDefinition/ext-PharmaceuticalTreatment.Identifier">
               <valueIdentifier>
                  <system value="urn:oid:2.16.840.1.113883.2.4.3.11.999.77.1.1"/>
                  <value value="MBH_200_QA5"/>
               </valueIdentifier>
            </extension>
            <identifier>
               <system value="urn:oid:2.16.840.1.113883.2.4.3.11.999.77.373784005.1"/>
               <value value="MBH_200_QA5_MVE"/>
            </identifier>
            <status value="completed"/>
            <category>
               <coding>
                  <system value="http://snomed.info/sct"/>
                  <code value="373784005"/>
                  <display value="verstrekken van medicatie"/>
               </coding>
            </category>
            <medicationReference>
<<<<<<< HEAD:ada_2_fhir-r4/mp/9.2.0/beschikbaarstellen_medicatiegegevens/fhir_instance/mg-mgrp-999900389-ALL.xml
               <reference value="urn:uuid:c33f0802-6a95-11ec-0000-020000000000"/>
=======
               <reference value="urn:uuid:c33f033e-6a95-11ec-0000-020000000000"/>
>>>>>>> origin/master:ada_2_fhir-r4/mp/9.2.0/beschikbaarstellen_medicatiegegevens/fhir_instance/mg-mgrp-999901084-ALL.xml
               <type value="Medication"/>
               <display value="PARACETAMOL SANDOZ TABLET 500MG"/>
            </medicationReference>
            <subject>
               <reference value="urn:uuid:c33f2616-6a95-11ec-0000-020000000000"/>
               <type value="Patient"/>
               <display value="Patient, R. van XXX_Sonnenberg"/>
            </subject>
            <performer>
               <actor>
<<<<<<< HEAD:ada_2_fhir-r4/mp/9.2.0/beschikbaarstellen_medicatiegegevens/fhir_instance/mg-mgrp-999900389-ALL.xml
                  <reference value="urn:uuid:c33f03e8-6a95-11ec-0000-020000000000"/>
=======
                  <reference value="urn:uuid:c33f03d4-6a95-11ec-0000-020000000000"/>
>>>>>>> origin/master:ada_2_fhir-r4/mp/9.2.0/beschikbaarstellen_medicatiegegevens/fhir_instance/mg-mgrp-999901084-ALL.xml
                  <type value="Organization"/>
                  <display value="Healthcare provider (organization), Apotheek De Gulle Gaper"/>
               </actor>
            </performer>
            <authorizingPrescription>
               <type value="MedicationRequest"/>
               <identifier>
                  <system value="urn:oid:2.16.840.1.113883.2.4.3.11.999.77.52711000146108.1"/>
                  <value value="MBH_200_QA5_VV"/>
               </identifier>
               <display value="relatie naar verstrekkingsverzoek met identificatie: MBH_200_QA5_VV || 2.16.840.1.113883.2.4.3.11.999.77.52711000146108.1"/>
            </authorizingPrescription>
            <quantity>
               <extension url="http://hl7.org/fhir/StructureDefinition/iso21090-PQ-translation">
                  <valueQuantity>
                     <value value="56"/>
                     <unit value="stuk"/>
                     <system value="urn:oid:2.16.840.1.113883.2.4.4.1.900.2"/>
                     <code value="245"/>
                  </valueQuantity>
               </extension>
               <value value="56"/>
               <unit value="stuk"/>
               <system value="http://unitsofmeasure.org"/>
               <code value="1"/>
            </quantity>
            <whenHandedOver value="${DATE, T, D, -50}T09:15:00+02:00"/>
         </MedicationDispense>
      </resource>
      <request>
         <method value="POST"/>
         <url value="MedicationDispense"/>
      </request>
   </entry>
   <entry>
<<<<<<< HEAD:ada_2_fhir-r4/mp/9.2.0/beschikbaarstellen_medicatiegegevens/fhir_instance/mg-mgrp-999900389-ALL.xml
      <fullUrl value="urn:uuid:c33f06d6-6a95-11ec-0000-020000000000"/>
      <resource>
         <MedicationDispense>
            <id value="mp-MedDsp-mp9-216840111388324311999773737840051-MBH200QA6MVE"/>
=======
      <fullUrl value="urn:uuid:c33f0212-6a95-11ec-0000-020000000000"/>
      <resource>
         <MedicationDispense>
>>>>>>> origin/master:ada_2_fhir-r4/mp/9.2.0/beschikbaarstellen_medicatiegegevens/fhir_instance/mg-mgrp-999901084-ALL.xml
            <meta>
               <profile value="http://nictiz.nl/fhir/StructureDefinition/mp-MedicationDispense"/>
            </meta>
            <extension url="http://nictiz.nl/fhir/StructureDefinition/ext-PharmaceuticalTreatment.Identifier">
               <valueIdentifier>
                  <system value="urn:oid:2.16.840.1.113883.2.4.3.11.999.77.1.1"/>
                  <value value="MBH_200_QA6"/>
               </valueIdentifier>
            </extension>
            <identifier>
               <system value="urn:oid:2.16.840.1.113883.2.4.3.11.999.77.373784005.1"/>
               <value value="MBH_200_QA6_MVE"/>
            </identifier>
            <status value="completed"/>
            <category>
               <coding>
                  <system value="http://snomed.info/sct"/>
                  <code value="373784005"/>
                  <display value="verstrekken van medicatie"/>
               </coding>
            </category>
            <medicationReference>
<<<<<<< HEAD:ada_2_fhir-r4/mp/9.2.0/beschikbaarstellen_medicatiegegevens/fhir_instance/mg-mgrp-999900389-ALL.xml
               <reference value="urn:uuid:c33f083e-6a95-11ec-0000-020000000000"/>
=======
               <reference value="urn:uuid:c33f037a-6a95-11ec-0000-020000000000"/>
>>>>>>> origin/master:ada_2_fhir-r4/mp/9.2.0/beschikbaarstellen_medicatiegegevens/fhir_instance/mg-mgrp-999901084-ALL.xml
               <type value="Medication"/>
               <display value="OXAZEPAM ACTAVIS TABLET 10MG"/>
            </medicationReference>
            <subject>
               <reference value="urn:uuid:c33f2616-6a95-11ec-0000-020000000000"/>
               <type value="Patient"/>
               <display value="Patient, R. van XXX_Sonnenberg"/>
            </subject>
            <performer>
               <actor>
<<<<<<< HEAD:ada_2_fhir-r4/mp/9.2.0/beschikbaarstellen_medicatiegegevens/fhir_instance/mg-mgrp-999900389-ALL.xml
                  <reference value="urn:uuid:c33f03e8-6a95-11ec-0000-020000000000"/>
=======
                  <reference value="urn:uuid:c33f03d4-6a95-11ec-0000-020000000000"/>
>>>>>>> origin/master:ada_2_fhir-r4/mp/9.2.0/beschikbaarstellen_medicatiegegevens/fhir_instance/mg-mgrp-999901084-ALL.xml
                  <type value="Organization"/>
                  <display value="Healthcare provider (organization), Apotheek De Gulle Gaper"/>
               </actor>
            </performer>
            <authorizingPrescription>
               <type value="MedicationRequest"/>
               <identifier>
                  <system value="urn:oid:2.16.840.1.113883.2.4.3.11.999.77.52711000146108.1"/>
                  <value value="MBH_200_QA6_VV"/>
               </identifier>
               <display value="relatie naar verstrekkingsverzoek met identificatie: MBH_200_QA6_VV || 2.16.840.1.113883.2.4.3.11.999.77.52711000146108.1"/>
            </authorizingPrescription>
            <quantity>
               <extension url="http://hl7.org/fhir/StructureDefinition/iso21090-PQ-translation">
                  <valueQuantity>
                     <value value="21"/>
                     <unit value="stuks"/>
                     <system value="urn:oid:2.16.840.1.113883.2.4.4.1.900.2"/>
                     <code value="245"/>
                  </valueQuantity>
               </extension>
               <value value="21"/>
               <unit value="stuks"/>
               <system value="http://unitsofmeasure.org"/>
               <code value="1"/>
            </quantity>
            <whenHandedOver value="${DATE, T, D, -5}T09:18:00+02:00"/>
         </MedicationDispense>
      </resource>
      <request>
         <method value="POST"/>
         <url value="MedicationDispense"/>
      </request>
   </entry>
   <entry>
      <fullUrl value="urn:uuid:c33f2616-6a95-11ec-0000-020000000000"/>
      <resource>
         <Patient>
            <meta>
               <profile value="http://nictiz.nl/fhir/StructureDefinition/nl-core-Patient"/>
            </meta>
            <identifier>
               <system value="http://fhir.nl/fhir/NamingSystem/bsn"/>
               <value value="999901084"/>
            </identifier>
            <name>
               <extension url="http://hl7.org/fhir/StructureDefinition/humanname-assembly-order">
                  <valueCode value="NL1"/>
               </extension>
               <use value="official"/>
               <text value="R. van XXX_Sonnenberg"/>
               <family value="van XXX_Sonnenberg">
                  <extension url="http://hl7.org/fhir/StructureDefinition/humanname-own-prefix">
                     <valueString value="van"/>
                  </extension>
                  <extension url="http://hl7.org/fhir/StructureDefinition/humanname-own-name">
                     <valueString value="XXX_Sonnenberg"/>
                  </extension>
               </family>
               <given value="R.">
                  <extension url="http://hl7.org/fhir/StructureDefinition/iso21090-EN-qualifier">
                     <valueCode value="IN"/>
                  </extension>
               </given>
            </name>
            <gender value="male">
               <extension url="http://nictiz.nl/fhir/StructureDefinition/ext-CodeSpecification">
                  <valueCodeableConcept>
                     <coding>
                        <system value="http://terminology.hl7.org/CodeSystem/v3-AdministrativeGender"/>
                        <code value="M"/>
                        <display value="Man"/>
                     </coding>
                  </valueCodeableConcept>
               </extension>
            </gender>
            <birthDate value="1985-11-20"/>
         </Patient>
      </resource>
      <request>
         <method value="POST"/>
         <url value="Patient"/>
      </request>
   </entry>
   <entry>
<<<<<<< HEAD:ada_2_fhir-r4/mp/9.2.0/beschikbaarstellen_medicatiegegevens/fhir_instance/mg-mgrp-999900389-ALL.xml
      <fullUrl value="urn:uuid:c33f035c-6a95-11ec-0000-020000000000"/>
      <resource>
         <PractitionerRole>
            <id value="nl-core-HPrf-PracRol-mp9-PrcRol-2165281100731-000001111"/>
=======
      <fullUrl value="urn:uuid:c33f2634-6a95-11ec-0000-020000000000"/>
      <resource>
         <PractitionerRole>
>>>>>>> origin/master:ada_2_fhir-r4/mp/9.2.0/beschikbaarstellen_medicatiegegevens/fhir_instance/mg-mgrp-999901084-ALL.xml
            <meta>
               <profile value="http://nictiz.nl/fhir/StructureDefinition/nl-core-HealthProfessional-PractitionerRole"/>
            </meta>
            <practitioner>
<<<<<<< HEAD:ada_2_fhir-r4/mp/9.2.0/beschikbaarstellen_medicatiegegevens/fhir_instance/mg-mgrp-999900389-ALL.xml
               <reference value="urn:uuid:c33f0384-6a95-11ec-0000-020000000000"/>
=======
               <reference value="urn:uuid:c33f2652-6a95-11ec-0000-020000000000"/>
>>>>>>> origin/master:ada_2_fhir-r4/mp/9.2.0/beschikbaarstellen_medicatiegegevens/fhir_instance/mg-mgrp-999901084-ALL.xml
               <type value="Practitioner"/>
               <display value="Healthcare professional (person), Peter van Pulver"/>
            </practitioner>
            <organization>
<<<<<<< HEAD:ada_2_fhir-r4/mp/9.2.0/beschikbaarstellen_medicatiegegevens/fhir_instance/mg-mgrp-999900389-ALL.xml
               <reference value="urn:uuid:c33f03ac-6a95-11ec-0000-020000000000"/>
=======
               <reference value="urn:uuid:c33f0398-6a95-11ec-0000-020000000000"/>
>>>>>>> origin/master:ada_2_fhir-r4/mp/9.2.0/beschikbaarstellen_medicatiegegevens/fhir_instance/mg-mgrp-999901084-ALL.xml
               <type value="Organization"/>
               <display value="Healthcare provider (organization), Huisartsenpraktijk Pulver &amp; Partners"/>
            </organization>
            <specialty>
               <coding>
                  <system value="urn:oid:2.16.840.1.113883.2.4.6.7"/>
                  <version value="2020-10-23T00:00:00"/>
                  <code value="0100"/>
                  <display value="Huisartsen, niet nader gespecificeerd"/>
               </coding>
            </specialty>
         </PractitionerRole>
      </resource>
      <request>
         <method value="POST"/>
         <url value="PractitionerRole"/>
      </request>
   </entry>
   <entry>
<<<<<<< HEAD:ada_2_fhir-r4/mp/9.2.0/beschikbaarstellen_medicatiegegevens/fhir_instance/mg-mgrp-999900389-ALL.xml
      <fullUrl value="urn:uuid:c33f0384-6a95-11ec-0000-020000000000"/>
=======
      <fullUrl value="urn:uuid:c33f2652-6a95-11ec-0000-020000000000"/>
>>>>>>> origin/master:ada_2_fhir-r4/mp/9.2.0/beschikbaarstellen_medicatiegegevens/fhir_instance/mg-mgrp-999901084-ALL.xml
      <resource>
         <Practitioner>
            <meta>
               <profile value="http://nictiz.nl/fhir/StructureDefinition/nl-core-HealthProfessional-Practitioner"/>
            </meta>
            <identifier>
               <system value="http://fhir.nl/fhir/NamingSystem/uzi-nr-pers"/>
               <value value="000001111"/>
            </identifier>
            <name>
               <use value="official"/>
               <text value="Peter van Pulver"/>
               <family value="van Pulver">
                  <extension url="http://hl7.org/fhir/StructureDefinition/humanname-own-prefix">
                     <valueString value="van"/>
                  </extension>
                  <extension url="http://hl7.org/fhir/StructureDefinition/humanname-own-name">
                     <valueString value="Pulver"/>
                  </extension>
               </family>
               <given value="Peter">
                  <extension url="http://hl7.org/fhir/StructureDefinition/iso21090-EN-qualifier">
                     <valueCode value="BR"/>
                  </extension>
               </given>
            </name>
         </Practitioner>
      </resource>
      <request>
         <method value="POST"/>
         <url value="Practitioner"/>
      </request>
   </entry>
   <entry>
<<<<<<< HEAD:ada_2_fhir-r4/mp/9.2.0/beschikbaarstellen_medicatiegegevens/fhir_instance/mg-mgrp-999900389-ALL.xml
      <fullUrl value="urn:uuid:c33f03ac-6a95-11ec-0000-020000000000"/>
      <resource>
         <Organization>
            <id value="nl-core-HPrv-Org-mp9-Org-2165281100733-00001111"/>
=======
      <fullUrl value="urn:uuid:c33f0398-6a95-11ec-0000-020000000000"/>
      <resource>
         <Organization>
>>>>>>> origin/master:ada_2_fhir-r4/mp/9.2.0/beschikbaarstellen_medicatiegegevens/fhir_instance/mg-mgrp-999901084-ALL.xml
            <meta>
               <profile value="http://nictiz.nl/fhir/StructureDefinition/nl-core-HealthcareProvider-Organization"/>
            </meta>
            <identifier>
               <system value="http://fhir.nl/fhir/NamingSystem/ura"/>
               <value value="00001111"/>
            </identifier>
            <name value="Huisartsenpraktijk Pulver &amp; Partners"/>
            <address>
               <extension url="http://nictiz.nl/fhir/StructureDefinition/ext-AddressInformation.AddressType">
                  <valueCodeableConcept>
                     <coding>
                        <system value="http://terminology.hl7.org/CodeSystem/v3-AddressUse"/>
                        <code value="WP"/>
                        <display value="Werkadres"/>
                     </coding>
                  </valueCodeableConcept>
               </extension>
               <use value="work"/>
               <line value="Dorpsstraat 1">
                  <extension url="http://hl7.org/fhir/StructureDefinition/iso21090-ADXP-streetName">
                     <valueString value="Dorpsstraat"/>
                  </extension>
                  <extension url="http://hl7.org/fhir/StructureDefinition/iso21090-ADXP-houseNumber">
                     <valueString value="1"/>
                  </extension>
               </line>
               <city value="Ons Dorp"/>
               <postalCode value="1234AA"/>
            </address>
         </Organization>
      </resource>
      <request>
         <method value="POST"/>
         <url value="Organization"/>
      </request>
   </entry>
   <entry>
<<<<<<< HEAD:ada_2_fhir-r4/mp/9.2.0/beschikbaarstellen_medicatiegegevens/fhir_instance/mg-mgrp-999900389-ALL.xml
      <fullUrl value="urn:uuid:c33f03e8-6a95-11ec-0000-020000000000"/>
      <resource>
         <Organization>
            <id value="nl-core-HPrv-Org-mp9-Org-2165281100733-01236578"/>
=======
      <fullUrl value="urn:uuid:c33f03d4-6a95-11ec-0000-020000000000"/>
      <resource>
         <Organization>
>>>>>>> origin/master:ada_2_fhir-r4/mp/9.2.0/beschikbaarstellen_medicatiegegevens/fhir_instance/mg-mgrp-999901084-ALL.xml
            <meta>
               <profile value="http://nictiz.nl/fhir/StructureDefinition/nl-core-HealthcareProvider-Organization"/>
            </meta>
            <identifier>
               <system value="http://fhir.nl/fhir/NamingSystem/ura"/>
               <value value="01236578"/>
            </identifier>
            <name value="Apotheek De Gulle Gaper"/>
         </Organization>
      </resource>
      <request>
         <method value="POST"/>
         <url value="Organization"/>
      </request>
   </entry>
   <entry>
<<<<<<< HEAD:ada_2_fhir-r4/mp/9.2.0/beschikbaarstellen_medicatiegegevens/fhir_instance/mg-mgrp-999900389-ALL.xml
      <fullUrl value="urn:uuid:c33f06f4-6a95-11ec-0000-020000000000"/>
=======
      <fullUrl value="urn:uuid:c33f0230-6a95-11ec-0000-020000000000"/>
>>>>>>> origin/master:ada_2_fhir-r4/mp/9.2.0/beschikbaarstellen_medicatiegegevens/fhir_instance/mg-mgrp-999901084-ALL.xml
      <resource>
         <Medication>
            <meta>
               <profile value="http://nictiz.nl/fhir/StructureDefinition/nl-core-PharmaceuticalProduct"/>
            </meta>
            <code>
               <coding>
                  <system value="urn:oid:2.16.840.1.113883.2.4.4.10"/>
                  <code value="17469"/>
                  <display value="IBUPROFEN TABLET 600MG"/>
                  <userSelected value="true"/>
               </coding>
               <coding>
                  <system value="urn:oid:2.16.840.1.113883.2.4.4.1"/>
                  <code value="42080"/>
                  <display value="IBUPROFEN TABLET 600MG"/>
               </coding>
               <text value="IBUPROFEN TABLET 600MG"/>
            </code>
         </Medication>
      </resource>
      <request>
         <method value="POST"/>
         <url value="Medication"/>
      </request>
   </entry>
   <entry>
<<<<<<< HEAD:ada_2_fhir-r4/mp/9.2.0/beschikbaarstellen_medicatiegegevens/fhir_instance/mg-mgrp-999900389-ALL.xml
      <fullUrl value="urn:uuid:c33f0712-6a95-11ec-0000-020000000000"/>
=======
      <fullUrl value="urn:uuid:c33f024e-6a95-11ec-0000-020000000000"/>
>>>>>>> origin/master:ada_2_fhir-r4/mp/9.2.0/beschikbaarstellen_medicatiegegevens/fhir_instance/mg-mgrp-999901084-ALL.xml
      <resource>
         <Medication>
            <meta>
               <profile value="http://nictiz.nl/fhir/StructureDefinition/nl-core-PharmaceuticalProduct"/>
            </meta>
            <code>
               <coding>
                  <system value="urn:oid:2.16.840.1.113883.2.4.4.7"/>
                  <code value="641898"/>
                  <display value="IBUPROFEN PCH TABLET 600MG"/>
                  <userSelected value="true"/>
               </coding>
               <coding>
                  <system value="urn:oid:2.16.840.1.113883.2.4.4.10"/>
                  <code value="17469"/>
                  <display value="IBUPROFEN TABLET 600MG"/>
               </coding>
               <coding>
                  <system value="urn:oid:2.16.840.1.113883.2.4.4.1"/>
                  <code value="42080"/>
                  <display value="IBUPROFEN TABLET 600MG"/>
               </coding>
               <text value="IBUPROFEN PCH TABLET 600MG"/>
            </code>
         </Medication>
      </resource>
      <request>
         <method value="POST"/>
         <url value="Medication"/>
      </request>
   </entry>
   <entry>
<<<<<<< HEAD:ada_2_fhir-r4/mp/9.2.0/beschikbaarstellen_medicatiegegevens/fhir_instance/mg-mgrp-999900389-ALL.xml
      <fullUrl value="urn:uuid:c33f0730-6a95-11ec-0000-020000000000"/>
=======
      <fullUrl value="urn:uuid:c33f026c-6a95-11ec-0000-020000000000"/>
>>>>>>> origin/master:ada_2_fhir-r4/mp/9.2.0/beschikbaarstellen_medicatiegegevens/fhir_instance/mg-mgrp-999901084-ALL.xml
      <resource>
         <Medication>
            <meta>
               <profile value="http://nictiz.nl/fhir/StructureDefinition/nl-core-PharmaceuticalProduct"/>
            </meta>
            <code>
               <coding>
                  <system value="urn:oid:2.16.840.1.113883.2.4.4.10"/>
                  <code value="3379"/>
                  <display value="SENNOSIDEN A+B STROOP 2MG/ML"/>
                  <userSelected value="true"/>
               </coding>
               <coding>
                  <system value="urn:oid:2.16.840.1.113883.2.4.4.1"/>
                  <code value="10960"/>
                  <display value="SENNOSIDEN A+B STROOP 2MG/ML"/>
               </coding>
               <text value="SENNOSIDEN A+B STROOP 2MG/ML"/>
            </code>
         </Medication>
      </resource>
      <request>
         <method value="POST"/>
         <url value="Medication"/>
      </request>
   </entry>
   <entry>
<<<<<<< HEAD:ada_2_fhir-r4/mp/9.2.0/beschikbaarstellen_medicatiegegevens/fhir_instance/mg-mgrp-999900389-ALL.xml
      <fullUrl value="urn:uuid:c33f074e-6a95-11ec-0000-020000000000"/>
=======
      <fullUrl value="urn:uuid:c33f028a-6a95-11ec-0000-020000000000"/>
>>>>>>> origin/master:ada_2_fhir-r4/mp/9.2.0/beschikbaarstellen_medicatiegegevens/fhir_instance/mg-mgrp-999901084-ALL.xml
      <resource>
         <Medication>
            <meta>
               <profile value="http://nictiz.nl/fhir/StructureDefinition/nl-core-PharmaceuticalProduct"/>
            </meta>
            <code>
               <coding>
                  <system value="urn:oid:2.16.840.1.113883.2.4.4.7"/>
                  <code value="101079"/>
                  <display value="XPRAEP SIROOP 2MG/ML"/>
                  <userSelected value="true"/>
               </coding>
               <coding>
                  <system value="urn:oid:2.16.840.1.113883.2.4.4.10"/>
                  <code value="3379"/>
                  <display value="SENNOSIDEN A+B 2MG/ML"/>
               </coding>
               <coding>
                  <system value="urn:oid:2.16.840.1.113883.2.4.4.1"/>
                  <code value="10960"/>
                  <display value="SENNOSIDEN A+B 2MG/ML"/>
               </coding>
               <text value="XPRAEP SIROOP 2MG/ML"/>
            </code>
         </Medication>
      </resource>
      <request>
         <method value="POST"/>
         <url value="Medication"/>
      </request>
   </entry>
   <entry>
<<<<<<< HEAD:ada_2_fhir-r4/mp/9.2.0/beschikbaarstellen_medicatiegegevens/fhir_instance/mg-mgrp-999900389-ALL.xml
      <fullUrl value="urn:uuid:c33f076c-6a95-11ec-0000-020000000000"/>
=======
      <fullUrl value="urn:uuid:c33f02a8-6a95-11ec-0000-020000000000"/>
>>>>>>> origin/master:ada_2_fhir-r4/mp/9.2.0/beschikbaarstellen_medicatiegegevens/fhir_instance/mg-mgrp-999901084-ALL.xml
      <resource>
         <Medication>
            <meta>
               <profile value="http://nictiz.nl/fhir/StructureDefinition/nl-core-PharmaceuticalProduct"/>
            </meta>
            <code>
               <coding>
                  <system value="urn:oid:2.16.840.1.113883.2.4.4.10"/>
                  <code value="88749"/>
                  <display value="VLOEIBARE VOEDING MET O.A. VITAMINE K"/>
                  <userSelected value="true"/>
               </coding>
               <coding>
                  <system value="urn:oid:2.16.840.1.113883.2.4.4.1"/>
                  <code value="130575"/>
                  <display value="VLOEIBARE VOEDING MET O.A. VITAMINE K"/>
               </coding>
               <text value="VLOEIBARE VOEDING MET O.A. VITAMINE K"/>
            </code>
         </Medication>
      </resource>
      <request>
         <method value="POST"/>
         <url value="Medication"/>
      </request>
   </entry>
   <entry>
<<<<<<< HEAD:ada_2_fhir-r4/mp/9.2.0/beschikbaarstellen_medicatiegegevens/fhir_instance/mg-mgrp-999900389-ALL.xml
      <fullUrl value="urn:uuid:c33f078a-6a95-11ec-0000-020000000000"/>
=======
      <fullUrl value="urn:uuid:c33f02c6-6a95-11ec-0000-020000000000"/>
>>>>>>> origin/master:ada_2_fhir-r4/mp/9.2.0/beschikbaarstellen_medicatiegegevens/fhir_instance/mg-mgrp-999901084-ALL.xml
      <resource>
         <Medication>
            <meta>
               <profile value="http://nictiz.nl/fhir/StructureDefinition/nl-core-PharmaceuticalProduct"/>
            </meta>
            <code>
               <coding>
                  <system value="urn:oid:2.16.840.1.113883.2.4.4.7"/>
                  <code value="690090"/>
                  <display value="NUTRIDRINK BANAANSMAAK"/>
                  <userSelected value="true"/>
               </coding>
               <coding>
                  <system value="urn:oid:2.16.840.1.113883.2.4.4.10"/>
                  <code value="88749"/>
                  <display value="VLOEIBARE VOEDING MET O.A. VITAMINE K"/>
               </coding>
               <coding>
                  <system value="urn:oid:2.16.840.1.113883.2.4.4.1"/>
                  <code value="130575"/>
                  <display value="VLOEIBARE VOEDING MET O.A. VITAMINE K"/>
               </coding>
               <text value="NUTRIDRINK BANAANSMAAK"/>
            </code>
         </Medication>
      </resource>
      <request>
         <method value="POST"/>
         <url value="Medication"/>
      </request>
   </entry>
   <entry>
<<<<<<< HEAD:ada_2_fhir-r4/mp/9.2.0/beschikbaarstellen_medicatiegegevens/fhir_instance/mg-mgrp-999900389-ALL.xml
      <fullUrl value="urn:uuid:c33f07a8-6a95-11ec-0000-020000000000"/>
=======
      <fullUrl value="urn:uuid:c33f02e4-6a95-11ec-0000-020000000000"/>
>>>>>>> origin/master:ada_2_fhir-r4/mp/9.2.0/beschikbaarstellen_medicatiegegevens/fhir_instance/mg-mgrp-999901084-ALL.xml
      <resource>
         <Medication>
            <meta>
               <profile value="http://nictiz.nl/fhir/StructureDefinition/nl-core-PharmaceuticalProduct"/>
            </meta>
            <code>
               <coding>
                  <system value="urn:oid:2.16.840.1.113883.2.4.4.10"/>
                  <code value="3956"/>
                  <display value="ACETYLSALICYLZUUR TABLET 100MG"/>
                  <userSelected value="true"/>
               </coding>
               <coding>
                  <system value="urn:oid:2.16.840.1.113883.2.4.4.1"/>
                  <code value="12548"/>
                  <display value="ACETYLSALICYLZUUR TABLET 100MG"/>
               </coding>
               <text value="ACETYLSALICYLZUUR TABLET 100MG"/>
            </code>
         </Medication>
      </resource>
      <request>
         <method value="POST"/>
         <url value="Medication"/>
      </request>
   </entry>
   <entry>
<<<<<<< HEAD:ada_2_fhir-r4/mp/9.2.0/beschikbaarstellen_medicatiegegevens/fhir_instance/mg-mgrp-999900389-ALL.xml
      <fullUrl value="urn:uuid:c33f07c6-6a95-11ec-0000-020000000000"/>
=======
      <fullUrl value="urn:uuid:c33f0302-6a95-11ec-0000-020000000000"/>
>>>>>>> origin/master:ada_2_fhir-r4/mp/9.2.0/beschikbaarstellen_medicatiegegevens/fhir_instance/mg-mgrp-999901084-ALL.xml
      <resource>
         <Medication>
            <meta>
               <profile value="http://nictiz.nl/fhir/StructureDefinition/nl-core-PharmaceuticalProduct"/>
            </meta>
            <code>
               <coding>
                  <system value="urn:oid:2.16.840.1.113883.2.4.4.7"/>
                  <code value="202681"/>
                  <display value="ASPIRINE TABLET 100MG"/>
                  <userSelected value="true"/>
               </coding>
               <coding>
                  <system value="urn:oid:2.16.840.1.113883.2.4.4.10"/>
                  <code value="3956"/>
                  <display value="ACETYLSALICYLZUUR TABLET 100MG"/>
               </coding>
               <coding>
                  <system value="urn:oid:2.16.840.1.113883.2.4.4.1"/>
                  <code value="12548"/>
                  <display value="ACETYLSALICYLZUUR TABLET 100MG"/>
               </coding>
               <text value="ASPIRINE TABLET 100MG"/>
            </code>
         </Medication>
      </resource>
      <request>
         <method value="POST"/>
         <url value="Medication"/>
      </request>
   </entry>
   <entry>
<<<<<<< HEAD:ada_2_fhir-r4/mp/9.2.0/beschikbaarstellen_medicatiegegevens/fhir_instance/mg-mgrp-999900389-ALL.xml
      <fullUrl value="urn:uuid:c33f07e4-6a95-11ec-0000-020000000000"/>
=======
      <fullUrl value="urn:uuid:c33f0320-6a95-11ec-0000-020000000000"/>
>>>>>>> origin/master:ada_2_fhir-r4/mp/9.2.0/beschikbaarstellen_medicatiegegevens/fhir_instance/mg-mgrp-999901084-ALL.xml
      <resource>
         <Medication>
            <meta>
               <profile value="http://nictiz.nl/fhir/StructureDefinition/nl-core-PharmaceuticalProduct"/>
            </meta>
            <code>
               <coding>
                  <system value="urn:oid:2.16.840.1.113883.2.4.4.10"/>
                  <code value="67903"/>
                  <display value="PARACETAMOL 500MG TABLET"/>
                  <userSelected value="true"/>
               </coding>
               <coding>
                  <system value="urn:oid:2.16.840.1.113883.2.4.4.1"/>
                  <code value="2194"/>
                  <display value="PARACETAMOL 500MG TABLET"/>
               </coding>
               <text value="PARACETAMOL 500MG TABLET"/>
            </code>
         </Medication>
      </resource>
      <request>
         <method value="POST"/>
         <url value="Medication"/>
      </request>
   </entry>
   <entry>
<<<<<<< HEAD:ada_2_fhir-r4/mp/9.2.0/beschikbaarstellen_medicatiegegevens/fhir_instance/mg-mgrp-999900389-ALL.xml
      <fullUrl value="urn:uuid:c33f0802-6a95-11ec-0000-020000000000"/>
=======
      <fullUrl value="urn:uuid:c33f033e-6a95-11ec-0000-020000000000"/>
>>>>>>> origin/master:ada_2_fhir-r4/mp/9.2.0/beschikbaarstellen_medicatiegegevens/fhir_instance/mg-mgrp-999901084-ALL.xml
      <resource>
         <Medication>
            <meta>
               <profile value="http://nictiz.nl/fhir/StructureDefinition/nl-core-PharmaceuticalProduct"/>
            </meta>
            <code>
               <coding>
                  <system value="urn:oid:2.16.840.1.113883.2.4.4.7"/>
                  <code value="665800"/>
                  <display value="PARACETAMOL SANDOZ TABLET 500MG"/>
                  <userSelected value="true"/>
               </coding>
               <coding>
                  <system value="urn:oid:2.16.840.1.113883.2.4.4.10"/>
                  <code value="67903"/>
                  <display value="PARACETAMOL 500MG TABLET"/>
               </coding>
               <coding>
                  <system value="urn:oid:2.16.840.1.113883.2.4.4.1"/>
                  <code value="2194"/>
                  <display value="PARACETAMOL 500MG TABLET"/>
               </coding>
               <text value="PARACETAMOL SANDOZ TABLET 500MG"/>
            </code>
         </Medication>
      </resource>
      <request>
         <method value="POST"/>
         <url value="Medication"/>
      </request>
   </entry>
   <entry>
<<<<<<< HEAD:ada_2_fhir-r4/mp/9.2.0/beschikbaarstellen_medicatiegegevens/fhir_instance/mg-mgrp-999900389-ALL.xml
      <fullUrl value="urn:uuid:c33f0820-6a95-11ec-0000-020000000000"/>
=======
      <fullUrl value="urn:uuid:c33f035c-6a95-11ec-0000-020000000000"/>
>>>>>>> origin/master:ada_2_fhir-r4/mp/9.2.0/beschikbaarstellen_medicatiegegevens/fhir_instance/mg-mgrp-999901084-ALL.xml
      <resource>
         <Medication>
            <meta>
               <profile value="http://nictiz.nl/fhir/StructureDefinition/nl-core-PharmaceuticalProduct"/>
            </meta>
            <code>
               <coding>
                  <system value="urn:oid:2.16.840.1.113883.2.4.4.10"/>
                  <code value="353"/>
                  <display value="OXAZEPAM TABLET 10MG"/>
                  <userSelected value="true"/>
               </coding>
               <coding>
                  <system value="urn:oid:2.16.840.1.113883.2.4.4.1"/>
                  <code value="1023"/>
                  <display value="OXAZEPAM TABLET 10MG"/>
               </coding>
               <text value="OXAZEPAM TABLET 10MG"/>
            </code>
         </Medication>
      </resource>
      <request>
         <method value="POST"/>
         <url value="Medication"/>
      </request>
   </entry>
   <entry>
<<<<<<< HEAD:ada_2_fhir-r4/mp/9.2.0/beschikbaarstellen_medicatiegegevens/fhir_instance/mg-mgrp-999900389-ALL.xml
      <fullUrl value="urn:uuid:c33f083e-6a95-11ec-0000-020000000000"/>
=======
      <fullUrl value="urn:uuid:c33f037a-6a95-11ec-0000-020000000000"/>
>>>>>>> origin/master:ada_2_fhir-r4/mp/9.2.0/beschikbaarstellen_medicatiegegevens/fhir_instance/mg-mgrp-999901084-ALL.xml
      <resource>
         <Medication>
            <meta>
               <profile value="http://nictiz.nl/fhir/StructureDefinition/nl-core-PharmaceuticalProduct"/>
            </meta>
            <code>
               <coding>
                  <system value="urn:oid:2.16.840.1.113883.2.4.4.7"/>
                  <code value="613401"/>
                  <display value="OXAZEPAM ACTAVIS TABLET 10MG"/>
                  <userSelected value="true"/>
               </coding>
               <coding>
                  <system value="urn:oid:2.16.840.1.113883.2.4.4.10"/>
                  <code value="353"/>
                  <display value="OXAZEPAM TABLET 10MG"/>
               </coding>
               <coding>
                  <system value="urn:oid:2.16.840.1.113883.2.4.4.1"/>
                  <code value="1023"/>
                  <display value="OXAZEPAM TABLET 10MG"/>
               </coding>
               <text value="OXAZEPAM ACTAVIS TABLET 10MG"/>
            </code>
         </Medication>
      </resource>
      <request>
         <method value="POST"/>
         <url value="Medication"/>
      </request>
   </entry>
</Bundle>
