<Bundle xmlns="http://hl7.org/fhir">
   <id value="mg-mgrp-999900481-ALL"/>
   <type value="transaction"/>
   <entry>
<<<<<<< HEAD:ada_2_fhir-r4/mp/9.2.0/beschikbaarstellen_medicatiegegevens/fhir_instance/mg-mgrp-999900420-ALL.xml
      <fullUrl value="urn:uuid:c33f0776-6a95-11ec-0000-020000000000"/>
      <resource>
         <MedicationRequest>
            <id value="9-21684011138832431199977160760051-MBH200aanvullendeinstructieMA"/>
=======
      <fullUrl value="urn:uuid:c33f148c-6a95-11ec-0000-020000000000"/>
      <resource>
         <MedicationRequest>
>>>>>>> origin/master:ada_2_fhir-r4/mp/9.2.0/beschikbaarstellen_medicatiegegevens/fhir_instance/mg-mgrp-999900481-ALL.xml
            <meta>
               <profile value="http://nictiz.nl/fhir/StructureDefinition/mp-MedicationAgreement"/>
            </meta>
            <extension url="http://nictiz.nl/fhir/StructureDefinition/ext-RenderedDosageInstruction">
               <valueString value="Vanaf T - 4 maanden, tot en met T + 8 maanden, 1 maal per dag 1 stuk, Bij het eten innemen, Oraal"/>
            </extension>
            <extension url="http://nictiz.nl/fhir/StructureDefinition/ext-TimeInterval.Period">
               <valuePeriod>
                  <start value="${DATE, T, M, -4}T00:00:00+02:00"/>
                  <end value="${DATE, T, M, +8}T23:59:59+02:00"/>
               </valuePeriod>
            </extension>
            <extension url="http://nictiz.nl/fhir/StructureDefinition/ext-PharmaceuticalTreatment.Identifier">
               <valueIdentifier>
                  <system value="urn:oid:2.16.840.1.113883.2.4.3.11.999.77.1.1"/>
                  <value value="MBH_200_aanvullendeinstructie"/>
               </valueIdentifier>
            </extension>
            <identifier>
               <system value="urn:oid:2.16.840.1.113883.2.4.3.11.999.77.16076005.1"/>
               <value value="MBH_200_aanvullendeinstructie_MA"/>
            </identifier>
            <status value="unknown"/>
            <intent value="order"/>
            <category>
               <coding>
                  <system value="http://snomed.info/sct"/>
                  <code value="33633005"/>
                  <display value="voorschrijven van geneesmiddel"/>
               </coding>
            </category>
            <medicationReference>
<<<<<<< HEAD:ada_2_fhir-r4/mp/9.2.0/beschikbaarstellen_medicatiegegevens/fhir_instance/mg-mgrp-999900420-ALL.xml
               <reference value="urn:uuid:c33f0938-6a95-11ec-0000-020000000000"/>
=======
               <reference value="urn:uuid:c33f164e-6a95-11ec-0000-020000000000"/>
>>>>>>> origin/master:ada_2_fhir-r4/mp/9.2.0/beschikbaarstellen_medicatiegegevens/fhir_instance/mg-mgrp-999900481-ALL.xml
               <type value="Medication"/>
               <display value="Acetylsalicylzuur tabletmsr 100mg"/>
            </medicationReference>
            <subject>
<<<<<<< HEAD:ada_2_fhir-r4/mp/9.2.0/beschikbaarstellen_medicatiegegevens/fhir_instance/mg-mgrp-999900420-ALL.xml
               <reference value="urn:uuid:c33f0686-6a95-11ec-0000-020000000000"/>
=======
               <reference value="urn:uuid:c33f1432-6a95-11ec-0000-020000000000"/>
>>>>>>> origin/master:ada_2_fhir-r4/mp/9.2.0/beschikbaarstellen_medicatiegegevens/fhir_instance/mg-mgrp-999900481-ALL.xml
               <type value="Patient"/>
               <display value="Patient, D. XXX_Dixhoorn"/>
            </subject>
            <authoredOn value="${DATE, T, M, -4}T08:00:00+02:00"/>
            <requester>
<<<<<<< HEAD:ada_2_fhir-r4/mp/9.2.0/beschikbaarstellen_medicatiegegevens/fhir_instance/mg-mgrp-999900420-ALL.xml
               <reference value="urn:uuid:c33f06ae-6a95-11ec-0000-020000000000"/>
=======
               <reference value="urn:uuid:c33f1450-6a95-11ec-0000-020000000000"/>
>>>>>>> origin/master:ada_2_fhir-r4/mp/9.2.0/beschikbaarstellen_medicatiegegevens/fhir_instance/mg-mgrp-999900481-ALL.xml
               <type value="PractitionerRole"/>
               <display value="Healthcare professional (role), Bertine van Doorn, Huisartsen, niet nader gespecificeerd, Huisartsenpraktijk Pulver &amp; Partners"/>
            </requester>
            <dosageInstruction>
               <additionalInstruction>
                  <coding>
                     <system value="http://terminology.hl7.org/CodeSystem/v3-NullFlavor"/>
                     <code value="OTH"/>
                     <display value="overig"/>
                  </coding>
                  <text value="Bij het eten innemen"/>
               </additionalInstruction>
               <timing>
                  <repeat>
                     <frequency value="1"/>
                     <period value="1"/>
                     <periodUnit value="d"/>
                  </repeat>
               </timing>
               <route>
                  <coding>
                     <system value="urn:oid:2.16.840.1.113883.2.4.4.9"/>
                     <code value="9"/>
                     <display value="Oraal"/>
                  </coding>
               </route>
               <doseAndRate>
                  <doseQuantity>
                     <extension url="http://hl7.org/fhir/StructureDefinition/iso21090-PQ-translation">
                        <valueQuantity>
                           <value value="1"/>
                           <unit value="stuk"/>
                           <system value="urn:oid:2.16.840.1.113883.2.4.4.1.900.2"/>
                           <code value="245"/>
                        </valueQuantity>
                     </extension>
                     <value value="1"/>
                     <unit value="stuk"/>
                     <system value="http://unitsofmeasure.org"/>
                     <code value="1"/>
                  </doseQuantity>
               </doseAndRate>
            </dosageInstruction>
         </MedicationRequest>
      </resource>
      <request>
         <method value="POST"/>
         <url value="MedicationRequest"/>
      </request>
   </entry>
   <entry>
<<<<<<< HEAD:ada_2_fhir-r4/mp/9.2.0/beschikbaarstellen_medicatiegegevens/fhir_instance/mg-mgrp-999900420-ALL.xml
      <fullUrl value="urn:uuid:c33f0794-6a95-11ec-0000-020000000000"/>
      <resource>
         <MedicationRequest>
            <id value="-MedAgr-mp9-21684011138832431199977160760051-MBH200toelichtingMA"/>
=======
      <fullUrl value="urn:uuid:c33f14aa-6a95-11ec-0000-020000000000"/>
      <resource>
         <MedicationRequest>
>>>>>>> origin/master:ada_2_fhir-r4/mp/9.2.0/beschikbaarstellen_medicatiegegevens/fhir_instance/mg-mgrp-999900481-ALL.xml
            <meta>
               <profile value="http://nictiz.nl/fhir/StructureDefinition/mp-MedicationAgreement"/>
            </meta>
            <extension url="http://nictiz.nl/fhir/StructureDefinition/ext-RenderedDosageInstruction">
               <valueString value="Vanaf T - 21 dagen, 1 maal per dag 1 stuk, Oraal"/>
            </extension>
            <extension url="http://nictiz.nl/fhir/StructureDefinition/ext-TimeInterval.Period">
               <valuePeriod>
                  <start value="${DATE, T, D, -21}T00:00:00+02:00"/>
               </valuePeriod>
            </extension>
            <extension url="http://nictiz.nl/fhir/StructureDefinition/ext-PharmaceuticalTreatment.Identifier">
               <valueIdentifier>
                  <system value="urn:oid:2.16.840.1.113883.2.4.3.11.999.77.1.1"/>
                  <value value="MBH_200_toelichting"/>
               </valueIdentifier>
            </extension>
            <identifier>
               <system value="urn:oid:2.16.840.1.113883.2.4.3.11.999.77.16076005.1"/>
               <value value="MBH_200_toelichting_MA"/>
            </identifier>
            <status value="unknown"/>
            <intent value="order"/>
            <category>
               <coding>
                  <system value="http://snomed.info/sct"/>
                  <code value="33633005"/>
                  <display value="voorschrijven van geneesmiddel"/>
               </coding>
            </category>
            <medicationReference>
<<<<<<< HEAD:ada_2_fhir-r4/mp/9.2.0/beschikbaarstellen_medicatiegegevens/fhir_instance/mg-mgrp-999900420-ALL.xml
               <reference value="urn:uuid:c33f0974-6a95-11ec-0000-020000000000"/>
=======
               <reference value="urn:uuid:c33f168a-6a95-11ec-0000-020000000000"/>
>>>>>>> origin/master:ada_2_fhir-r4/mp/9.2.0/beschikbaarstellen_medicatiegegevens/fhir_instance/mg-mgrp-999900481-ALL.xml
               <type value="Medication"/>
               <display value="FUROSEMIDE 40MG TABLET"/>
            </medicationReference>
            <subject>
<<<<<<< HEAD:ada_2_fhir-r4/mp/9.2.0/beschikbaarstellen_medicatiegegevens/fhir_instance/mg-mgrp-999900420-ALL.xml
               <reference value="urn:uuid:c33f0686-6a95-11ec-0000-020000000000"/>
=======
               <reference value="urn:uuid:c33f1432-6a95-11ec-0000-020000000000"/>
>>>>>>> origin/master:ada_2_fhir-r4/mp/9.2.0/beschikbaarstellen_medicatiegegevens/fhir_instance/mg-mgrp-999900481-ALL.xml
               <type value="Patient"/>
               <display value="Patient, D. XXX_Dixhoorn"/>
            </subject>
            <authoredOn value="${DATE, T, D, -21}T08:02:00+02:00"/>
            <requester>
<<<<<<< HEAD:ada_2_fhir-r4/mp/9.2.0/beschikbaarstellen_medicatiegegevens/fhir_instance/mg-mgrp-999900420-ALL.xml
               <reference value="urn:uuid:c33f06ae-6a95-11ec-0000-020000000000"/>
=======
               <reference value="urn:uuid:c33f1450-6a95-11ec-0000-020000000000"/>
>>>>>>> origin/master:ada_2_fhir-r4/mp/9.2.0/beschikbaarstellen_medicatiegegevens/fhir_instance/mg-mgrp-999900481-ALL.xml
               <type value="PractitionerRole"/>
               <display value="Healthcare professional (role), Bertine van Doorn, Huisartsen, niet nader gespecificeerd, Huisartsenpraktijk Pulver &amp; Partners"/>
            </requester>
            <note>
               <text value="In overleg met specialist"/>
            </note>
            <dosageInstruction>
               <timing>
                  <repeat>
                     <frequency value="1"/>
                     <period value="1"/>
                     <periodUnit value="d"/>
                  </repeat>
               </timing>
               <route>
                  <coding>
                     <system value="urn:oid:2.16.840.1.113883.2.4.4.9"/>
                     <code value="9"/>
                     <display value="Oraal"/>
                  </coding>
               </route>
               <doseAndRate>
                  <doseQuantity>
                     <extension url="http://hl7.org/fhir/StructureDefinition/iso21090-PQ-translation">
                        <valueQuantity>
                           <value value="1"/>
                           <unit value="stuk"/>
                           <system value="urn:oid:2.16.840.1.113883.2.4.4.1.900.2"/>
                           <code value="245"/>
                        </valueQuantity>
                     </extension>
                     <value value="1"/>
                     <unit value="stuk"/>
                     <system value="http://unitsofmeasure.org"/>
                     <code value="1"/>
                  </doseQuantity>
               </doseAndRate>
            </dosageInstruction>
         </MedicationRequest>
      </resource>
      <request>
         <method value="POST"/>
         <url value="MedicationRequest"/>
      </request>
   </entry>
   <entry>
<<<<<<< HEAD:ada_2_fhir-r4/mp/9.2.0/beschikbaarstellen_medicatiegegevens/fhir_instance/mg-mgrp-999900420-ALL.xml
      <fullUrl value="urn:uuid:c33f07b2-6a95-11ec-0000-020000000000"/>
      <resource>
         <MedicationRequest>
            <id value="9-21684011138832431199977160760051-MBH200redenvanvoorschrijvenMA"/>
=======
      <fullUrl value="urn:uuid:c33f14c8-6a95-11ec-0000-020000000000"/>
      <resource>
         <MedicationRequest>
>>>>>>> origin/master:ada_2_fhir-r4/mp/9.2.0/beschikbaarstellen_medicatiegegevens/fhir_instance/mg-mgrp-999900481-ALL.xml
            <meta>
               <profile value="http://nictiz.nl/fhir/StructureDefinition/mp-MedicationAgreement"/>
            </meta>
            <extension url="http://nictiz.nl/fhir/StructureDefinition/ext-RenderedDosageInstruction">
               <valueString value="Vanaf T - 13 dagen, tot en met T + 14 dagen, 1 maal per week 5 stuks, Oraal"/>
            </extension>
            <extension url="http://nictiz.nl/fhir/StructureDefinition/ext-TimeInterval.Period">
               <valuePeriod>
                  <start value="${DATE, T, D, -13}T00:00:00+02:00"/>
                  <end value="${DATE, T, D, +14}T23:59:59+02:00"/>
               </valuePeriod>
            </extension>
            <extension url="http://nictiz.nl/fhir/StructureDefinition/ext-PharmaceuticalTreatment.Identifier">
               <valueIdentifier>
                  <system value="urn:oid:2.16.840.1.113883.2.4.3.11.999.77.1.1"/>
                  <value value="MBH_200_redenvanvoorschrijven"/>
               </valueIdentifier>
            </extension>
            <identifier>
               <system value="urn:oid:2.16.840.1.113883.2.4.3.11.999.77.16076005.1"/>
               <value value="MBH_200_redenvanvoorschrijven_MA"/>
            </identifier>
            <status value="unknown"/>
            <intent value="order"/>
            <category>
               <coding>
                  <system value="http://snomed.info/sct"/>
                  <code value="33633005"/>
                  <display value="voorschrijven van geneesmiddel"/>
               </coding>
            </category>
            <medicationReference>
<<<<<<< HEAD:ada_2_fhir-r4/mp/9.2.0/beschikbaarstellen_medicatiegegevens/fhir_instance/mg-mgrp-999900420-ALL.xml
               <reference value="urn:uuid:c33f09b0-6a95-11ec-0000-020000000000"/>
=======
               <reference value="urn:uuid:c33f16c6-6a95-11ec-0000-020000000000"/>
>>>>>>> origin/master:ada_2_fhir-r4/mp/9.2.0/beschikbaarstellen_medicatiegegevens/fhir_instance/mg-mgrp-999900481-ALL.xml
               <type value="Medication"/>
               <display value="Methotrexaat tablet 2,5mg"/>
            </medicationReference>
            <subject>
<<<<<<< HEAD:ada_2_fhir-r4/mp/9.2.0/beschikbaarstellen_medicatiegegevens/fhir_instance/mg-mgrp-999900420-ALL.xml
               <reference value="urn:uuid:c33f0686-6a95-11ec-0000-020000000000"/>
=======
               <reference value="urn:uuid:c33f1432-6a95-11ec-0000-020000000000"/>
>>>>>>> origin/master:ada_2_fhir-r4/mp/9.2.0/beschikbaarstellen_medicatiegegevens/fhir_instance/mg-mgrp-999900481-ALL.xml
               <type value="Patient"/>
               <display value="Patient, D. XXX_Dixhoorn"/>
            </subject>
            <authoredOn value="${DATE, T, D, -13}T08:05:00+02:00"/>
            <requester>
<<<<<<< HEAD:ada_2_fhir-r4/mp/9.2.0/beschikbaarstellen_medicatiegegevens/fhir_instance/mg-mgrp-999900420-ALL.xml
               <reference value="urn:uuid:c33f06ae-6a95-11ec-0000-020000000000"/>
=======
               <reference value="urn:uuid:c33f1450-6a95-11ec-0000-020000000000"/>
>>>>>>> origin/master:ada_2_fhir-r4/mp/9.2.0/beschikbaarstellen_medicatiegegevens/fhir_instance/mg-mgrp-999900481-ALL.xml
               <type value="PractitionerRole"/>
               <display value="Healthcare professional (role), Bertine van Doorn, Huisartsen, niet nader gespecificeerd, Huisartsenpraktijk Pulver &amp; Partners"/>
            </requester>
            <reasonReference>
<<<<<<< HEAD:ada_2_fhir-r4/mp/9.2.0/beschikbaarstellen_medicatiegegevens/fhir_instance/mg-mgrp-999900420-ALL.xml
               <reference value="urn:uuid:c33f091a-6a95-11ec-0000-020000000000"/>
=======
               <reference value="urn:uuid:c33f1630-6a95-11ec-0000-020000000000"/>
>>>>>>> origin/master:ada_2_fhir-r4/mp/9.2.0/beschikbaarstellen_medicatiegegevens/fhir_instance/mg-mgrp-999900481-ALL.xml
               <type value="Condition"/>
               <display value="Problem"/>
            </reasonReference>
            <dosageInstruction>
               <timing>
                  <repeat>
                     <frequency value="1"/>
                     <period value="1"/>
                     <periodUnit value="wk"/>
                  </repeat>
               </timing>
               <route>
                  <coding>
                     <system value="urn:oid:2.16.840.1.113883.2.4.4.9"/>
                     <code value="9"/>
                     <display value="Oraal"/>
                  </coding>
               </route>
               <doseAndRate>
                  <doseQuantity>
                     <extension url="http://hl7.org/fhir/StructureDefinition/iso21090-PQ-translation">
                        <valueQuantity>
                           <value value="5"/>
                           <unit value="stuk"/>
                           <system value="urn:oid:2.16.840.1.113883.2.4.4.1.900.2"/>
                           <code value="245"/>
                        </valueQuantity>
                     </extension>
                     <value value="5"/>
                     <unit value="stuk"/>
                     <system value="http://unitsofmeasure.org"/>
                     <code value="1"/>
                  </doseQuantity>
               </doseAndRate>
            </dosageInstruction>
         </MedicationRequest>
      </resource>
      <request>
         <method value="POST"/>
         <url value="MedicationRequest"/>
      </request>
   </entry>
   <entry>
<<<<<<< HEAD:ada_2_fhir-r4/mp/9.2.0/beschikbaarstellen_medicatiegegevens/fhir_instance/mg-mgrp-999900420-ALL.xml
      <fullUrl value="urn:uuid:c33f07d0-6a95-11ec-0000-020000000000"/>
      <resource>
         <MedicationRequest>
            <id value="mp-MedAgr-mp9-c33f1074-6a95-11ec-0000-020000000000"/>
=======
      <fullUrl value="urn:uuid:c33f14e6-6a95-11ec-0000-020000000000"/>
      <resource>
         <MedicationRequest>
>>>>>>> origin/master:ada_2_fhir-r4/mp/9.2.0/beschikbaarstellen_medicatiegegevens/fhir_instance/mg-mgrp-999900481-ALL.xml
            <meta>
               <profile value="http://nictiz.nl/fhir/StructureDefinition/mp-MedicationAgreement"/>
            </meta>
            <extension url="http://nictiz.nl/fhir/StructureDefinition/ext-MedicationAgreement.MedicationAgreementAdditionalInformation">
               <valueCodeableConcept>
                  <coding>
                     <system value="urn:oid:2.16.840.1.113883.2.4.3.11.60.20.77.5.2.14.2050"/>
                     <code value="1"/>
                     <display value="Bewust hoge dosering"/>
                  </coding>
               </valueCodeableConcept>
            </extension>
            <extension url="http://nictiz.nl/fhir/StructureDefinition/ext-RenderedDosageInstruction">
               <valueString value="Vanaf T - 4 dagen, tot en met T + 5 dagen, 3 maal per dag 1 stuk, Oraal"/>
            </extension>
            <extension url="http://nictiz.nl/fhir/StructureDefinition/ext-TimeInterval.Period">
               <valuePeriod>
                  <start value="${DATE, T, D, -4}T00:00:00+02:00"/>
                  <end value="${DATE, T, D, +5}T23:59:59+02:00"/>
               </valuePeriod>
            </extension>
            <extension url="http://nictiz.nl/fhir/StructureDefinition/ext-PharmaceuticalTreatment.Identifier">
               <valueIdentifier>
                  <system value="urn:oid:2.16.840.1.113883.2.4.3.11.999.77.1.1"/>
                  <value value="MBH_200_aanvullendeinformatiewensen"/>
               </valueIdentifier>
            </extension>
            <identifier>
               <system value="urn:oid:2.16.840.1.113883.2.4.3.11.999.77.16076005.1"/>
               <value value="MBH_200_aanvullendeinformatiewensen_MA"/>
            </identifier>
            <status value="unknown"/>
            <intent value="order"/>
            <category>
               <coding>
                  <system value="http://snomed.info/sct"/>
                  <code value="33633005"/>
                  <display value="voorschrijven van geneesmiddel"/>
               </coding>
            </category>
            <medicationReference>
<<<<<<< HEAD:ada_2_fhir-r4/mp/9.2.0/beschikbaarstellen_medicatiegegevens/fhir_instance/mg-mgrp-999900420-ALL.xml
               <reference value="urn:uuid:c33f09ec-6a95-11ec-0000-020000000000"/>
=======
               <reference value="urn:uuid:c33f1702-6a95-11ec-0000-020000000000"/>
>>>>>>> origin/master:ada_2_fhir-r4/mp/9.2.0/beschikbaarstellen_medicatiegegevens/fhir_instance/mg-mgrp-999900481-ALL.xml
               <type value="Medication"/>
               <display value="FENETICILLINE CAPSULE 500MG"/>
            </medicationReference>
            <subject>
<<<<<<< HEAD:ada_2_fhir-r4/mp/9.2.0/beschikbaarstellen_medicatiegegevens/fhir_instance/mg-mgrp-999900420-ALL.xml
               <reference value="urn:uuid:c33f0686-6a95-11ec-0000-020000000000"/>
=======
               <reference value="urn:uuid:c33f1432-6a95-11ec-0000-020000000000"/>
>>>>>>> origin/master:ada_2_fhir-r4/mp/9.2.0/beschikbaarstellen_medicatiegegevens/fhir_instance/mg-mgrp-999900481-ALL.xml
               <type value="Patient"/>
               <display value="Patient, D. XXX_Dixhoorn"/>
            </subject>
            <authoredOn value="${DATE, T, D, -5}T08:06:00+02:00"/>
            <requester>
<<<<<<< HEAD:ada_2_fhir-r4/mp/9.2.0/beschikbaarstellen_medicatiegegevens/fhir_instance/mg-mgrp-999900420-ALL.xml
               <reference value="urn:uuid:c33f06ae-6a95-11ec-0000-020000000000"/>
=======
               <reference value="urn:uuid:c33f1450-6a95-11ec-0000-020000000000"/>
>>>>>>> origin/master:ada_2_fhir-r4/mp/9.2.0/beschikbaarstellen_medicatiegegevens/fhir_instance/mg-mgrp-999900481-ALL.xml
               <type value="PractitionerRole"/>
               <display value="Healthcare professional (role), Bertine van Doorn, Huisartsen, niet nader gespecificeerd, Huisartsenpraktijk Pulver &amp; Partners"/>
            </requester>
            <dosageInstruction>
               <timing>
                  <repeat>
                     <frequency value="3"/>
                     <period value="1"/>
                     <periodUnit value="d"/>
                  </repeat>
               </timing>
               <route>
                  <coding>
                     <system value="urn:oid:2.16.840.1.113883.2.4.4.9"/>
                     <code value="9"/>
                     <display value="Oraal"/>
                  </coding>
               </route>
               <doseAndRate>
                  <doseQuantity>
                     <extension url="http://hl7.org/fhir/StructureDefinition/iso21090-PQ-translation">
                        <valueQuantity>
                           <value value="1"/>
                           <unit value="stuk"/>
                           <system value="urn:oid:2.16.840.1.113883.2.4.4.1.900.2"/>
                           <code value="245"/>
                        </valueQuantity>
                     </extension>
                     <value value="1"/>
                     <unit value="stuk"/>
                     <system value="http://unitsofmeasure.org"/>
                     <code value="1"/>
                  </doseQuantity>
               </doseAndRate>
            </dosageInstruction>
         </MedicationRequest>
      </resource>
      <request>
         <method value="POST"/>
         <url value="MedicationRequest"/>
      </request>
   </entry>
   <entry>
<<<<<<< HEAD:ada_2_fhir-r4/mp/9.2.0/beschikbaarstellen_medicatiegegevens/fhir_instance/mg-mgrp-999900420-ALL.xml
      <fullUrl value="urn:uuid:c33f07ee-6a95-11ec-0000-020000000000"/>
      <resource>
         <MedicationRequest>
            <id value="dAgr-mp9-21684011138832431199977160760051-MBH200ToedieningswegMA"/>
=======
      <fullUrl value="urn:uuid:c33f1504-6a95-11ec-0000-020000000000"/>
      <resource>
         <MedicationRequest>
>>>>>>> origin/master:ada_2_fhir-r4/mp/9.2.0/beschikbaarstellen_medicatiegegevens/fhir_instance/mg-mgrp-999900481-ALL.xml
            <meta>
               <profile value="http://nictiz.nl/fhir/StructureDefinition/mp-MedicationAgreement"/>
            </meta>
            <extension url="http://nictiz.nl/fhir/StructureDefinition/ext-MedicationAgreement.MedicationAgreementAdditionalInformation">
               <valueCodeableConcept>
                  <coding>
                     <system value="urn:oid:2.16.840.1.113883.2.4.3.11.60.20.77.5.2.14.2050"/>
                     <code value="3"/>
                     <display value="Bewust afwijkende toedieningsweg"/>
                  </coding>
               </valueCodeableConcept>
            </extension>
            <extension url="http://nictiz.nl/fhir/StructureDefinition/ext-RenderedDosageInstruction">
               <valueString value="Vanaf T - 5 dagen, tot en met T + 2 dagen, 2 maal per dag 1 druppel, In het rechter oog, oculair"/>
            </extension>
            <extension url="http://nictiz.nl/fhir/StructureDefinition/ext-TimeInterval.Period">
               <valuePeriod>
                  <start value="${DATE, T, D, -5}T00:00:00+02:00"/>
                  <end value="${DATE, T, D, +2}T23:59:59+02:00"/>
               </valuePeriod>
            </extension>
            <extension url="http://nictiz.nl/fhir/StructureDefinition/ext-PharmaceuticalTreatment.Identifier">
               <valueIdentifier>
                  <system value="urn:oid:2.16.840.1.113883.2.4.3.11.999.77.1.1"/>
                  <value value="MBH_200_Toedieningsweg"/>
               </valueIdentifier>
            </extension>
            <identifier>
               <system value="urn:oid:2.16.840.1.113883.2.4.3.11.999.77.16076005.1"/>
               <value value="MBH_200_Toedieningsweg_MA"/>
            </identifier>
            <status value="unknown"/>
            <intent value="order"/>
            <category>
               <coding>
                  <system value="http://snomed.info/sct"/>
                  <code value="33633005"/>
                  <display value="voorschrijven van geneesmiddel"/>
               </coding>
            </category>
            <medicationReference>
<<<<<<< HEAD:ada_2_fhir-r4/mp/9.2.0/beschikbaarstellen_medicatiegegevens/fhir_instance/mg-mgrp-999900420-ALL.xml
               <reference value="urn:uuid:c33f0a28-6a95-11ec-0000-020000000000"/>
=======
               <reference value="urn:uuid:c33f173e-6a95-11ec-0000-020000000000"/>
>>>>>>> origin/master:ada_2_fhir-r4/mp/9.2.0/beschikbaarstellen_medicatiegegevens/fhir_instance/mg-mgrp-999900481-ALL.xml
               <type value="Medication"/>
               <display value="DEXAMETHASON/FRAMYCETINE/GRAMICIDINE OORDR"/>
            </medicationReference>
            <subject>
<<<<<<< HEAD:ada_2_fhir-r4/mp/9.2.0/beschikbaarstellen_medicatiegegevens/fhir_instance/mg-mgrp-999900420-ALL.xml
               <reference value="urn:uuid:c33f0686-6a95-11ec-0000-020000000000"/>
=======
               <reference value="urn:uuid:c33f1432-6a95-11ec-0000-020000000000"/>
>>>>>>> origin/master:ada_2_fhir-r4/mp/9.2.0/beschikbaarstellen_medicatiegegevens/fhir_instance/mg-mgrp-999900481-ALL.xml
               <type value="Patient"/>
               <display value="Patient, D. XXX_Dixhoorn"/>
            </subject>
            <authoredOn value="${DATE, T, D, -5}T08:15:00+02:00"/>
            <requester>
<<<<<<< HEAD:ada_2_fhir-r4/mp/9.2.0/beschikbaarstellen_medicatiegegevens/fhir_instance/mg-mgrp-999900420-ALL.xml
               <reference value="urn:uuid:c33f06ae-6a95-11ec-0000-020000000000"/>
=======
               <reference value="urn:uuid:c33f1450-6a95-11ec-0000-020000000000"/>
>>>>>>> origin/master:ada_2_fhir-r4/mp/9.2.0/beschikbaarstellen_medicatiegegevens/fhir_instance/mg-mgrp-999900481-ALL.xml
               <type value="PractitionerRole"/>
               <display value="Healthcare professional (role), Bertine van Doorn, Huisartsen, niet nader gespecificeerd, Huisartsenpraktijk Pulver &amp; Partners"/>
            </requester>
            <dosageInstruction>
               <additionalInstruction>
                  <coding>
                     <system value="http://terminology.hl7.org/CodeSystem/v3-NullFlavor"/>
                     <code value="OTH"/>
                     <display value="overig"/>
                  </coding>
                  <text value="In het rechter oog"/>
               </additionalInstruction>
               <timing>
                  <repeat>
                     <frequency value="2"/>
                     <period value="1"/>
                     <periodUnit value="d"/>
                  </repeat>
               </timing>
               <route>
                  <coding>
                     <system value="urn:oid:2.16.840.1.113883.2.4.4.9"/>
                     <code value="7"/>
                     <display value="oculair"/>
                  </coding>
               </route>
               <doseAndRate>
                  <doseQuantity>
                     <extension url="http://hl7.org/fhir/StructureDefinition/iso21090-PQ-translation">
                        <valueQuantity>
                           <value value="1"/>
                           <unit value="Druppel"/>
                           <system value="urn:oid:2.16.840.1.113883.2.4.4.1.900.2"/>
                           <code value="303"/>
                        </valueQuantity>
                     </extension>
                     <value value="1"/>
                     <unit value="Druppel"/>
                     <system value="http://unitsofmeasure.org"/>
                     <code value="[drp]"/>
                  </doseQuantity>
               </doseAndRate>
            </dosageInstruction>
         </MedicationRequest>
      </resource>
      <request>
         <method value="POST"/>
         <url value="MedicationRequest"/>
      </request>
   </entry>
   <entry>
<<<<<<< HEAD:ada_2_fhir-r4/mp/9.2.0/beschikbaarstellen_medicatiegegevens/fhir_instance/mg-mgrp-999900420-ALL.xml
      <fullUrl value="urn:uuid:c33f08a2-6a95-11ec-0000-020000000000"/>
      <resource>
         <MedicationRequest>
            <id value="q-mp9-21684011138832431199977527110001461081-MBH200toelichtingVV"/>
=======
      <fullUrl value="urn:uuid:c33f15b8-6a95-11ec-0000-020000000000"/>
      <resource>
         <MedicationRequest>
>>>>>>> origin/master:ada_2_fhir-r4/mp/9.2.0/beschikbaarstellen_medicatiegegevens/fhir_instance/mg-mgrp-999900481-ALL.xml
            <meta>
               <profile value="http://nictiz.nl/fhir/StructureDefinition/mp-DispenseRequest"/>
            </meta>
            <extension url="http://nictiz.nl/fhir/StructureDefinition/ext-PharmaceuticalTreatment.Identifier">
               <valueIdentifier>
                  <system value="urn:oid:2.16.840.1.113883.2.4.3.11.999.77.1.1"/>
                  <value value="MBH_200_toelichting"/>
               </valueIdentifier>
            </extension>
            <identifier>
               <system value="urn:oid:2.16.840.1.113883.2.4.3.11.999.77.52711000146108.1"/>
               <value value="MBH_200_toelichting_VV"/>
            </identifier>
            <status value="unknown"/>
            <intent value="order"/>
            <category>
               <coding>
                  <system value="http://snomed.info/sct"/>
                  <code value="52711000146108"/>
                  <display value="verstrekkingsverzoek"/>
               </coding>
            </category>
            <medicationReference>
<<<<<<< HEAD:ada_2_fhir-r4/mp/9.2.0/beschikbaarstellen_medicatiegegevens/fhir_instance/mg-mgrp-999900420-ALL.xml
               <reference value="urn:uuid:c33f0974-6a95-11ec-0000-020000000000"/>
=======
               <reference value="urn:uuid:c33f168a-6a95-11ec-0000-020000000000"/>
>>>>>>> origin/master:ada_2_fhir-r4/mp/9.2.0/beschikbaarstellen_medicatiegegevens/fhir_instance/mg-mgrp-999900481-ALL.xml
               <type value="Medication"/>
               <display value="FUROSEMIDE 40MG TABLET"/>
            </medicationReference>
            <subject>
<<<<<<< HEAD:ada_2_fhir-r4/mp/9.2.0/beschikbaarstellen_medicatiegegevens/fhir_instance/mg-mgrp-999900420-ALL.xml
               <reference value="urn:uuid:c33f0686-6a95-11ec-0000-020000000000"/>
=======
               <reference value="urn:uuid:c33f1432-6a95-11ec-0000-020000000000"/>
>>>>>>> origin/master:ada_2_fhir-r4/mp/9.2.0/beschikbaarstellen_medicatiegegevens/fhir_instance/mg-mgrp-999900481-ALL.xml
               <type value="Patient"/>
               <display value="Patient, D. XXX_Dixhoorn"/>
            </subject>
            <authoredOn value="${DATE, T, D, -21}T08:02:00+02:00"/>
            <requester>
<<<<<<< HEAD:ada_2_fhir-r4/mp/9.2.0/beschikbaarstellen_medicatiegegevens/fhir_instance/mg-mgrp-999900420-ALL.xml
               <reference value="urn:uuid:c33f06ae-6a95-11ec-0000-020000000000"/>
=======
               <reference value="urn:uuid:c33f1450-6a95-11ec-0000-020000000000"/>
>>>>>>> origin/master:ada_2_fhir-r4/mp/9.2.0/beschikbaarstellen_medicatiegegevens/fhir_instance/mg-mgrp-999900481-ALL.xml
               <type value="PractitionerRole"/>
               <display value="Healthcare professional (role), Bertine van Doorn, Huisartsen, niet nader gespecificeerd, Huisartsenpraktijk Pulver &amp; Partners"/>
            </requester>
            <performer>
<<<<<<< HEAD:ada_2_fhir-r4/mp/9.2.0/beschikbaarstellen_medicatiegegevens/fhir_instance/mg-mgrp-999900420-ALL.xml
               <reference value="urn:uuid:c33f073a-6a95-11ec-0000-020000000000"/>
=======
               <reference value="urn:uuid:c33f17b6-6a95-11ec-0000-020000000000"/>
>>>>>>> origin/master:ada_2_fhir-r4/mp/9.2.0/beschikbaarstellen_medicatiegegevens/fhir_instance/mg-mgrp-999900481-ALL.xml
               <type value="Organization"/>
               <display value="Healthcare provider (organization), Apotheek De Gulle Gaper"/>
            </performer>
            <basedOn>
               <type value="MedicationRequest"/>
               <identifier>
                  <system value="urn:oid:2.16.840.1.113883.2.4.3.11.999.77.16076005.1"/>
                  <value value="MBH_200_toelichting_MA"/>
               </identifier>
               <display value="relatie naar medicatieafspraak  met identificatie: MBH_200_toelichting_MA || 2.16.840.1.113883.2.4.3.11.999.77.16076005.1"/>
            </basedOn>
            <note>
               <text value="Extra verstrekkingsverzoek omdat patient medicatie is kwijtgeraakt"/>
            </note>
            <dispenseRequest>
               <quantity>
                  <extension url="http://hl7.org/fhir/StructureDefinition/iso21090-PQ-translation">
                     <valueQuantity>
                        <value value="30"/>
                        <unit value="stuk"/>
                        <system value="urn:oid:2.16.840.1.113883.2.4.4.1.900.2"/>
                        <code value="245"/>
                     </valueQuantity>
                  </extension>
                  <value value="30"/>
                  <unit value="stuk"/>
                  <system value="http://unitsofmeasure.org"/>
                  <code value="1"/>
               </quantity>
            </dispenseRequest>
         </MedicationRequest>
      </resource>
      <request>
         <method value="POST"/>
         <url value="MedicationRequest"/>
      </request>
   </entry>
   <entry>
<<<<<<< HEAD:ada_2_fhir-r4/mp/9.2.0/beschikbaarstellen_medicatiegegevens/fhir_instance/mg-mgrp-999900420-ALL.xml
      <fullUrl value="urn:uuid:c33f08c0-6a95-11ec-0000-020000000000"/>
      <resource>
         <MedicationRequest>
            <id value="mp-DspReq-mp9-c33f108d-6a95-11ec-0000-020000000000"/>
=======
      <fullUrl value="urn:uuid:c33f15d6-6a95-11ec-0000-020000000000"/>
      <resource>
         <MedicationRequest>
>>>>>>> origin/master:ada_2_fhir-r4/mp/9.2.0/beschikbaarstellen_medicatiegegevens/fhir_instance/mg-mgrp-999900481-ALL.xml
            <meta>
               <profile value="http://nictiz.nl/fhir/StructureDefinition/mp-DispenseRequest"/>
            </meta>
            <extension url="http://nictiz.nl/fhir/StructureDefinition/ext-DispenseRequest.AdditionalWishes">
               <valueCodeableConcept>
                  <coding>
                     <system value="urn:oid:2.16.840.1.113883.2.4.3.11.60.20.77.5.2.14.2051"/>
                     <code value="3"/>
                     <display value="Bezorgen"/>
                  </coding>
               </valueCodeableConcept>
            </extension>
            <extension url="http://nictiz.nl/fhir/StructureDefinition/ext-PharmaceuticalTreatment.Identifier">
               <valueIdentifier>
                  <system value="urn:oid:2.16.840.1.113883.2.4.3.11.999.77.1.1"/>
                  <value value="MBH_200_aanvullendeinformatiewensen"/>
               </valueIdentifier>
            </extension>
            <identifier>
               <system value="urn:oid:2.16.840.1.113883.2.4.3.11.999.77.52711000146108.1"/>
               <value value="MBH_200_aanvullendeinformatiewensen_VV"/>
            </identifier>
            <status value="unknown"/>
            <intent value="order"/>
            <category>
               <coding>
                  <system value="http://snomed.info/sct"/>
                  <code value="52711000146108"/>
                  <display value="verstrekkingsverzoek"/>
               </coding>
            </category>
            <medicationReference>
<<<<<<< HEAD:ada_2_fhir-r4/mp/9.2.0/beschikbaarstellen_medicatiegegevens/fhir_instance/mg-mgrp-999900420-ALL.xml
               <reference value="urn:uuid:c33f09ec-6a95-11ec-0000-020000000000"/>
=======
               <reference value="urn:uuid:c33f1702-6a95-11ec-0000-020000000000"/>
>>>>>>> origin/master:ada_2_fhir-r4/mp/9.2.0/beschikbaarstellen_medicatiegegevens/fhir_instance/mg-mgrp-999900481-ALL.xml
               <type value="Medication"/>
               <display value="FENETICILLINE CAPSULE 500MG"/>
            </medicationReference>
            <subject>
<<<<<<< HEAD:ada_2_fhir-r4/mp/9.2.0/beschikbaarstellen_medicatiegegevens/fhir_instance/mg-mgrp-999900420-ALL.xml
               <reference value="urn:uuid:c33f0686-6a95-11ec-0000-020000000000"/>
=======
               <reference value="urn:uuid:c33f1432-6a95-11ec-0000-020000000000"/>
>>>>>>> origin/master:ada_2_fhir-r4/mp/9.2.0/beschikbaarstellen_medicatiegegevens/fhir_instance/mg-mgrp-999900481-ALL.xml
               <type value="Patient"/>
               <display value="Patient, D. XXX_Dixhoorn"/>
            </subject>
            <authoredOn value="${DATE, T, D, -5}T08:06:00+02:00"/>
            <requester>
<<<<<<< HEAD:ada_2_fhir-r4/mp/9.2.0/beschikbaarstellen_medicatiegegevens/fhir_instance/mg-mgrp-999900420-ALL.xml
               <reference value="urn:uuid:c33f06ae-6a95-11ec-0000-020000000000"/>
=======
               <reference value="urn:uuid:c33f1450-6a95-11ec-0000-020000000000"/>
>>>>>>> origin/master:ada_2_fhir-r4/mp/9.2.0/beschikbaarstellen_medicatiegegevens/fhir_instance/mg-mgrp-999900481-ALL.xml
               <type value="PractitionerRole"/>
               <display value="Healthcare professional (role), Bertine van Doorn, Huisartsen, niet nader gespecificeerd, Huisartsenpraktijk Pulver &amp; Partners"/>
            </requester>
            <performer>
<<<<<<< HEAD:ada_2_fhir-r4/mp/9.2.0/beschikbaarstellen_medicatiegegevens/fhir_instance/mg-mgrp-999900420-ALL.xml
               <reference value="urn:uuid:c33f073a-6a95-11ec-0000-020000000000"/>
=======
               <reference value="urn:uuid:c33f17b6-6a95-11ec-0000-020000000000"/>
>>>>>>> origin/master:ada_2_fhir-r4/mp/9.2.0/beschikbaarstellen_medicatiegegevens/fhir_instance/mg-mgrp-999900481-ALL.xml
               <type value="Organization"/>
               <display value="Healthcare provider (organization), Apotheek De Gulle Gaper"/>
            </performer>
            <basedOn>
               <type value="MedicationRequest"/>
               <identifier>
                  <system value="urn:oid:2.16.840.1.113883.2.4.3.11.999.77.16076005.1"/>
                  <value value="MBH_200_aanvullendeinformatiewensen_MA"/>
               </identifier>
               <display value="relatie naar medicatieafspraak  met identificatie: MBH_200_aanvullendeinformatiewensen_MA || 2.16.840.1.113883.2.4.3.11.999.77.16076005.1"/>
            </basedOn>
            <dispenseRequest>
               <quantity>
                  <extension url="http://hl7.org/fhir/StructureDefinition/iso21090-PQ-translation">
                     <valueQuantity>
                        <value value="30"/>
                        <unit value="stuk"/>
                        <system value="urn:oid:2.16.840.1.113883.2.4.4.1.900.2"/>
                        <code value="245"/>
                     </valueQuantity>
                  </extension>
                  <value value="30"/>
                  <unit value="stuk"/>
                  <system value="http://unitsofmeasure.org"/>
                  <code value="1"/>
               </quantity>
            </dispenseRequest>
         </MedicationRequest>
      </resource>
      <request>
         <method value="POST"/>
         <url value="MedicationRequest"/>
      </request>
   </entry>
   <entry>
<<<<<<< HEAD:ada_2_fhir-r4/mp/9.2.0/beschikbaarstellen_medicatiegegevens/fhir_instance/mg-mgrp-999900420-ALL.xml
      <fullUrl value="urn:uuid:c33f080c-6a95-11ec-0000-020000000000"/>
      <resource>
         <MedicationDispense>
            <id value="mp-AdmAgr-mp9-c33f1545-6a95-11ec-0000-020000000000"/>
=======
      <fullUrl value="urn:uuid:c33f1522-6a95-11ec-0000-020000000000"/>
      <resource>
         <MedicationDispense>
>>>>>>> origin/master:ada_2_fhir-r4/mp/9.2.0/beschikbaarstellen_medicatiegegevens/fhir_instance/mg-mgrp-999900481-ALL.xml
            <meta>
               <profile value="http://nictiz.nl/fhir/StructureDefinition/mp-AdministrationAgreement"/>
            </meta>
            <extension url="http://nictiz.nl/fhir/StructureDefinition/ext-AdministrationAgreement.AdministrationAgreementDateTime">
               <valueDateTime value="${DATE, T, M, -4}T09:00:00+02:00"/>
            </extension>
            <extension url="http://nictiz.nl/fhir/StructureDefinition/ext-RenderedDosageInstruction">
               <valueString value="Vanaf T - 4 maanden, tot en met T + 8 maanden, 1 maal per dag 1 stuk, Bij het eten innemen, Oraal"/>
            </extension>
            <extension url="http://nictiz.nl/fhir/StructureDefinition/ext-TimeInterval.Period">
               <valuePeriod>
                  <start value="${DATE, T, M, -4}T00:00:00+02:00"/>
                  <end value="${DATE, T, M, +8}T23:59:59+02:00"/>
               </valuePeriod>
            </extension>
            <extension url="http://nictiz.nl/fhir/StructureDefinition/ext-PharmaceuticalTreatment.Identifier">
               <valueIdentifier>
                  <system value="urn:oid:2.16.840.1.113883.2.4.3.11.999.77.1.1"/>
                  <value value="MBH_200_aanvullendeinstructie"/>
               </valueIdentifier>
            </extension>
            <identifier>
               <system value="urn:oid:2.16.840.1.113883.2.4.3.11.999.77.422037009.1"/>
               <value value="MBH_200_aanvullendeinstructie_TA"/>
            </identifier>
            <status value="unknown"/>
            <category>
               <coding>
                  <system value="http://snomed.info/sct"/>
                  <code value="422037009"/>
                  <display value="toedieningsafspraak"/>
               </coding>
            </category>
            <medicationReference>
<<<<<<< HEAD:ada_2_fhir-r4/mp/9.2.0/beschikbaarstellen_medicatiegegevens/fhir_instance/mg-mgrp-999900420-ALL.xml
               <reference value="urn:uuid:c33f0956-6a95-11ec-0000-020000000000"/>
=======
               <reference value="urn:uuid:c33f166c-6a95-11ec-0000-020000000000"/>
>>>>>>> origin/master:ada_2_fhir-r4/mp/9.2.0/beschikbaarstellen_medicatiegegevens/fhir_instance/mg-mgrp-999900481-ALL.xml
               <type value="Medication"/>
               <display value="ASPIRINE PROTECT EC TABLET MSR 100MG"/>
            </medicationReference>
            <subject>
<<<<<<< HEAD:ada_2_fhir-r4/mp/9.2.0/beschikbaarstellen_medicatiegegevens/fhir_instance/mg-mgrp-999900420-ALL.xml
               <reference value="urn:uuid:c33f0686-6a95-11ec-0000-020000000000"/>
=======
               <reference value="urn:uuid:c33f1432-6a95-11ec-0000-020000000000"/>
>>>>>>> origin/master:ada_2_fhir-r4/mp/9.2.0/beschikbaarstellen_medicatiegegevens/fhir_instance/mg-mgrp-999900481-ALL.xml
               <type value="Patient"/>
               <display value="Patient, D. XXX_Dixhoorn"/>
            </subject>
            <performer>
               <actor>
<<<<<<< HEAD:ada_2_fhir-r4/mp/9.2.0/beschikbaarstellen_medicatiegegevens/fhir_instance/mg-mgrp-999900420-ALL.xml
                  <reference value="urn:uuid:c33f073a-6a95-11ec-0000-020000000000"/>
=======
                  <reference value="urn:uuid:c33f17b6-6a95-11ec-0000-020000000000"/>
>>>>>>> origin/master:ada_2_fhir-r4/mp/9.2.0/beschikbaarstellen_medicatiegegevens/fhir_instance/mg-mgrp-999900481-ALL.xml
                  <type value="Organization"/>
                  <display value="Healthcare provider (organization), Apotheek De Gulle Gaper"/>
               </actor>
            </performer>
            <authorizingPrescription>
               <type value="MedicationRequest"/>
               <identifier>
                  <system value="urn:oid:2.16.840.1.113883.2.4.3.11.999.77.16076005.1"/>
                  <value value="MBH_200_aanvullendeinstructie_MA"/>
               </identifier>
               <display value="relatie naar medicatieafspraak met identificatie: MBH_200_aanvullendeinstructie_MA || 2.16.840.1.113883.2.4.3.11.999.77.16076005.1"/>
            </authorizingPrescription>
            <dosageInstruction>
               <additionalInstruction>
                  <coding>
                     <system value="http://terminology.hl7.org/CodeSystem/v3-NullFlavor"/>
                     <code value="OTH"/>
                     <display value="overig"/>
                  </coding>
                  <text value="Bij het eten innemen"/>
               </additionalInstruction>
               <timing>
                  <repeat>
                     <frequency value="1"/>
                     <period value="1"/>
                     <periodUnit value="d"/>
                  </repeat>
               </timing>
               <route>
                  <coding>
                     <system value="urn:oid:2.16.840.1.113883.2.4.4.9"/>
                     <code value="9"/>
                     <display value="Oraal"/>
                  </coding>
               </route>
               <doseAndRate>
                  <doseQuantity>
                     <extension url="http://hl7.org/fhir/StructureDefinition/iso21090-PQ-translation">
                        <valueQuantity>
                           <value value="1"/>
                           <unit value="stuk"/>
                           <system value="urn:oid:2.16.840.1.113883.2.4.4.1.900.2"/>
                           <code value="245"/>
                        </valueQuantity>
                     </extension>
                     <value value="1"/>
                     <unit value="stuk"/>
                     <system value="http://unitsofmeasure.org"/>
                     <code value="1"/>
                  </doseQuantity>
               </doseAndRate>
            </dosageInstruction>
         </MedicationDispense>
      </resource>
      <request>
         <method value="POST"/>
         <url value="MedicationDispense"/>
      </request>
   </entry>
   <entry>
<<<<<<< HEAD:ada_2_fhir-r4/mp/9.2.0/beschikbaarstellen_medicatiegegevens/fhir_instance/mg-mgrp-999900420-ALL.xml
      <fullUrl value="urn:uuid:c33f082a-6a95-11ec-0000-020000000000"/>
      <resource>
         <MedicationDispense>
            <id value="AdmAgr-mp9-216840111388324311999774220370091-MBH200toelichtingTA"/>
=======
      <fullUrl value="urn:uuid:c33f1540-6a95-11ec-0000-020000000000"/>
      <resource>
         <MedicationDispense>
>>>>>>> origin/master:ada_2_fhir-r4/mp/9.2.0/beschikbaarstellen_medicatiegegevens/fhir_instance/mg-mgrp-999900481-ALL.xml
            <meta>
               <profile value="http://nictiz.nl/fhir/StructureDefinition/mp-AdministrationAgreement"/>
            </meta>
            <extension url="http://nictiz.nl/fhir/StructureDefinition/ext-AdministrationAgreement.AdministrationAgreementDateTime">
               <valueDateTime value="${DATE, T, D, -21}T09:02:00+02:00"/>
            </extension>
            <extension url="http://nictiz.nl/fhir/StructureDefinition/ext-RenderedDosageInstruction">
               <valueString value="Vanaf T - 21 dagen, 1 maal per dag 1 stuk, Oraal"/>
            </extension>
            <extension url="http://nictiz.nl/fhir/StructureDefinition/ext-TimeInterval.Period">
               <valuePeriod>
                  <start value="${DATE, T, D, -21}T00:00:00+02:00"/>
               </valuePeriod>
            </extension>
            <extension url="http://nictiz.nl/fhir/StructureDefinition/ext-PharmaceuticalTreatment.Identifier">
               <valueIdentifier>
                  <system value="urn:oid:2.16.840.1.113883.2.4.3.11.999.77.1.1"/>
                  <value value="MBH_200_toelichting"/>
               </valueIdentifier>
            </extension>
            <identifier>
               <system value="urn:oid:2.16.840.1.113883.2.4.3.11.999.77.422037009.1"/>
               <value value="MBH_200_toelichting_TA"/>
            </identifier>
            <status value="unknown"/>
            <category>
               <coding>
                  <system value="http://snomed.info/sct"/>
                  <code value="422037009"/>
                  <display value="toedieningsafspraak"/>
               </coding>
            </category>
            <medicationReference>
<<<<<<< HEAD:ada_2_fhir-r4/mp/9.2.0/beschikbaarstellen_medicatiegegevens/fhir_instance/mg-mgrp-999900420-ALL.xml
               <reference value="urn:uuid:c33f0992-6a95-11ec-0000-020000000000"/>
=======
               <reference value="urn:uuid:c33f16a8-6a95-11ec-0000-020000000000"/>
>>>>>>> origin/master:ada_2_fhir-r4/mp/9.2.0/beschikbaarstellen_medicatiegegevens/fhir_instance/mg-mgrp-999900481-ALL.xml
               <type value="Medication"/>
               <display value="FUROSEMIDE SANDOZ TABLET 40MG"/>
            </medicationReference>
            <subject>
<<<<<<< HEAD:ada_2_fhir-r4/mp/9.2.0/beschikbaarstellen_medicatiegegevens/fhir_instance/mg-mgrp-999900420-ALL.xml
               <reference value="urn:uuid:c33f0686-6a95-11ec-0000-020000000000"/>
=======
               <reference value="urn:uuid:c33f1432-6a95-11ec-0000-020000000000"/>
>>>>>>> origin/master:ada_2_fhir-r4/mp/9.2.0/beschikbaarstellen_medicatiegegevens/fhir_instance/mg-mgrp-999900481-ALL.xml
               <type value="Patient"/>
               <display value="Patient, D. XXX_Dixhoorn"/>
            </subject>
            <performer>
               <actor>
<<<<<<< HEAD:ada_2_fhir-r4/mp/9.2.0/beschikbaarstellen_medicatiegegevens/fhir_instance/mg-mgrp-999900420-ALL.xml
                  <reference value="urn:uuid:c33f073a-6a95-11ec-0000-020000000000"/>
=======
                  <reference value="urn:uuid:c33f17b6-6a95-11ec-0000-020000000000"/>
>>>>>>> origin/master:ada_2_fhir-r4/mp/9.2.0/beschikbaarstellen_medicatiegegevens/fhir_instance/mg-mgrp-999900481-ALL.xml
                  <type value="Organization"/>
                  <display value="Healthcare provider (organization), Apotheek De Gulle Gaper"/>
               </actor>
            </performer>
            <authorizingPrescription>
               <type value="MedicationRequest"/>
               <identifier>
                  <system value="urn:oid:2.16.840.1.113883.2.4.3.11.999.77.16076005.1"/>
                  <value value="MBH_200_toelichting_MA"/>
               </identifier>
               <display value="relatie naar medicatieafspraak met identificatie: MBH_200_toelichting_MA || 2.16.840.1.113883.2.4.3.11.999.77.16076005.1"/>
            </authorizingPrescription>
            <note>
               <text value="In overleg met specialist"/>
            </note>
            <dosageInstruction>
               <timing>
                  <repeat>
                     <frequency value="1"/>
                     <period value="1"/>
                     <periodUnit value="d"/>
                  </repeat>
               </timing>
               <route>
                  <coding>
                     <system value="urn:oid:2.16.840.1.113883.2.4.4.9"/>
                     <code value="9"/>
                     <display value="Oraal"/>
                  </coding>
               </route>
               <doseAndRate>
                  <doseQuantity>
                     <extension url="http://hl7.org/fhir/StructureDefinition/iso21090-PQ-translation">
                        <valueQuantity>
                           <value value="1"/>
                           <unit value="stuk"/>
                           <system value="urn:oid:2.16.840.1.113883.2.4.4.1.900.2"/>
                           <code value="245"/>
                        </valueQuantity>
                     </extension>
                     <value value="1"/>
                     <unit value="stuk"/>
                     <system value="http://unitsofmeasure.org"/>
                     <code value="1"/>
                  </doseQuantity>
               </doseAndRate>
            </dosageInstruction>
         </MedicationDispense>
      </resource>
      <request>
         <method value="POST"/>
         <url value="MedicationDispense"/>
      </request>
   </entry>
   <entry>
<<<<<<< HEAD:ada_2_fhir-r4/mp/9.2.0/beschikbaarstellen_medicatiegegevens/fhir_instance/mg-mgrp-999900420-ALL.xml
      <fullUrl value="urn:uuid:c33f0848-6a95-11ec-0000-020000000000"/>
      <resource>
         <MedicationDispense>
            <id value="mp-AdmAgr-mp9-c33f1057-6a95-11ec-0000-020000000000"/>
=======
      <fullUrl value="urn:uuid:c33f155e-6a95-11ec-0000-020000000000"/>
      <resource>
         <MedicationDispense>
>>>>>>> origin/master:ada_2_fhir-r4/mp/9.2.0/beschikbaarstellen_medicatiegegevens/fhir_instance/mg-mgrp-999900481-ALL.xml
            <meta>
               <profile value="http://nictiz.nl/fhir/StructureDefinition/mp-AdministrationAgreement"/>
            </meta>
            <extension url="http://nictiz.nl/fhir/StructureDefinition/ext-AdministrationAgreement.AdministrationAgreementDateTime">
               <valueDateTime value="${DATE, T, D, -13}T09:05:00+02:00"/>
            </extension>
            <extension url="http://nictiz.nl/fhir/StructureDefinition/ext-RenderedDosageInstruction">
               <valueString value="Vanaf T - 13 dagen, tot en met T + 14 dagen, 1 maal per week 5 stuks, Oraal"/>
            </extension>
            <extension url="http://nictiz.nl/fhir/StructureDefinition/ext-TimeInterval.Period">
               <valuePeriod>
                  <start value="${DATE, T, D, -13}T00:00:00+02:00"/>
                  <end value="${DATE, T, D, +14}T23:59:59+02:00"/>
               </valuePeriod>
            </extension>
            <extension url="http://nictiz.nl/fhir/StructureDefinition/ext-PharmaceuticalTreatment.Identifier">
               <valueIdentifier>
                  <system value="urn:oid:2.16.840.1.113883.2.4.3.11.999.77.1.1"/>
                  <value value="MBH_200_redenvanvoorschrijven"/>
               </valueIdentifier>
            </extension>
            <identifier>
               <system value="urn:oid:2.16.840.1.113883.2.4.3.11.999.77.422037009.1"/>
               <value value="MBH_200_redenvanvoorschrijven_TA"/>
            </identifier>
            <status value="unknown"/>
            <category>
               <coding>
                  <system value="http://snomed.info/sct"/>
                  <code value="422037009"/>
                  <display value="toedieningsafspraak"/>
               </coding>
            </category>
            <medicationReference>
<<<<<<< HEAD:ada_2_fhir-r4/mp/9.2.0/beschikbaarstellen_medicatiegegevens/fhir_instance/mg-mgrp-999900420-ALL.xml
               <reference value="urn:uuid:c33f09ce-6a95-11ec-0000-020000000000"/>
=======
               <reference value="urn:uuid:c33f16e4-6a95-11ec-0000-020000000000"/>
>>>>>>> origin/master:ada_2_fhir-r4/mp/9.2.0/beschikbaarstellen_medicatiegegevens/fhir_instance/mg-mgrp-999900481-ALL.xml
               <type value="Medication"/>
               <display value="METHOTREXAAT PCH TABLET 2,5MG"/>
            </medicationReference>
            <subject>
<<<<<<< HEAD:ada_2_fhir-r4/mp/9.2.0/beschikbaarstellen_medicatiegegevens/fhir_instance/mg-mgrp-999900420-ALL.xml
               <reference value="urn:uuid:c33f0686-6a95-11ec-0000-020000000000"/>
=======
               <reference value="urn:uuid:c33f1432-6a95-11ec-0000-020000000000"/>
>>>>>>> origin/master:ada_2_fhir-r4/mp/9.2.0/beschikbaarstellen_medicatiegegevens/fhir_instance/mg-mgrp-999900481-ALL.xml
               <type value="Patient"/>
               <display value="Patient, D. XXX_Dixhoorn"/>
            </subject>
            <performer>
               <actor>
<<<<<<< HEAD:ada_2_fhir-r4/mp/9.2.0/beschikbaarstellen_medicatiegegevens/fhir_instance/mg-mgrp-999900420-ALL.xml
                  <reference value="urn:uuid:c33f073a-6a95-11ec-0000-020000000000"/>
=======
                  <reference value="urn:uuid:c33f17b6-6a95-11ec-0000-020000000000"/>
>>>>>>> origin/master:ada_2_fhir-r4/mp/9.2.0/beschikbaarstellen_medicatiegegevens/fhir_instance/mg-mgrp-999900481-ALL.xml
                  <type value="Organization"/>
                  <display value="Healthcare provider (organization), Apotheek De Gulle Gaper"/>
               </actor>
            </performer>
            <authorizingPrescription>
               <type value="MedicationRequest"/>
               <identifier>
                  <system value="urn:oid:2.16.840.1.113883.2.4.3.11.999.77.16076005.1"/>
                  <value value="MBH_200_redenvanvoorschrijven_MA"/>
               </identifier>
               <display value="relatie naar medicatieafspraak met identificatie: MBH_200_redenvanvoorschrijven_MA || 2.16.840.1.113883.2.4.3.11.999.77.16076005.1"/>
            </authorizingPrescription>
            <dosageInstruction>
               <timing>
                  <repeat>
                     <frequency value="1"/>
                     <period value="1"/>
                     <periodUnit value="wk"/>
                  </repeat>
               </timing>
               <route>
                  <coding>
                     <system value="urn:oid:2.16.840.1.113883.2.4.4.9"/>
                     <code value="9"/>
                     <display value="Oraal"/>
                  </coding>
               </route>
               <doseAndRate>
                  <doseQuantity>
                     <extension url="http://hl7.org/fhir/StructureDefinition/iso21090-PQ-translation">
                        <valueQuantity>
                           <value value="5"/>
                           <unit value="stuk"/>
                           <system value="urn:oid:2.16.840.1.113883.2.4.4.1.900.2"/>
                           <code value="245"/>
                        </valueQuantity>
                     </extension>
                     <value value="5"/>
                     <unit value="stuk"/>
                     <system value="http://unitsofmeasure.org"/>
                     <code value="1"/>
                  </doseQuantity>
               </doseAndRate>
            </dosageInstruction>
         </MedicationDispense>
      </resource>
      <request>
         <method value="POST"/>
         <url value="MedicationDispense"/>
      </request>
   </entry>
   <entry>
<<<<<<< HEAD:ada_2_fhir-r4/mp/9.2.0/beschikbaarstellen_medicatiegegevens/fhir_instance/mg-mgrp-999900420-ALL.xml
      <fullUrl value="urn:uuid:c33f0866-6a95-11ec-0000-020000000000"/>
      <resource>
         <MedicationDispense>
            <id value="mp-AdmAgr-mp9-c33f109c-6a95-11ec-0000-020000000000"/>
=======
      <fullUrl value="urn:uuid:c33f157c-6a95-11ec-0000-020000000000"/>
      <resource>
         <MedicationDispense>
>>>>>>> origin/master:ada_2_fhir-r4/mp/9.2.0/beschikbaarstellen_medicatiegegevens/fhir_instance/mg-mgrp-999900481-ALL.xml
            <meta>
               <profile value="http://nictiz.nl/fhir/StructureDefinition/mp-AdministrationAgreement"/>
            </meta>
            <extension url="http://nictiz.nl/fhir/StructureDefinition/ext-AdministrationAgreement.AdditionalInformation">
               <valueString value="Bijwerking besproken"/>
            </extension>
            <extension url="http://nictiz.nl/fhir/StructureDefinition/ext-AdministrationAgreement.AdministrationAgreementDateTime">
               <valueDateTime value="${DATE, T, D, -5}T09:06:00+02:00"/>
            </extension>
            <extension url="http://nictiz.nl/fhir/StructureDefinition/ext-RenderedDosageInstruction">
               <valueString value="Vanaf T - 4 dagen, tot en met T + 5 dagen, 3 maal per dag 1 stuk, Oraal"/>
            </extension>
            <extension url="http://nictiz.nl/fhir/StructureDefinition/ext-TimeInterval.Period">
               <valuePeriod>
                  <start value="${DATE, T, D, -4}T00:00:00+02:00"/>
                  <end value="${DATE, T, D, +5}T23:59:59+02:00"/>
               </valuePeriod>
            </extension>
            <extension url="http://nictiz.nl/fhir/StructureDefinition/ext-PharmaceuticalTreatment.Identifier">
               <valueIdentifier>
                  <system value="urn:oid:2.16.840.1.113883.2.4.3.11.999.77.1.1"/>
                  <value value="MBH_200_aanvullendeinformatiewensen"/>
               </valueIdentifier>
            </extension>
            <identifier>
               <system value="urn:oid:2.16.840.1.113883.2.4.3.11.999.77.422037009.1"/>
               <value value="MBH_200_aanvullendeinformatiewensen_TA"/>
            </identifier>
            <status value="unknown"/>
            <category>
               <coding>
                  <system value="http://snomed.info/sct"/>
                  <code value="422037009"/>
                  <display value="toedieningsafspraak"/>
               </coding>
            </category>
            <medicationReference>
<<<<<<< HEAD:ada_2_fhir-r4/mp/9.2.0/beschikbaarstellen_medicatiegegevens/fhir_instance/mg-mgrp-999900420-ALL.xml
               <reference value="urn:uuid:c33f0a0a-6a95-11ec-0000-020000000000"/>
=======
               <reference value="urn:uuid:c33f1720-6a95-11ec-0000-020000000000"/>
>>>>>>> origin/master:ada_2_fhir-r4/mp/9.2.0/beschikbaarstellen_medicatiegegevens/fhir_instance/mg-mgrp-999900481-ALL.xml
               <type value="Medication"/>
               <display value="BROXIL CAPSULE 500MG"/>
            </medicationReference>
            <subject>
<<<<<<< HEAD:ada_2_fhir-r4/mp/9.2.0/beschikbaarstellen_medicatiegegevens/fhir_instance/mg-mgrp-999900420-ALL.xml
               <reference value="urn:uuid:c33f0686-6a95-11ec-0000-020000000000"/>
=======
               <reference value="urn:uuid:c33f1432-6a95-11ec-0000-020000000000"/>
>>>>>>> origin/master:ada_2_fhir-r4/mp/9.2.0/beschikbaarstellen_medicatiegegevens/fhir_instance/mg-mgrp-999900481-ALL.xml
               <type value="Patient"/>
               <display value="Patient, D. XXX_Dixhoorn"/>
            </subject>
            <performer>
               <actor>
<<<<<<< HEAD:ada_2_fhir-r4/mp/9.2.0/beschikbaarstellen_medicatiegegevens/fhir_instance/mg-mgrp-999900420-ALL.xml
                  <reference value="urn:uuid:c33f073a-6a95-11ec-0000-020000000000"/>
=======
                  <reference value="urn:uuid:c33f17b6-6a95-11ec-0000-020000000000"/>
>>>>>>> origin/master:ada_2_fhir-r4/mp/9.2.0/beschikbaarstellen_medicatiegegevens/fhir_instance/mg-mgrp-999900481-ALL.xml
                  <type value="Organization"/>
                  <display value="Healthcare provider (organization), Apotheek De Gulle Gaper"/>
               </actor>
            </performer>
            <authorizingPrescription>
               <type value="MedicationRequest"/>
               <identifier>
                  <system value="urn:oid:2.16.840.1.113883.2.4.3.11.999.77.16076005.1"/>
                  <value value="MBH_200_aanvullendeinformatiewensen_MA"/>
               </identifier>
               <display value="relatie naar medicatieafspraak met identificatie: MBH_200_aanvullendeinformatiewensen_MA || 2.16.840.1.113883.2.4.3.11.999.77.16076005.1"/>
            </authorizingPrescription>
            <dosageInstruction>
               <timing>
                  <repeat>
                     <frequency value="3"/>
                     <period value="1"/>
                     <periodUnit value="d"/>
                  </repeat>
               </timing>
               <route>
                  <coding>
                     <system value="urn:oid:2.16.840.1.113883.2.4.4.9"/>
                     <code value="9"/>
                     <display value="Oraal"/>
                  </coding>
               </route>
               <doseAndRate>
                  <doseQuantity>
                     <extension url="http://hl7.org/fhir/StructureDefinition/iso21090-PQ-translation">
                        <valueQuantity>
                           <value value="1"/>
                           <unit value="stuk"/>
                           <system value="urn:oid:2.16.840.1.113883.2.4.4.1.900.2"/>
                           <code value="245"/>
                        </valueQuantity>
                     </extension>
                     <value value="1"/>
                     <unit value="stuk"/>
                     <system value="http://unitsofmeasure.org"/>
                     <code value="1"/>
                  </doseQuantity>
               </doseAndRate>
            </dosageInstruction>
         </MedicationDispense>
      </resource>
      <request>
         <method value="POST"/>
         <url value="MedicationDispense"/>
      </request>
   </entry>
   <entry>
<<<<<<< HEAD:ada_2_fhir-r4/mp/9.2.0/beschikbaarstellen_medicatiegegevens/fhir_instance/mg-mgrp-999900420-ALL.xml
      <fullUrl value="urn:uuid:c33f0884-6a95-11ec-0000-020000000000"/>
      <resource>
         <MedicationDispense>
            <id value="Agr-mp9-216840111388324311999774220370091-MBH200ToedieningswegTA"/>
=======
      <fullUrl value="urn:uuid:c33f159a-6a95-11ec-0000-020000000000"/>
      <resource>
         <MedicationDispense>
>>>>>>> origin/master:ada_2_fhir-r4/mp/9.2.0/beschikbaarstellen_medicatiegegevens/fhir_instance/mg-mgrp-999900481-ALL.xml
            <meta>
               <profile value="http://nictiz.nl/fhir/StructureDefinition/mp-AdministrationAgreement"/>
            </meta>
            <extension url="http://nictiz.nl/fhir/StructureDefinition/ext-AdministrationAgreement.AdditionalInformation">
               <valueString value="Gebruiksinstructie gegeven"/>
            </extension>
            <extension url="http://nictiz.nl/fhir/StructureDefinition/ext-AdministrationAgreement.AdministrationAgreementDateTime">
               <valueDateTime value="${DATE, T, D, -5}T09:15:00+02:00"/>
            </extension>
            <extension url="http://nictiz.nl/fhir/StructureDefinition/ext-RenderedDosageInstruction">
               <valueString value="Vanaf T - 5 dagen, tot en met T + 2 dagen, 2 maal per dag 1 druppel, In het rechter oog, oculair"/>
            </extension>
            <extension url="http://nictiz.nl/fhir/StructureDefinition/ext-TimeInterval.Period">
               <valuePeriod>
                  <start value="${DATE, T, D, -5}T00:00:00+02:00"/>
                  <end value="${DATE, T, D, +2}T23:59:59+02:00"/>
               </valuePeriod>
            </extension>
            <extension url="http://nictiz.nl/fhir/StructureDefinition/ext-PharmaceuticalTreatment.Identifier">
               <valueIdentifier>
                  <system value="urn:oid:2.16.840.1.113883.2.4.3.11.999.77.1.1"/>
                  <value value="MBH_200_Toedieningsweg"/>
               </valueIdentifier>
            </extension>
            <identifier>
               <system value="urn:oid:2.16.840.1.113883.2.4.3.11.999.77.422037009.1"/>
               <value value="MBH_200_Toedieningsweg_TA"/>
            </identifier>
            <status value="unknown"/>
            <category>
               <coding>
                  <system value="http://snomed.info/sct"/>
                  <code value="422037009"/>
                  <display value="toedieningsafspraak"/>
               </coding>
            </category>
            <medicationReference>
<<<<<<< HEAD:ada_2_fhir-r4/mp/9.2.0/beschikbaarstellen_medicatiegegevens/fhir_instance/mg-mgrp-999900420-ALL.xml
               <reference value="urn:uuid:c33f0a46-6a95-11ec-0000-020000000000"/>
=======
               <reference value="urn:uuid:c33f175c-6a95-11ec-0000-020000000000"/>
>>>>>>> origin/master:ada_2_fhir-r4/mp/9.2.0/beschikbaarstellen_medicatiegegevens/fhir_instance/mg-mgrp-999900481-ALL.xml
               <type value="Medication"/>
               <display value="SOFRADEX OORDRUPPELS"/>
            </medicationReference>
            <subject>
<<<<<<< HEAD:ada_2_fhir-r4/mp/9.2.0/beschikbaarstellen_medicatiegegevens/fhir_instance/mg-mgrp-999900420-ALL.xml
               <reference value="urn:uuid:c33f0686-6a95-11ec-0000-020000000000"/>
=======
               <reference value="urn:uuid:c33f1432-6a95-11ec-0000-020000000000"/>
>>>>>>> origin/master:ada_2_fhir-r4/mp/9.2.0/beschikbaarstellen_medicatiegegevens/fhir_instance/mg-mgrp-999900481-ALL.xml
               <type value="Patient"/>
               <display value="Patient, D. XXX_Dixhoorn"/>
            </subject>
            <performer>
               <actor>
<<<<<<< HEAD:ada_2_fhir-r4/mp/9.2.0/beschikbaarstellen_medicatiegegevens/fhir_instance/mg-mgrp-999900420-ALL.xml
                  <reference value="urn:uuid:c33f073a-6a95-11ec-0000-020000000000"/>
=======
                  <reference value="urn:uuid:c33f17b6-6a95-11ec-0000-020000000000"/>
>>>>>>> origin/master:ada_2_fhir-r4/mp/9.2.0/beschikbaarstellen_medicatiegegevens/fhir_instance/mg-mgrp-999900481-ALL.xml
                  <type value="Organization"/>
                  <display value="Healthcare provider (organization), Apotheek De Gulle Gaper"/>
               </actor>
            </performer>
            <authorizingPrescription>
               <type value="MedicationRequest"/>
               <identifier>
                  <system value="urn:oid:2.16.840.1.113883.2.4.3.11.999.77.16076005.1"/>
                  <value value="MBH_200_Toedieningsweg_MA"/>
               </identifier>
               <display value="relatie naar medicatieafspraak met identificatie: MBH_200_Toedieningsweg_MA || 2.16.840.1.113883.2.4.3.11.999.77.16076005.1"/>
            </authorizingPrescription>
            <dosageInstruction>
               <additionalInstruction>
                  <coding>
                     <system value="http://terminology.hl7.org/CodeSystem/v3-NullFlavor"/>
                     <code value="OTH"/>
                     <display value="overig"/>
                  </coding>
                  <text value="In het rechter oog"/>
               </additionalInstruction>
               <timing>
                  <repeat>
                     <frequency value="2"/>
                     <period value="1"/>
                     <periodUnit value="d"/>
                  </repeat>
               </timing>
               <route>
                  <coding>
                     <system value="urn:oid:2.16.840.1.113883.2.4.4.9"/>
                     <code value="7"/>
                     <display value="oculair"/>
                  </coding>
               </route>
               <doseAndRate>
                  <doseQuantity>
                     <extension url="http://hl7.org/fhir/StructureDefinition/iso21090-PQ-translation">
                        <valueQuantity>
                           <value value="1"/>
                           <unit value="Druppel"/>
                           <system value="urn:oid:2.16.840.1.113883.2.4.4.1.900.2"/>
                           <code value="303"/>
                        </valueQuantity>
                     </extension>
                     <value value="1"/>
                     <unit value="Druppel"/>
                     <system value="http://unitsofmeasure.org"/>
                     <code value="[drp]"/>
                  </doseQuantity>
               </doseAndRate>
            </dosageInstruction>
         </MedicationDispense>
      </resource>
      <request>
         <method value="POST"/>
         <url value="MedicationDispense"/>
      </request>
   </entry>
   <entry>
<<<<<<< HEAD:ada_2_fhir-r4/mp/9.2.0/beschikbaarstellen_medicatiegegevens/fhir_instance/mg-mgrp-999900420-ALL.xml
      <fullUrl value="urn:uuid:c33f08de-6a95-11ec-0000-020000000000"/>
      <resource>
         <MedicationDispense>
            <id value="edDsp-mp9-216840111388324311999773737840051-MBH200toelichtingMVE"/>
=======
      <fullUrl value="urn:uuid:c33f15f4-6a95-11ec-0000-020000000000"/>
      <resource>
         <MedicationDispense>
>>>>>>> origin/master:ada_2_fhir-r4/mp/9.2.0/beschikbaarstellen_medicatiegegevens/fhir_instance/mg-mgrp-999900481-ALL.xml
            <meta>
               <profile value="http://nictiz.nl/fhir/StructureDefinition/mp-MedicationDispense"/>
            </meta>
            <extension url="http://nictiz.nl/fhir/StructureDefinition/ext-PharmaceuticalTreatment.Identifier">
               <valueIdentifier>
                  <system value="urn:oid:2.16.840.1.113883.2.4.3.11.999.77.1.1"/>
                  <value value="MBH_200_toelichting"/>
               </valueIdentifier>
            </extension>
            <identifier>
               <system value="urn:oid:2.16.840.1.113883.2.4.3.11.999.77.373784005.1"/>
               <value value="MBH_200_toelichting_MVE"/>
            </identifier>
            <status value="completed"/>
            <category>
               <coding>
                  <system value="http://snomed.info/sct"/>
                  <code value="373784005"/>
                  <display value="verstrekken van medicatie"/>
               </coding>
            </category>
            <medicationReference>
<<<<<<< HEAD:ada_2_fhir-r4/mp/9.2.0/beschikbaarstellen_medicatiegegevens/fhir_instance/mg-mgrp-999900420-ALL.xml
               <reference value="urn:uuid:c33f0992-6a95-11ec-0000-020000000000"/>
=======
               <reference value="urn:uuid:c33f16a8-6a95-11ec-0000-020000000000"/>
>>>>>>> origin/master:ada_2_fhir-r4/mp/9.2.0/beschikbaarstellen_medicatiegegevens/fhir_instance/mg-mgrp-999900481-ALL.xml
               <type value="Medication"/>
               <display value="FUROSEMIDE SANDOZ TABLET 40MG"/>
            </medicationReference>
            <subject>
<<<<<<< HEAD:ada_2_fhir-r4/mp/9.2.0/beschikbaarstellen_medicatiegegevens/fhir_instance/mg-mgrp-999900420-ALL.xml
               <reference value="urn:uuid:c33f0686-6a95-11ec-0000-020000000000"/>
=======
               <reference value="urn:uuid:c33f1432-6a95-11ec-0000-020000000000"/>
>>>>>>> origin/master:ada_2_fhir-r4/mp/9.2.0/beschikbaarstellen_medicatiegegevens/fhir_instance/mg-mgrp-999900481-ALL.xml
               <type value="Patient"/>
               <display value="Patient, D. XXX_Dixhoorn"/>
            </subject>
            <performer>
               <actor>
<<<<<<< HEAD:ada_2_fhir-r4/mp/9.2.0/beschikbaarstellen_medicatiegegevens/fhir_instance/mg-mgrp-999900420-ALL.xml
                  <reference value="urn:uuid:c33f073a-6a95-11ec-0000-020000000000"/>
=======
                  <reference value="urn:uuid:c33f17b6-6a95-11ec-0000-020000000000"/>
>>>>>>> origin/master:ada_2_fhir-r4/mp/9.2.0/beschikbaarstellen_medicatiegegevens/fhir_instance/mg-mgrp-999900481-ALL.xml
                  <type value="Organization"/>
                  <display value="Healthcare provider (organization), Apotheek De Gulle Gaper"/>
               </actor>
            </performer>
            <authorizingPrescription>
               <type value="MedicationRequest"/>
               <identifier>
                  <system value="urn:oid:2.16.840.1.113883.2.4.3.11.999.77.52711000146108.1"/>
                  <value value="MBH_200_toelichting_VV"/>
               </identifier>
               <display value="relatie naar verstrekkingsverzoek met identificatie: MBH_200_toelichting_VV || 2.16.840.1.113883.2.4.3.11.999.77.52711000146108.1"/>
            </authorizingPrescription>
            <quantity>
               <extension url="http://hl7.org/fhir/StructureDefinition/iso21090-PQ-translation">
                  <valueQuantity>
                     <value value="30"/>
                     <unit value="stuk"/>
                     <system value="urn:oid:2.16.840.1.113883.2.4.4.1.900.2"/>
                     <code value="245"/>
                  </valueQuantity>
               </extension>
               <value value="30"/>
               <unit value="stuk"/>
               <system value="http://unitsofmeasure.org"/>
               <code value="1"/>
            </quantity>
            <whenHandedOver value="${DATE, T, D, -21}T09:02:00+02:00"/>
            <note>
               <text value="Extra verstrekkingsverzoek omdat patient medicatie is kwijtgeraakt"/>
            </note>
         </MedicationDispense>
      </resource>
      <request>
         <method value="POST"/>
         <url value="MedicationDispense"/>
      </request>
   </entry>
   <entry>
<<<<<<< HEAD:ada_2_fhir-r4/mp/9.2.0/beschikbaarstellen_medicatiegegevens/fhir_instance/mg-mgrp-999900420-ALL.xml
      <fullUrl value="urn:uuid:c33f08fc-6a95-11ec-0000-020000000000"/>
      <resource>
         <MedicationDispense>
            <id value="mp-MedDsp-mp9-c33f10b7-6a95-11ec-0000-020000000000"/>
=======
      <fullUrl value="urn:uuid:c33f1612-6a95-11ec-0000-020000000000"/>
      <resource>
         <MedicationDispense>
>>>>>>> origin/master:ada_2_fhir-r4/mp/9.2.0/beschikbaarstellen_medicatiegegevens/fhir_instance/mg-mgrp-999900481-ALL.xml
            <meta>
               <profile value="http://nictiz.nl/fhir/StructureDefinition/mp-MedicationDispense"/>
            </meta>
            <extension url="http://nictiz.nl/fhir/StructureDefinition/ext-PharmaceuticalTreatment.Identifier">
               <valueIdentifier>
                  <system value="urn:oid:2.16.840.1.113883.2.4.3.11.999.77.1.1"/>
                  <value value="MBH_200_aanvullendeinformatiewensen"/>
               </valueIdentifier>
            </extension>
            <identifier>
               <system value="urn:oid:2.16.840.1.113883.2.4.3.11.999.77.373784005.1"/>
               <value value="MBH_200_aanvullendeinformatiewensen_MVE"/>
            </identifier>
            <status value="completed"/>
            <category>
               <coding>
                  <system value="http://snomed.info/sct"/>
                  <code value="373784005"/>
                  <display value="verstrekken van medicatie"/>
               </coding>
            </category>
            <medicationReference>
<<<<<<< HEAD:ada_2_fhir-r4/mp/9.2.0/beschikbaarstellen_medicatiegegevens/fhir_instance/mg-mgrp-999900420-ALL.xml
               <reference value="urn:uuid:c33f0a0a-6a95-11ec-0000-020000000000"/>
=======
               <reference value="urn:uuid:c33f1720-6a95-11ec-0000-020000000000"/>
>>>>>>> origin/master:ada_2_fhir-r4/mp/9.2.0/beschikbaarstellen_medicatiegegevens/fhir_instance/mg-mgrp-999900481-ALL.xml
               <type value="Medication"/>
               <display value="BROXIL CAPSULE 500MG"/>
            </medicationReference>
            <subject>
<<<<<<< HEAD:ada_2_fhir-r4/mp/9.2.0/beschikbaarstellen_medicatiegegevens/fhir_instance/mg-mgrp-999900420-ALL.xml
               <reference value="urn:uuid:c33f0686-6a95-11ec-0000-020000000000"/>
=======
               <reference value="urn:uuid:c33f1432-6a95-11ec-0000-020000000000"/>
>>>>>>> origin/master:ada_2_fhir-r4/mp/9.2.0/beschikbaarstellen_medicatiegegevens/fhir_instance/mg-mgrp-999900481-ALL.xml
               <type value="Patient"/>
               <display value="Patient, D. XXX_Dixhoorn"/>
            </subject>
            <performer>
               <actor>
<<<<<<< HEAD:ada_2_fhir-r4/mp/9.2.0/beschikbaarstellen_medicatiegegevens/fhir_instance/mg-mgrp-999900420-ALL.xml
                  <reference value="urn:uuid:c33f073a-6a95-11ec-0000-020000000000"/>
=======
                  <reference value="urn:uuid:c33f17b6-6a95-11ec-0000-020000000000"/>
>>>>>>> origin/master:ada_2_fhir-r4/mp/9.2.0/beschikbaarstellen_medicatiegegevens/fhir_instance/mg-mgrp-999900481-ALL.xml
                  <type value="Organization"/>
                  <display value="Healthcare provider (organization), Apotheek De Gulle Gaper"/>
               </actor>
            </performer>
            <authorizingPrescription>
               <type value="MedicationRequest"/>
               <identifier>
                  <system value="urn:oid:2.16.840.1.113883.2.4.3.11.999.77.52711000146108.1"/>
                  <value value="MBH_200_aanvullendeinformatiewensen_VV"/>
               </identifier>
               <display value="relatie naar verstrekkingsverzoek met identificatie: MBH_200_aanvullendeinformatiewensen_VV || 2.16.840.1.113883.2.4.3.11.999.77.52711000146108.1"/>
            </authorizingPrescription>
            <quantity>
               <extension url="http://hl7.org/fhir/StructureDefinition/iso21090-PQ-translation">
                  <valueQuantity>
                     <value value="30"/>
                     <unit value="stuk"/>
                     <system value="urn:oid:2.16.840.1.113883.2.4.4.1.900.2"/>
                     <code value="245"/>
                  </valueQuantity>
               </extension>
               <value value="30"/>
               <unit value="stuk"/>
               <system value="http://unitsofmeasure.org"/>
               <code value="1"/>
            </quantity>
            <whenHandedOver value="${DATE, T, D, -5}T09:06:00+02:00"/>
         </MedicationDispense>
      </resource>
      <request>
         <method value="POST"/>
         <url value="MedicationDispense"/>
      </request>
   </entry>
   <entry>
<<<<<<< HEAD:ada_2_fhir-r4/mp/9.2.0/beschikbaarstellen_medicatiegegevens/fhir_instance/mg-mgrp-999900420-ALL.xml
      <fullUrl value="urn:uuid:c33f0686-6a95-11ec-0000-020000000000"/>
=======
      <fullUrl value="urn:uuid:c33f1432-6a95-11ec-0000-020000000000"/>
>>>>>>> origin/master:ada_2_fhir-r4/mp/9.2.0/beschikbaarstellen_medicatiegegevens/fhir_instance/mg-mgrp-999900481-ALL.xml
      <resource>
         <Patient>
            <meta>
               <profile value="http://nictiz.nl/fhir/StructureDefinition/nl-core-Patient"/>
            </meta>
            <identifier>
               <system value="http://fhir.nl/fhir/NamingSystem/bsn"/>
               <value value="999900481"/>
            </identifier>
            <name>
               <extension url="http://hl7.org/fhir/StructureDefinition/humanname-assembly-order">
                  <valueCode value="NL1"/>
               </extension>
               <use value="official"/>
               <text value="D. XXX_Dixhoorn"/>
               <family value="XXX_Dixhoorn">
                  <extension url="http://hl7.org/fhir/StructureDefinition/humanname-own-name">
                     <valueString value="XXX_Dixhoorn"/>
                  </extension>
               </family>
               <given value="D.">
                  <extension url="http://hl7.org/fhir/StructureDefinition/iso21090-EN-qualifier">
                     <valueCode value="IN"/>
                  </extension>
               </given>
            </name>
            <gender value="male">
               <extension url="http://nictiz.nl/fhir/StructureDefinition/ext-CodeSpecification">
                  <valueCodeableConcept>
                     <coding>
                        <system value="http://terminology.hl7.org/CodeSystem/v3-AdministrativeGender"/>
                        <code value="M"/>
                        <display value="Man"/>
                     </coding>
                  </valueCodeableConcept>
               </extension>
            </gender>
            <birthDate value="1963-10-22"/>
         </Patient>
      </resource>
      <request>
         <method value="POST"/>
         <url value="Patient"/>
      </request>
   </entry>
   <entry>
<<<<<<< HEAD:ada_2_fhir-r4/mp/9.2.0/beschikbaarstellen_medicatiegegevens/fhir_instance/mg-mgrp-999900420-ALL.xml
      <fullUrl value="urn:uuid:c33f06ae-6a95-11ec-0000-020000000000"/>
      <resource>
         <PractitionerRole>
            <id value="nl-core-HPrf-PracRol-mp9-PrcRol-2165281100731-000001112"/>
=======
      <fullUrl value="urn:uuid:c33f1450-6a95-11ec-0000-020000000000"/>
      <resource>
         <PractitionerRole>
>>>>>>> origin/master:ada_2_fhir-r4/mp/9.2.0/beschikbaarstellen_medicatiegegevens/fhir_instance/mg-mgrp-999900481-ALL.xml
            <meta>
               <profile value="http://nictiz.nl/fhir/StructureDefinition/nl-core-HealthProfessional-PractitionerRole"/>
            </meta>
            <practitioner>
<<<<<<< HEAD:ada_2_fhir-r4/mp/9.2.0/beschikbaarstellen_medicatiegegevens/fhir_instance/mg-mgrp-999900420-ALL.xml
               <reference value="urn:uuid:c33f06d6-6a95-11ec-0000-020000000000"/>
=======
               <reference value="urn:uuid:c33f146e-6a95-11ec-0000-020000000000"/>
>>>>>>> origin/master:ada_2_fhir-r4/mp/9.2.0/beschikbaarstellen_medicatiegegevens/fhir_instance/mg-mgrp-999900481-ALL.xml
               <type value="Practitioner"/>
               <display value="Healthcare professional (person), Bertine van Doorn"/>
            </practitioner>
            <organization>
<<<<<<< HEAD:ada_2_fhir-r4/mp/9.2.0/beschikbaarstellen_medicatiegegevens/fhir_instance/mg-mgrp-999900420-ALL.xml
               <reference value="urn:uuid:c33f06fe-6a95-11ec-0000-020000000000"/>
=======
               <reference value="urn:uuid:c33f177a-6a95-11ec-0000-020000000000"/>
>>>>>>> origin/master:ada_2_fhir-r4/mp/9.2.0/beschikbaarstellen_medicatiegegevens/fhir_instance/mg-mgrp-999900481-ALL.xml
               <type value="Organization"/>
               <display value="Healthcare provider (organization), Huisartsenpraktijk Pulver &amp; Partners"/>
            </organization>
            <specialty>
               <coding>
                  <system value="urn:oid:2.16.840.1.113883.2.4.6.7"/>
                  <version value="2020-10-23T00:00:00"/>
                  <code value="0100"/>
                  <display value="Huisartsen, niet nader gespecificeerd"/>
               </coding>
            </specialty>
         </PractitionerRole>
      </resource>
      <request>
         <method value="POST"/>
         <url value="PractitionerRole"/>
      </request>
   </entry>
   <entry>
<<<<<<< HEAD:ada_2_fhir-r4/mp/9.2.0/beschikbaarstellen_medicatiegegevens/fhir_instance/mg-mgrp-999900420-ALL.xml
      <fullUrl value="urn:uuid:c33f06d6-6a95-11ec-0000-020000000000"/>
=======
      <fullUrl value="urn:uuid:c33f146e-6a95-11ec-0000-020000000000"/>
>>>>>>> origin/master:ada_2_fhir-r4/mp/9.2.0/beschikbaarstellen_medicatiegegevens/fhir_instance/mg-mgrp-999900481-ALL.xml
      <resource>
         <Practitioner>
            <meta>
               <profile value="http://nictiz.nl/fhir/StructureDefinition/nl-core-HealthProfessional-Practitioner"/>
            </meta>
            <identifier>
               <system value="http://fhir.nl/fhir/NamingSystem/uzi-nr-pers"/>
               <value value="000001112"/>
            </identifier>
            <name>
               <use value="official"/>
               <text value="Bertine van Doorn"/>
               <family value="van Doorn">
                  <extension url="http://hl7.org/fhir/StructureDefinition/humanname-own-prefix">
                     <valueString value="van"/>
                  </extension>
                  <extension url="http://hl7.org/fhir/StructureDefinition/humanname-own-name">
                     <valueString value="Doorn"/>
                  </extension>
               </family>
               <given value="Bertine">
                  <extension url="http://hl7.org/fhir/StructureDefinition/iso21090-EN-qualifier">
                     <valueCode value="BR"/>
                  </extension>
               </given>
            </name>
         </Practitioner>
      </resource>
      <request>
         <method value="POST"/>
         <url value="Practitioner"/>
      </request>
   </entry>
   <entry>
<<<<<<< HEAD:ada_2_fhir-r4/mp/9.2.0/beschikbaarstellen_medicatiegegevens/fhir_instance/mg-mgrp-999900420-ALL.xml
      <fullUrl value="urn:uuid:c33f06fe-6a95-11ec-0000-020000000000"/>
      <resource>
         <Organization>
            <id value="nl-core-HPrv-Org-mp9-Org-2165281100733-00001111"/>
=======
      <fullUrl value="urn:uuid:c33f177a-6a95-11ec-0000-020000000000"/>
      <resource>
         <Organization>
>>>>>>> origin/master:ada_2_fhir-r4/mp/9.2.0/beschikbaarstellen_medicatiegegevens/fhir_instance/mg-mgrp-999900481-ALL.xml
            <meta>
               <profile value="http://nictiz.nl/fhir/StructureDefinition/nl-core-HealthcareProvider-Organization"/>
            </meta>
            <identifier>
               <system value="http://fhir.nl/fhir/NamingSystem/ura"/>
               <value value="00001111"/>
            </identifier>
            <name value="Huisartsenpraktijk Pulver &amp; Partners"/>
            <address>
               <extension url="http://nictiz.nl/fhir/StructureDefinition/ext-AddressInformation.AddressType">
                  <valueCodeableConcept>
                     <coding>
                        <system value="http://terminology.hl7.org/CodeSystem/v3-AddressUse"/>
                        <code value="WP"/>
                        <display value="Werkadres"/>
                     </coding>
                  </valueCodeableConcept>
               </extension>
               <use value="work"/>
               <line value="Dorpsstraat 1">
                  <extension url="http://hl7.org/fhir/StructureDefinition/iso21090-ADXP-streetName">
                     <valueString value="Dorpsstraat"/>
                  </extension>
                  <extension url="http://hl7.org/fhir/StructureDefinition/iso21090-ADXP-houseNumber">
                     <valueString value="1"/>
                  </extension>
               </line>
               <city value="Ons Dorp"/>
               <postalCode value="1234AA"/>
            </address>
         </Organization>
      </resource>
      <request>
         <method value="POST"/>
         <url value="Organization"/>
      </request>
   </entry>
   <entry>
<<<<<<< HEAD:ada_2_fhir-r4/mp/9.2.0/beschikbaarstellen_medicatiegegevens/fhir_instance/mg-mgrp-999900420-ALL.xml
      <fullUrl value="urn:uuid:c33f073a-6a95-11ec-0000-020000000000"/>
      <resource>
         <Organization>
            <id value="nl-core-HPrv-Org-mp9-Org-2165281100733-01236578"/>
=======
      <fullUrl value="urn:uuid:c33f17b6-6a95-11ec-0000-020000000000"/>
      <resource>
         <Organization>
>>>>>>> origin/master:ada_2_fhir-r4/mp/9.2.0/beschikbaarstellen_medicatiegegevens/fhir_instance/mg-mgrp-999900481-ALL.xml
            <meta>
               <profile value="http://nictiz.nl/fhir/StructureDefinition/nl-core-HealthcareProvider-Organization"/>
            </meta>
            <identifier>
               <system value="http://fhir.nl/fhir/NamingSystem/ura"/>
               <value value="01236578"/>
            </identifier>
            <name value="Apotheek De Gulle Gaper"/>
         </Organization>
      </resource>
      <request>
         <method value="POST"/>
         <url value="Organization"/>
      </request>
   </entry>
   <entry>
<<<<<<< HEAD:ada_2_fhir-r4/mp/9.2.0/beschikbaarstellen_medicatiegegevens/fhir_instance/mg-mgrp-999900420-ALL.xml
      <fullUrl value="urn:uuid:c33f0938-6a95-11ec-0000-020000000000"/>
=======
      <fullUrl value="urn:uuid:c33f164e-6a95-11ec-0000-020000000000"/>
>>>>>>> origin/master:ada_2_fhir-r4/mp/9.2.0/beschikbaarstellen_medicatiegegevens/fhir_instance/mg-mgrp-999900481-ALL.xml
      <resource>
         <Medication>
            <meta>
               <profile value="http://nictiz.nl/fhir/StructureDefinition/nl-core-PharmaceuticalProduct"/>
            </meta>
            <code>
               <coding>
                  <system value="urn:oid:2.16.840.1.113883.2.4.4.10"/>
                  <code value="49484"/>
                  <display value="Acetylsalicylzuur tabletmsr 100mg"/>
                  <userSelected value="true"/>
               </coding>
               <coding>
                  <system value="urn:oid:2.16.840.1.113883.2.4.4.1"/>
                  <code value="103039"/>
                  <display value="Acetylsalicylzuur tabletmsr 100mg"/>
               </coding>
               <text value="Acetylsalicylzuur tabletmsr 100mg"/>
            </code>
         </Medication>
      </resource>
      <request>
         <method value="POST"/>
         <url value="Medication"/>
      </request>
   </entry>
   <entry>
<<<<<<< HEAD:ada_2_fhir-r4/mp/9.2.0/beschikbaarstellen_medicatiegegevens/fhir_instance/mg-mgrp-999900420-ALL.xml
      <fullUrl value="urn:uuid:c33f0956-6a95-11ec-0000-020000000000"/>
=======
      <fullUrl value="urn:uuid:c33f166c-6a95-11ec-0000-020000000000"/>
>>>>>>> origin/master:ada_2_fhir-r4/mp/9.2.0/beschikbaarstellen_medicatiegegevens/fhir_instance/mg-mgrp-999900481-ALL.xml
      <resource>
         <Medication>
            <meta>
               <profile value="http://nictiz.nl/fhir/StructureDefinition/nl-core-PharmaceuticalProduct"/>
            </meta>
            <code>
               <coding>
                  <system value="urn:oid:2.16.840.1.113883.2.4.4.7"/>
                  <code value="1110837"/>
                  <display value="ASPIRINE PROTECT EC TABLET MSR 100MG"/>
                  <userSelected value="true"/>
               </coding>
               <coding>
                  <system value="urn:oid:2.16.840.1.113883.2.4.4.10"/>
                  <code value="49484"/>
                  <display value="Acetylsalicylzuur tabletmsr 100mg"/>
               </coding>
               <coding>
                  <system value="urn:oid:2.16.840.1.113883.2.4.4.1"/>
                  <code value="103039"/>
                  <display value="Acetylsalicylzuur tabletmsr 100mg"/>
               </coding>
               <text value="ASPIRINE PROTECT EC TABLET MSR 100MG"/>
            </code>
         </Medication>
      </resource>
      <request>
         <method value="POST"/>
         <url value="Medication"/>
      </request>
   </entry>
   <entry>
<<<<<<< HEAD:ada_2_fhir-r4/mp/9.2.0/beschikbaarstellen_medicatiegegevens/fhir_instance/mg-mgrp-999900420-ALL.xml
      <fullUrl value="urn:uuid:c33f0974-6a95-11ec-0000-020000000000"/>
=======
      <fullUrl value="urn:uuid:c33f168a-6a95-11ec-0000-020000000000"/>
>>>>>>> origin/master:ada_2_fhir-r4/mp/9.2.0/beschikbaarstellen_medicatiegegevens/fhir_instance/mg-mgrp-999900481-ALL.xml
      <resource>
         <Medication>
            <meta>
               <profile value="http://nictiz.nl/fhir/StructureDefinition/nl-core-PharmaceuticalProduct"/>
            </meta>
            <code>
               <coding>
                  <system value="urn:oid:2.16.840.1.113883.2.4.4.10"/>
                  <code value="5967"/>
                  <display value="FUROSEMIDE 40MG TABLET"/>
                  <userSelected value="true"/>
               </coding>
               <coding>
                  <system value="urn:oid:2.16.840.1.113883.2.4.4.1"/>
                  <code value="16810"/>
                  <display value="FUROSEMIDE 40MG TABLET"/>
               </coding>
               <text value="FUROSEMIDE 40MG TABLET"/>
            </code>
         </Medication>
      </resource>
      <request>
         <method value="POST"/>
         <url value="Medication"/>
      </request>
   </entry>
   <entry>
<<<<<<< HEAD:ada_2_fhir-r4/mp/9.2.0/beschikbaarstellen_medicatiegegevens/fhir_instance/mg-mgrp-999900420-ALL.xml
      <fullUrl value="urn:uuid:c33f0992-6a95-11ec-0000-020000000000"/>
=======
      <fullUrl value="urn:uuid:c33f16a8-6a95-11ec-0000-020000000000"/>
>>>>>>> origin/master:ada_2_fhir-r4/mp/9.2.0/beschikbaarstellen_medicatiegegevens/fhir_instance/mg-mgrp-999900481-ALL.xml
      <resource>
         <Medication>
            <meta>
               <profile value="http://nictiz.nl/fhir/StructureDefinition/nl-core-PharmaceuticalProduct"/>
            </meta>
            <code>
               <coding>
                  <system value="urn:oid:2.16.840.1.113883.2.4.4.7"/>
                  <code value="598860"/>
                  <display value="FUROSEMIDE SANDOZ TABLET 40MG"/>
                  <userSelected value="true"/>
               </coding>
               <coding>
                  <system value="urn:oid:2.16.840.1.113883.2.4.4.10"/>
                  <code value="5967"/>
                  <display value="FUROSEMIDE 40MG TABLET"/>
               </coding>
               <coding>
                  <system value="urn:oid:2.16.840.1.113883.2.4.4.1"/>
                  <code value="16810"/>
                  <display value="FUROSEMIDE 40MG TABLET"/>
               </coding>
               <text value="FUROSEMIDE SANDOZ TABLET 40MG"/>
            </code>
         </Medication>
      </resource>
      <request>
         <method value="POST"/>
         <url value="Medication"/>
      </request>
   </entry>
   <entry>
<<<<<<< HEAD:ada_2_fhir-r4/mp/9.2.0/beschikbaarstellen_medicatiegegevens/fhir_instance/mg-mgrp-999900420-ALL.xml
      <fullUrl value="urn:uuid:c33f09b0-6a95-11ec-0000-020000000000"/>
=======
      <fullUrl value="urn:uuid:c33f16c6-6a95-11ec-0000-020000000000"/>
>>>>>>> origin/master:ada_2_fhir-r4/mp/9.2.0/beschikbaarstellen_medicatiegegevens/fhir_instance/mg-mgrp-999900481-ALL.xml
      <resource>
         <Medication>
            <meta>
               <profile value="http://nictiz.nl/fhir/StructureDefinition/nl-core-PharmaceuticalProduct"/>
            </meta>
            <code>
               <coding>
                  <system value="urn:oid:2.16.840.1.113883.2.4.4.10"/>
                  <code value="141631"/>
                  <display value="Methotrexaat tablet 2,5mg"/>
                  <userSelected value="true"/>
               </coding>
               <coding>
                  <system value="urn:oid:2.16.840.1.113883.2.4.4.1"/>
                  <code value="16918"/>
                  <display value="Methotrexaat tablet 2,5mg"/>
               </coding>
               <text value="Methotrexaat tablet 2,5mg"/>
            </code>
         </Medication>
      </resource>
      <request>
         <method value="POST"/>
         <url value="Medication"/>
      </request>
   </entry>
   <entry>
<<<<<<< HEAD:ada_2_fhir-r4/mp/9.2.0/beschikbaarstellen_medicatiegegevens/fhir_instance/mg-mgrp-999900420-ALL.xml
      <fullUrl value="urn:uuid:c33f09ce-6a95-11ec-0000-020000000000"/>
=======
      <fullUrl value="urn:uuid:c33f16e4-6a95-11ec-0000-020000000000"/>
>>>>>>> origin/master:ada_2_fhir-r4/mp/9.2.0/beschikbaarstellen_medicatiegegevens/fhir_instance/mg-mgrp-999900481-ALL.xml
      <resource>
         <Medication>
            <meta>
               <profile value="http://nictiz.nl/fhir/StructureDefinition/nl-core-PharmaceuticalProduct"/>
            </meta>
            <code>
               <coding>
                  <system value="urn:oid:2.16.840.1.113883.2.4.4.7"/>
                  <code value="1421778"/>
                  <display value="METHOTREXAAT PCH TABLET 2,5MG"/>
                  <userSelected value="true"/>
               </coding>
               <coding>
                  <system value="urn:oid:2.16.840.1.113883.2.4.4.10"/>
                  <code value="141631"/>
                  <display value="Methotrexaat tablet 2,5mg"/>
               </coding>
               <coding>
                  <system value="urn:oid:2.16.840.1.113883.2.4.4.1"/>
                  <code value="16918"/>
                  <display value="Methotrexaat tablet 2,5mg"/>
               </coding>
               <text value="METHOTREXAAT PCH TABLET 2,5MG"/>
            </code>
         </Medication>
      </resource>
      <request>
         <method value="POST"/>
         <url value="Medication"/>
      </request>
   </entry>
   <entry>
<<<<<<< HEAD:ada_2_fhir-r4/mp/9.2.0/beschikbaarstellen_medicatiegegevens/fhir_instance/mg-mgrp-999900420-ALL.xml
      <fullUrl value="urn:uuid:c33f09ec-6a95-11ec-0000-020000000000"/>
=======
      <fullUrl value="urn:uuid:c33f1702-6a95-11ec-0000-020000000000"/>
>>>>>>> origin/master:ada_2_fhir-r4/mp/9.2.0/beschikbaarstellen_medicatiegegevens/fhir_instance/mg-mgrp-999900481-ALL.xml
      <resource>
         <Medication>
            <meta>
               <profile value="http://nictiz.nl/fhir/StructureDefinition/nl-core-PharmaceuticalProduct"/>
            </meta>
            <code>
               <coding>
                  <system value="urn:oid:2.16.840.1.113883.2.4.4.10"/>
                  <code value="17205"/>
                  <display value="FENETICILLINE CAPSULE 500MG"/>
                  <userSelected value="true"/>
               </coding>
               <coding>
                  <system value="urn:oid:2.16.840.1.113883.2.4.4.1"/>
                  <code value="41092"/>
                  <display value="FENETICILLINE 500MG CAPSULE"/>
               </coding>
               <text value="FENETICILLINE CAPSULE 500MG"/>
            </code>
         </Medication>
      </resource>
      <request>
         <method value="POST"/>
         <url value="Medication"/>
      </request>
   </entry>
   <entry>
<<<<<<< HEAD:ada_2_fhir-r4/mp/9.2.0/beschikbaarstellen_medicatiegegevens/fhir_instance/mg-mgrp-999900420-ALL.xml
      <fullUrl value="urn:uuid:c33f0a0a-6a95-11ec-0000-020000000000"/>
=======
      <fullUrl value="urn:uuid:c33f1720-6a95-11ec-0000-020000000000"/>
>>>>>>> origin/master:ada_2_fhir-r4/mp/9.2.0/beschikbaarstellen_medicatiegegevens/fhir_instance/mg-mgrp-999900481-ALL.xml
      <resource>
         <Medication>
            <meta>
               <profile value="http://nictiz.nl/fhir/StructureDefinition/nl-core-PharmaceuticalProduct"/>
            </meta>
            <code>
               <coding>
                  <system value="urn:oid:2.16.840.1.113883.2.4.4.7"/>
                  <code value="425087"/>
                  <display value="BROXIL CAPSULE 500MG"/>
                  <userSelected value="true"/>
               </coding>
               <coding>
                  <system value="urn:oid:2.16.840.1.113883.2.4.4.10"/>
                  <code value="17205"/>
                  <display value="FENETICILLINE CAPSULE 500MG"/>
               </coding>
               <coding>
                  <system value="urn:oid:2.16.840.1.113883.2.4.4.1"/>
                  <code value="41092"/>
                  <display value="FENETICILLINE 500MG CAPSULE"/>
               </coding>
               <text value="BROXIL CAPSULE 500MG"/>
            </code>
         </Medication>
      </resource>
      <request>
         <method value="POST"/>
         <url value="Medication"/>
      </request>
   </entry>
   <entry>
<<<<<<< HEAD:ada_2_fhir-r4/mp/9.2.0/beschikbaarstellen_medicatiegegevens/fhir_instance/mg-mgrp-999900420-ALL.xml
      <fullUrl value="urn:uuid:c33f0a28-6a95-11ec-0000-020000000000"/>
=======
      <fullUrl value="urn:uuid:c33f173e-6a95-11ec-0000-020000000000"/>
>>>>>>> origin/master:ada_2_fhir-r4/mp/9.2.0/beschikbaarstellen_medicatiegegevens/fhir_instance/mg-mgrp-999900481-ALL.xml
      <resource>
         <Medication>
            <meta>
               <profile value="http://nictiz.nl/fhir/StructureDefinition/nl-core-PharmaceuticalProduct"/>
            </meta>
            <code>
               <coding>
                  <system value="urn:oid:2.16.840.1.113883.2.4.4.10"/>
                  <code value="80691"/>
                  <display value="DEXAMETHASON/FRAMYCETINE/GRAMICIDINE OORDR"/>
                  <userSelected value="true"/>
               </coding>
               <coding>
                  <system value="urn:oid:2.16.840.1.113883.2.4.4.1"/>
                  <code value="79804"/>
                  <display value="DEXAMETHASON/FRAMYCETINE/GRAMICIDINE OORDR"/>
               </coding>
               <text value="DEXAMETHASON/FRAMYCETINE/GRAMICIDINE OORDR"/>
            </code>
         </Medication>
      </resource>
      <request>
         <method value="POST"/>
         <url value="Medication"/>
      </request>
   </entry>
   <entry>
<<<<<<< HEAD:ada_2_fhir-r4/mp/9.2.0/beschikbaarstellen_medicatiegegevens/fhir_instance/mg-mgrp-999900420-ALL.xml
      <fullUrl value="urn:uuid:c33f0a46-6a95-11ec-0000-020000000000"/>
=======
      <fullUrl value="urn:uuid:c33f175c-6a95-11ec-0000-020000000000"/>
>>>>>>> origin/master:ada_2_fhir-r4/mp/9.2.0/beschikbaarstellen_medicatiegegevens/fhir_instance/mg-mgrp-999900481-ALL.xml
      <resource>
         <Medication>
            <meta>
               <profile value="http://nictiz.nl/fhir/StructureDefinition/nl-core-PharmaceuticalProduct"/>
            </meta>
            <code>
               <coding>
                  <system value="urn:oid:2.16.840.1.113883.2.4.4.7"/>
                  <code value="644781"/>
                  <display value="SOFRADEX OORDRUPPELS"/>
                  <userSelected value="true"/>
               </coding>
               <coding>
                  <system value="urn:oid:2.16.840.1.113883.2.4.4.10"/>
                  <code value="80691"/>
                  <display value="DEXAMETHASON/FRAMYCETINE/GRAMICIDINE OORDR"/>
               </coding>
               <coding>
                  <system value="urn:oid:2.16.840.1.113883.2.4.4.1"/>
                  <code value="79804"/>
                  <display value="DEXAMETHASON/FRAMYCETINE/GRAMICIDINE OORDR"/>
               </coding>
               <text value="SOFRADEX OORDRUPPELS"/>
            </code>
         </Medication>
      </resource>
      <request>
         <method value="POST"/>
         <url value="Medication"/>
      </request>
   </entry>
   <entry>
<<<<<<< HEAD:ada_2_fhir-r4/mp/9.2.0/beschikbaarstellen_medicatiegegevens/fhir_instance/mg-mgrp-999900420-ALL.xml
      <fullUrl value="urn:uuid:c33f091a-6a95-11ec-0000-020000000000"/>
      <resource>
         <Condition>
            <id value="nl-core-Problem-mp9-c33f1045-6a95-11ec-0000-020000000000"/>
=======
      <fullUrl value="urn:uuid:c33f1630-6a95-11ec-0000-020000000000"/>
      <resource>
         <Condition>
>>>>>>> origin/master:ada_2_fhir-r4/mp/9.2.0/beschikbaarstellen_medicatiegegevens/fhir_instance/mg-mgrp-999900481-ALL.xml
            <meta>
               <profile value="http://nictiz.nl/fhir/StructureDefinition/nl-core-Problem"/>
            </meta>
            <code>
               <coding>
                  <system value="http://hl7.org/fhir/sid/icpc-1-nl"/>
                  <code value="L88.01"/>
                  <display value="Reumatoide artritis"/>
               </coding>
               <text value="Reumatoide artritis"/>
            </code>
            <subject>
<<<<<<< HEAD:ada_2_fhir-r4/mp/9.2.0/beschikbaarstellen_medicatiegegevens/fhir_instance/mg-mgrp-999900420-ALL.xml
               <reference value="urn:uuid:c33f0686-6a95-11ec-0000-020000000000"/>
=======
               <reference value="urn:uuid:c33f1432-6a95-11ec-0000-020000000000"/>
>>>>>>> origin/master:ada_2_fhir-r4/mp/9.2.0/beschikbaarstellen_medicatiegegevens/fhir_instance/mg-mgrp-999900481-ALL.xml
               <type value="Patient"/>
               <display value="Patient, D. XXX_Dixhoorn"/>
            </subject>
         </Condition>
      </resource>
      <request>
         <method value="POST"/>
         <url value="Condition"/>
      </request>
   </entry>
</Bundle>
