<Bundle xmlns="http://hl7.org/fhir">
   <id value="mg-mgrp-999900936-ALL"/>
   <type value="transaction"/>
   <entry>
<<<<<<< HEAD:ada_2_fhir-r4/mp/9.2.0/beschikbaarstellen_medicatiegegevens/fhir_instance/mg-mgrp-999900602-ALL.xml
      <fullUrl value="urn:uuid:c33f1982-6a95-11ec-0000-020000000000"/>
      <resource>
         <MedicationRequest>
            <id value="mp9-21684011138832431199977160760051-MBH200variabelefrequentieMA"/>
=======
      <fullUrl value="urn:uuid:c33f19aa-6a95-11ec-0000-020000000000"/>
      <resource>
         <MedicationRequest>
>>>>>>> origin/master:ada_2_fhir-r4/mp/9.2.0/beschikbaarstellen_medicatiegegevens/fhir_instance/mg-mgrp-999900936-ALL.xml
            <meta>
               <profile value="http://nictiz.nl/fhir/StructureDefinition/mp-MedicationAgreement"/>
            </meta>
            <extension url="http://nictiz.nl/fhir/StructureDefinition/ext-RenderedDosageInstruction">
               <valueString value="Vanaf T, tot en met T + 16 dagen, 1 à 2 maal per dag 1 stuk, Oraal"/>
            </extension>
            <extension url="http://nictiz.nl/fhir/StructureDefinition/ext-TimeInterval.Period">
               <valuePeriod>
                  <start value="${DATE, T, D, +0}T00:00:00+02:00"/>
                  <end value="${DATE, T, D, +16}T23:59:59+02:00"/>
               </valuePeriod>
            </extension>
            <extension url="http://nictiz.nl/fhir/StructureDefinition/ext-PharmaceuticalTreatment.Identifier">
               <valueIdentifier>
                  <system value="urn:oid:2.16.840.1.113883.2.4.3.11.999.77.1.1"/>
                  <value value="MBH_200_variabelefrequentie"/>
               </valueIdentifier>
            </extension>
            <identifier>
               <system value="urn:oid:2.16.840.1.113883.2.4.3.11.999.77.16076005.1"/>
               <value value="MBH_200_variabelefrequentie_MA"/>
            </identifier>
            <status value="unknown"/>
            <intent value="order"/>
            <category>
               <coding>
                  <system value="http://snomed.info/sct"/>
                  <code value="33633005"/>
                  <display value="voorschrijven van geneesmiddel"/>
               </coding>
            </category>
            <medicationReference>
<<<<<<< HEAD:ada_2_fhir-r4/mp/9.2.0/beschikbaarstellen_medicatiegegevens/fhir_instance/mg-mgrp-999900602-ALL.xml
               <reference value="urn:uuid:c33f1d42-6a95-11ec-0000-020000000000"/>
=======
               <reference value="urn:uuid:c33f1d6a-6a95-11ec-0000-020000000000"/>
>>>>>>> origin/master:ada_2_fhir-r4/mp/9.2.0/beschikbaarstellen_medicatiegegevens/fhir_instance/mg-mgrp-999900936-ALL.xml
               <type value="Medication"/>
               <display value="MIZOLASTINE TABLET MGA 10MG"/>
            </medicationReference>
            <subject>
<<<<<<< HEAD:ada_2_fhir-r4/mp/9.2.0/beschikbaarstellen_medicatiegegevens/fhir_instance/mg-mgrp-999900602-ALL.xml
               <reference value="urn:uuid:c33f1892-6a95-11ec-0000-020000000000"/>
=======
               <reference value="urn:uuid:c33f1950-6a95-11ec-0000-020000000000"/>
>>>>>>> origin/master:ada_2_fhir-r4/mp/9.2.0/beschikbaarstellen_medicatiegegevens/fhir_instance/mg-mgrp-999900936-ALL.xml
               <type value="Patient"/>
               <display value="Patient, M. XXX_Rambaldo"/>
            </subject>
            <authoredOn value="${DATE, T, D, +0}T08:00:00+02:00"/>
            <requester>
<<<<<<< HEAD:ada_2_fhir-r4/mp/9.2.0/beschikbaarstellen_medicatiegegevens/fhir_instance/mg-mgrp-999900602-ALL.xml
               <reference value="urn:uuid:c33f18ba-6a95-11ec-0000-020000000000"/>
=======
               <reference value="urn:uuid:c33f196e-6a95-11ec-0000-020000000000"/>
>>>>>>> origin/master:ada_2_fhir-r4/mp/9.2.0/beschikbaarstellen_medicatiegegevens/fhir_instance/mg-mgrp-999900936-ALL.xml
               <type value="PractitionerRole"/>
               <display value="Healthcare professional (role), Peter van Pulver, Huisartsen, niet nader gespecificeerd, Huisartsenpraktijk Pulver &amp; Partners"/>
            </requester>
            <dosageInstruction>
               <timing>
                  <repeat>
                     <frequency value="1"/>
                     <frequencyMax value="2"/>
                     <period value="1"/>
                     <periodUnit value="d"/>
                  </repeat>
               </timing>
               <route>
                  <coding>
                     <system value="urn:oid:2.16.840.1.113883.2.4.4.9"/>
                     <code value="9"/>
                     <display value="Oraal"/>
                  </coding>
               </route>
               <doseAndRate>
                  <doseQuantity>
                     <extension url="http://hl7.org/fhir/StructureDefinition/iso21090-PQ-translation">
                        <valueQuantity>
                           <value value="1"/>
                           <unit value="stuk"/>
                           <system value="urn:oid:2.16.840.1.113883.2.4.4.1.900.2"/>
                           <code value="245"/>
                        </valueQuantity>
                     </extension>
                     <value value="1"/>
                     <unit value="stuk"/>
                     <system value="http://unitsofmeasure.org"/>
                     <code value="1"/>
                  </doseQuantity>
               </doseAndRate>
            </dosageInstruction>
         </MedicationRequest>
      </resource>
      <request>
         <method value="POST"/>
         <url value="MedicationRequest"/>
      </request>
   </entry>
   <entry>
<<<<<<< HEAD:ada_2_fhir-r4/mp/9.2.0/beschikbaarstellen_medicatiegegevens/fhir_instance/mg-mgrp-999900602-ALL.xml
      <fullUrl value="urn:uuid:c33f19a0-6a95-11ec-0000-020000000000"/>
      <resource>
         <MedicationRequest>
            <id value="mp-MedAgr-mp9-21684011138832431199977160760051-MBH200intervalMA"/>
=======
      <fullUrl value="urn:uuid:c33f19c8-6a95-11ec-0000-020000000000"/>
      <resource>
         <MedicationRequest>
>>>>>>> origin/master:ada_2_fhir-r4/mp/9.2.0/beschikbaarstellen_medicatiegegevens/fhir_instance/mg-mgrp-999900936-ALL.xml
            <meta>
               <profile value="http://nictiz.nl/fhir/StructureDefinition/mp-MedicationAgreement"/>
            </meta>
            <extension url="http://nictiz.nl/fhir/StructureDefinition/ext-RenderedDosageInstruction">
               <valueString value="Vanaf T, iedere 8 uur 1 stuk - let op, tijden exact aanhouden, Oraal"/>
            </extension>
            <extension url="http://nictiz.nl/fhir/StructureDefinition/ext-TimeInterval.Period">
               <valuePeriod>
                  <start value="${DATE, T, D, +0}T00:00:00+02:00"/>
               </valuePeriod>
            </extension>
            <extension url="http://nictiz.nl/fhir/StructureDefinition/ext-PharmaceuticalTreatment.Identifier">
               <valueIdentifier>
                  <system value="urn:oid:2.16.840.1.113883.2.4.3.11.999.77.1.1"/>
                  <value value="MBH_200_interval"/>
               </valueIdentifier>
            </extension>
            <identifier>
               <system value="urn:oid:2.16.840.1.113883.2.4.3.11.999.77.16076005.1"/>
               <value value="MBH_200_interval_MA"/>
            </identifier>
            <status value="unknown"/>
            <intent value="order"/>
            <category>
               <coding>
                  <system value="http://snomed.info/sct"/>
                  <code value="33633005"/>
                  <display value="voorschrijven van geneesmiddel"/>
               </coding>
            </category>
            <medicationReference>
<<<<<<< HEAD:ada_2_fhir-r4/mp/9.2.0/beschikbaarstellen_medicatiegegevens/fhir_instance/mg-mgrp-999900602-ALL.xml
               <reference value="urn:uuid:c33f1d7e-6a95-11ec-0000-020000000000"/>
=======
               <reference value="urn:uuid:c33f1da6-6a95-11ec-0000-020000000000"/>
>>>>>>> origin/master:ada_2_fhir-r4/mp/9.2.0/beschikbaarstellen_medicatiegegevens/fhir_instance/mg-mgrp-999900936-ALL.xml
               <type value="Medication"/>
               <display value="AMOXICILLINE DISPERTABLET 500MG"/>
            </medicationReference>
            <subject>
<<<<<<< HEAD:ada_2_fhir-r4/mp/9.2.0/beschikbaarstellen_medicatiegegevens/fhir_instance/mg-mgrp-999900602-ALL.xml
               <reference value="urn:uuid:c33f1892-6a95-11ec-0000-020000000000"/>
=======
               <reference value="urn:uuid:c33f1950-6a95-11ec-0000-020000000000"/>
>>>>>>> origin/master:ada_2_fhir-r4/mp/9.2.0/beschikbaarstellen_medicatiegegevens/fhir_instance/mg-mgrp-999900936-ALL.xml
               <type value="Patient"/>
               <display value="Patient, M. XXX_Rambaldo"/>
            </subject>
            <authoredOn value="${DATE, T, D, +0}T08:04:00+02:00"/>
            <requester>
<<<<<<< HEAD:ada_2_fhir-r4/mp/9.2.0/beschikbaarstellen_medicatiegegevens/fhir_instance/mg-mgrp-999900602-ALL.xml
               <reference value="urn:uuid:c33f18ba-6a95-11ec-0000-020000000000"/>
=======
               <reference value="urn:uuid:c33f196e-6a95-11ec-0000-020000000000"/>
>>>>>>> origin/master:ada_2_fhir-r4/mp/9.2.0/beschikbaarstellen_medicatiegegevens/fhir_instance/mg-mgrp-999900936-ALL.xml
               <type value="PractitionerRole"/>
               <display value="Healthcare professional (role), Peter van Pulver, Huisartsen, niet nader gespecificeerd, Huisartsenpraktijk Pulver &amp; Partners"/>
            </requester>
            <dosageInstruction>
               <timing>
                  <repeat>
                     <extension url="http://hl7.org/fhir/StructureDefinition/timing-exact">
                        <valueBoolean value="true"/>
                     </extension>
                     <frequency value="1"/>
                     <period value="8"/>
                     <periodUnit value="h"/>
                  </repeat>
               </timing>
               <route>
                  <coding>
                     <system value="urn:oid:2.16.840.1.113883.2.4.4.9"/>
                     <code value="9"/>
                     <display value="Oraal"/>
                  </coding>
               </route>
               <doseAndRate>
                  <doseQuantity>
                     <extension url="http://hl7.org/fhir/StructureDefinition/iso21090-PQ-translation">
                        <valueQuantity>
                           <value value="1"/>
                           <unit value="stuk"/>
                           <system value="urn:oid:2.16.840.1.113883.2.4.4.1.900.2"/>
                           <code value="245"/>
                        </valueQuantity>
                     </extension>
                     <value value="1"/>
                     <unit value="stuk"/>
                     <system value="http://unitsofmeasure.org"/>
                     <code value="1"/>
                  </doseQuantity>
               </doseAndRate>
            </dosageInstruction>
         </MedicationRequest>
      </resource>
      <request>
         <method value="POST"/>
         <url value="MedicationRequest"/>
      </request>
   </entry>
   <entry>
<<<<<<< HEAD:ada_2_fhir-r4/mp/9.2.0/beschikbaarstellen_medicatiegegevens/fhir_instance/mg-mgrp-999900602-ALL.xml
      <fullUrl value="urn:uuid:c33f19be-6a95-11ec-0000-020000000000"/>
      <resource>
         <MedicationRequest>
            <id value="p9-21684011138832431199977160760051-MBH200variabelehoeveelheidMA"/>
=======
      <fullUrl value="urn:uuid:c33f19e6-6a95-11ec-0000-020000000000"/>
      <resource>
         <MedicationRequest>
>>>>>>> origin/master:ada_2_fhir-r4/mp/9.2.0/beschikbaarstellen_medicatiegegevens/fhir_instance/mg-mgrp-999900936-ALL.xml
            <meta>
               <profile value="http://nictiz.nl/fhir/StructureDefinition/mp-MedicationAgreement"/>
            </meta>
            <extension url="http://nictiz.nl/fhir/StructureDefinition/ext-RenderedDosageInstruction">
               <valueString value="Vanaf T, tot en met T + 28 dagen, 3 maal per dag 1 à 2 stuks, oraal"/>
            </extension>
            <extension url="http://nictiz.nl/fhir/StructureDefinition/ext-TimeInterval.Period">
               <valuePeriod>
                  <start value="${DATE, T, D, +0}T00:00:00+02:00"/>
                  <end value="${DATE, T, D, +28}T23:59:59+02:00"/>
               </valuePeriod>
            </extension>
            <extension url="http://nictiz.nl/fhir/StructureDefinition/ext-PharmaceuticalTreatment.Identifier">
               <valueIdentifier>
                  <system value="urn:oid:2.16.840.1.113883.2.4.3.11.999.77.1.1"/>
                  <value value="MBH_200_variabelehoeveelheid"/>
               </valueIdentifier>
            </extension>
            <identifier>
               <system value="urn:oid:2.16.840.1.113883.2.4.3.11.999.77.16076005.1"/>
               <value value="MBH_200_variabelehoeveelheid_MA"/>
            </identifier>
            <status value="unknown"/>
            <intent value="order"/>
            <category>
               <coding>
                  <system value="http://snomed.info/sct"/>
                  <code value="33633005"/>
                  <display value="voorschrijven van geneesmiddel"/>
               </coding>
            </category>
            <medicationReference>
<<<<<<< HEAD:ada_2_fhir-r4/mp/9.2.0/beschikbaarstellen_medicatiegegevens/fhir_instance/mg-mgrp-999900602-ALL.xml
               <reference value="urn:uuid:c33f1dba-6a95-11ec-0000-020000000000"/>
=======
               <reference value="urn:uuid:c33f1de2-6a95-11ec-0000-020000000000"/>
>>>>>>> origin/master:ada_2_fhir-r4/mp/9.2.0/beschikbaarstellen_medicatiegegevens/fhir_instance/mg-mgrp-999900936-ALL.xml
               <type value="Medication"/>
               <display value="PARACETAMOL 500MG TABLET"/>
            </medicationReference>
            <subject>
<<<<<<< HEAD:ada_2_fhir-r4/mp/9.2.0/beschikbaarstellen_medicatiegegevens/fhir_instance/mg-mgrp-999900602-ALL.xml
               <reference value="urn:uuid:c33f1892-6a95-11ec-0000-020000000000"/>
=======
               <reference value="urn:uuid:c33f1950-6a95-11ec-0000-020000000000"/>
>>>>>>> origin/master:ada_2_fhir-r4/mp/9.2.0/beschikbaarstellen_medicatiegegevens/fhir_instance/mg-mgrp-999900936-ALL.xml
               <type value="Patient"/>
               <display value="Patient, M. XXX_Rambaldo"/>
            </subject>
            <authoredOn value="${DATE, T, D, +0}T08:10:00+02:00"/>
            <requester>
<<<<<<< HEAD:ada_2_fhir-r4/mp/9.2.0/beschikbaarstellen_medicatiegegevens/fhir_instance/mg-mgrp-999900602-ALL.xml
               <reference value="urn:uuid:c33f18ba-6a95-11ec-0000-020000000000"/>
=======
               <reference value="urn:uuid:c33f196e-6a95-11ec-0000-020000000000"/>
>>>>>>> origin/master:ada_2_fhir-r4/mp/9.2.0/beschikbaarstellen_medicatiegegevens/fhir_instance/mg-mgrp-999900936-ALL.xml
               <type value="PractitionerRole"/>
               <display value="Healthcare professional (role), Peter van Pulver, Huisartsen, niet nader gespecificeerd, Huisartsenpraktijk Pulver &amp; Partners"/>
            </requester>
            <dosageInstruction>
               <timing>
                  <repeat>
                     <frequency value="3"/>
                     <period value="1"/>
                     <periodUnit value="d"/>
                  </repeat>
               </timing>
               <route>
                  <coding>
                     <system value="urn:oid:2.16.840.1.113883.2.4.4.9"/>
                     <code value="9"/>
                     <display value="oraal"/>
                  </coding>
               </route>
               <doseAndRate>
                  <doseRange>
                     <low>
                        <extension url="http://hl7.org/fhir/StructureDefinition/iso21090-PQ-translation">
                           <valueQuantity>
                              <value value="1"/>
                              <unit value="stuk"/>
                              <system value="urn:oid:2.16.840.1.113883.2.4.4.1.900.2"/>
                              <code value="245"/>
                           </valueQuantity>
                        </extension>
                        <value value="1"/>
                        <unit value="stuk"/>
                        <system value="http://unitsofmeasure.org"/>
                        <code value="1"/>
                     </low>
                     <high>
                        <extension url="http://hl7.org/fhir/StructureDefinition/iso21090-PQ-translation">
                           <valueQuantity>
                              <value value="2"/>
                              <unit value="stuk"/>
                              <system value="urn:oid:2.16.840.1.113883.2.4.4.1.900.2"/>
                              <code value="245"/>
                           </valueQuantity>
                        </extension>
                        <value value="2"/>
                        <unit value="stuk"/>
                        <system value="http://unitsofmeasure.org"/>
                        <code value="1"/>
                     </high>
                  </doseRange>
               </doseAndRate>
            </dosageInstruction>
         </MedicationRequest>
      </resource>
      <request>
         <method value="POST"/>
         <url value="MedicationRequest"/>
      </request>
   </entry>
   <entry>
<<<<<<< HEAD:ada_2_fhir-r4/mp/9.2.0/beschikbaarstellen_medicatiegegevens/fhir_instance/mg-mgrp-999900602-ALL.xml
      <fullUrl value="urn:uuid:c33f19dc-6a95-11ec-0000-020000000000"/>
      <resource>
         <MedicationRequest>
            <id value="Agr-mp9-21684011138832431199977160760051-MBH200zonderkeerdosisMA"/>
=======
      <fullUrl value="urn:uuid:c33f1a04-6a95-11ec-0000-020000000000"/>
      <resource>
         <MedicationRequest>
>>>>>>> origin/master:ada_2_fhir-r4/mp/9.2.0/beschikbaarstellen_medicatiegegevens/fhir_instance/mg-mgrp-999900936-ALL.xml
            <meta>
               <profile value="http://nictiz.nl/fhir/StructureDefinition/mp-MedicationAgreement"/>
            </meta>
            <extension url="http://nictiz.nl/fhir/StructureDefinition/ext-RenderedDosageInstruction">
               <valueString value="Vanaf T, tot en met T + 28 dagen, 3 maal per dag, aanbrengen, cutaan"/>
            </extension>
            <extension url="http://nictiz.nl/fhir/StructureDefinition/ext-TimeInterval.Period">
               <valuePeriod>
                  <start value="${DATE, T, D, +0}T00:00:00+02:00"/>
                  <end value="${DATE, T, D, +28}T23:59:59+02:00"/>
               </valuePeriod>
            </extension>
            <extension url="http://nictiz.nl/fhir/StructureDefinition/ext-PharmaceuticalTreatment.Identifier">
               <valueIdentifier>
                  <system value="urn:oid:2.16.840.1.113883.2.4.3.11.999.77.1.1"/>
                  <value value="MBH_200_zonderkeerdosis"/>
               </valueIdentifier>
            </extension>
            <identifier>
               <system value="urn:oid:2.16.840.1.113883.2.4.3.11.999.77.16076005.1"/>
               <value value="MBH_200_zonderkeerdosis_MA"/>
            </identifier>
            <status value="unknown"/>
            <intent value="order"/>
            <category>
               <coding>
                  <system value="http://snomed.info/sct"/>
                  <code value="33633005"/>
                  <display value="voorschrijven van geneesmiddel"/>
               </coding>
            </category>
            <medicationReference>
<<<<<<< HEAD:ada_2_fhir-r4/mp/9.2.0/beschikbaarstellen_medicatiegegevens/fhir_instance/mg-mgrp-999900602-ALL.xml
               <reference value="urn:uuid:c33f1df6-6a95-11ec-0000-020000000000"/>
=======
               <reference value="urn:uuid:c33f1e1e-6a95-11ec-0000-020000000000"/>
>>>>>>> origin/master:ada_2_fhir-r4/mp/9.2.0/beschikbaarstellen_medicatiegegevens/fhir_instance/mg-mgrp-999900936-ALL.xml
               <type value="Medication"/>
               <display value="Cetomacrogolcreme met vaseline 10%"/>
            </medicationReference>
            <subject>
<<<<<<< HEAD:ada_2_fhir-r4/mp/9.2.0/beschikbaarstellen_medicatiegegevens/fhir_instance/mg-mgrp-999900602-ALL.xml
               <reference value="urn:uuid:c33f1892-6a95-11ec-0000-020000000000"/>
=======
               <reference value="urn:uuid:c33f1950-6a95-11ec-0000-020000000000"/>
>>>>>>> origin/master:ada_2_fhir-r4/mp/9.2.0/beschikbaarstellen_medicatiegegevens/fhir_instance/mg-mgrp-999900936-ALL.xml
               <type value="Patient"/>
               <display value="Patient, M. XXX_Rambaldo"/>
            </subject>
            <authoredOn value="${DATE, T, D, +0}T08:12:00+02:00"/>
            <requester>
<<<<<<< HEAD:ada_2_fhir-r4/mp/9.2.0/beschikbaarstellen_medicatiegegevens/fhir_instance/mg-mgrp-999900602-ALL.xml
               <reference value="urn:uuid:c33f18ba-6a95-11ec-0000-020000000000"/>
=======
               <reference value="urn:uuid:c33f196e-6a95-11ec-0000-020000000000"/>
>>>>>>> origin/master:ada_2_fhir-r4/mp/9.2.0/beschikbaarstellen_medicatiegegevens/fhir_instance/mg-mgrp-999900936-ALL.xml
               <type value="PractitionerRole"/>
               <display value="Healthcare professional (role), Peter van Pulver, Huisartsen, niet nader gespecificeerd, Huisartsenpraktijk Pulver &amp; Partners"/>
            </requester>
            <dosageInstruction>
               <additionalInstruction>
                  <coding>
                     <system value="https://referentiemodel.nhg.org/tabellen/nhg-tabel-25-gebruiksvoorschrift#aanvullend-numeriek"/>
                     <code value="1018"/>
                     <display value="aanbrengen"/>
                  </coding>
               </additionalInstruction>
               <timing>
                  <repeat>
                     <frequency value="3"/>
                     <period value="1"/>
                     <periodUnit value="d"/>
                  </repeat>
               </timing>
               <route>
                  <coding>
                     <system value="urn:oid:2.16.840.1.113883.2.4.4.9"/>
                     <code value="53"/>
                     <display value="cutaan"/>
                  </coding>
               </route>
            </dosageInstruction>
         </MedicationRequest>
      </resource>
      <request>
         <method value="POST"/>
         <url value="MedicationRequest"/>
      </request>
   </entry>
   <entry>
<<<<<<< HEAD:ada_2_fhir-r4/mp/9.2.0/beschikbaarstellen_medicatiegegevens/fhir_instance/mg-mgrp-999900602-ALL.xml
      <fullUrl value="urn:uuid:c33f19fa-6a95-11ec-0000-020000000000"/>
      <resource>
         <MedicationRequest>
            <id value="mp9-21684011138832431199977160760051-MBH200bijzonderekeerdosisMA"/>
=======
      <fullUrl value="urn:uuid:c33f1a22-6a95-11ec-0000-020000000000"/>
      <resource>
         <MedicationRequest>
>>>>>>> origin/master:ada_2_fhir-r4/mp/9.2.0/beschikbaarstellen_medicatiegegevens/fhir_instance/mg-mgrp-999900936-ALL.xml
            <meta>
               <profile value="http://nictiz.nl/fhir/StructureDefinition/mp-MedicationAgreement"/>
            </meta>
            <extension url="http://nictiz.nl/fhir/StructureDefinition/ext-RenderedDosageInstruction">
               <valueString value="Vanaf T, tot en met T + 28 dagen, 2 maal per dag 0.5 stuk, oraal"/>
            </extension>
            <extension url="http://nictiz.nl/fhir/StructureDefinition/ext-TimeInterval.Period">
               <valuePeriod>
                  <start value="${DATE, T, D, +0}T00:00:00+02:00"/>
                  <end value="${DATE, T, D, +28}T23:59:59+02:00"/>
               </valuePeriod>
            </extension>
            <extension url="http://nictiz.nl/fhir/StructureDefinition/ext-PharmaceuticalTreatment.Identifier">
               <valueIdentifier>
                  <system value="urn:oid:2.16.840.1.113883.2.4.3.11.999.77.1.1"/>
                  <value value="MBH_200_bijzonderekeerdosis"/>
               </valueIdentifier>
            </extension>
            <identifier>
               <system value="urn:oid:2.16.840.1.113883.2.4.3.11.999.77.16076005.1"/>
               <value value="MBH_200_bijzonderekeerdosis_MA"/>
            </identifier>
            <status value="unknown"/>
            <intent value="order"/>
            <category>
               <coding>
                  <system value="http://snomed.info/sct"/>
                  <code value="33633005"/>
                  <display value="voorschrijven van geneesmiddel"/>
               </coding>
            </category>
            <medicationReference>
<<<<<<< HEAD:ada_2_fhir-r4/mp/9.2.0/beschikbaarstellen_medicatiegegevens/fhir_instance/mg-mgrp-999900602-ALL.xml
               <reference value="urn:uuid:c33f1e32-6a95-11ec-0000-020000000000"/>
=======
               <reference value="urn:uuid:c33f1e5a-6a95-11ec-0000-020000000000"/>
>>>>>>> origin/master:ada_2_fhir-r4/mp/9.2.0/beschikbaarstellen_medicatiegegevens/fhir_instance/mg-mgrp-999900936-ALL.xml
               <type value="Medication"/>
               <display value="NAPROXEN 500MG TABLET"/>
            </medicationReference>
            <subject>
<<<<<<< HEAD:ada_2_fhir-r4/mp/9.2.0/beschikbaarstellen_medicatiegegevens/fhir_instance/mg-mgrp-999900602-ALL.xml
               <reference value="urn:uuid:c33f1892-6a95-11ec-0000-020000000000"/>
=======
               <reference value="urn:uuid:c33f1950-6a95-11ec-0000-020000000000"/>
>>>>>>> origin/master:ada_2_fhir-r4/mp/9.2.0/beschikbaarstellen_medicatiegegevens/fhir_instance/mg-mgrp-999900936-ALL.xml
               <type value="Patient"/>
               <display value="Patient, M. XXX_Rambaldo"/>
            </subject>
            <authoredOn value="${DATE, T, D, +0}T08:15:00+02:00"/>
            <requester>
<<<<<<< HEAD:ada_2_fhir-r4/mp/9.2.0/beschikbaarstellen_medicatiegegevens/fhir_instance/mg-mgrp-999900602-ALL.xml
               <reference value="urn:uuid:c33f18ba-6a95-11ec-0000-020000000000"/>
=======
               <reference value="urn:uuid:c33f196e-6a95-11ec-0000-020000000000"/>
>>>>>>> origin/master:ada_2_fhir-r4/mp/9.2.0/beschikbaarstellen_medicatiegegevens/fhir_instance/mg-mgrp-999900936-ALL.xml
               <type value="PractitionerRole"/>
               <display value="Healthcare professional (role), Peter van Pulver, Huisartsen, niet nader gespecificeerd, Huisartsenpraktijk Pulver &amp; Partners"/>
            </requester>
            <dosageInstruction>
               <timing>
                  <repeat>
                     <frequency value="2"/>
                     <period value="1"/>
                     <periodUnit value="d"/>
                  </repeat>
               </timing>
               <route>
                  <coding>
                     <system value="urn:oid:2.16.840.1.113883.2.4.4.9"/>
                     <code value="9"/>
                     <display value="oraal"/>
                  </coding>
               </route>
               <doseAndRate>
                  <doseQuantity>
                     <extension url="http://hl7.org/fhir/StructureDefinition/iso21090-PQ-translation">
                        <valueQuantity>
                           <value value="0.5"/>
                           <unit value="stuk"/>
                           <system value="urn:oid:2.16.840.1.113883.2.4.4.1.900.2"/>
                           <code value="245"/>
                        </valueQuantity>
                     </extension>
                     <value value="0.5"/>
                     <unit value="stuk"/>
                     <system value="http://unitsofmeasure.org"/>
                     <code value="1"/>
                  </doseQuantity>
               </doseAndRate>
            </dosageInstruction>
         </MedicationRequest>
      </resource>
      <request>
         <method value="POST"/>
         <url value="MedicationRequest"/>
      </request>
   </entry>
   <entry>
<<<<<<< HEAD:ada_2_fhir-r4/mp/9.2.0/beschikbaarstellen_medicatiegegevens/fhir_instance/mg-mgrp-999900602-ALL.xml
      <fullUrl value="urn:uuid:c33f1a18-6a95-11ec-0000-020000000000"/>
      <resource>
         <MedicationRequest>
            <id value="9-21684011138832431199977160760051-MBH200variabelehoeveelheid2MA"/>
=======
      <fullUrl value="urn:uuid:c33f1a40-6a95-11ec-0000-020000000000"/>
      <resource>
         <MedicationRequest>
>>>>>>> origin/master:ada_2_fhir-r4/mp/9.2.0/beschikbaarstellen_medicatiegegevens/fhir_instance/mg-mgrp-999900936-ALL.xml
            <meta>
               <profile value="http://nictiz.nl/fhir/StructureDefinition/mp-MedicationAgreement"/>
            </meta>
            <extension url="http://nictiz.nl/fhir/StructureDefinition/ext-RenderedDosageInstruction">
               <valueString value="Vanaf T, tot en met T + 28 dagen, 2 maal per dag 10 à 15 ml, Eerst oplossen in water, mond spoelen, daarna uitspugen, OROMUCOSAAL"/>
            </extension>
            <extension url="http://nictiz.nl/fhir/StructureDefinition/ext-TimeInterval.Period">
               <valuePeriod>
                  <start value="${DATE, T, D, +0}T00:00:00+02:00"/>
                  <end value="${DATE, T, D, +28}T23:59:59+02:00"/>
               </valuePeriod>
            </extension>
            <extension url="http://nictiz.nl/fhir/StructureDefinition/ext-PharmaceuticalTreatment.Identifier">
               <valueIdentifier>
                  <system value="urn:oid:2.16.840.1.113883.2.4.3.11.999.77.1.1"/>
                  <value value="MBH_200_variabelehoeveelheid2"/>
               </valueIdentifier>
            </extension>
            <identifier>
               <system value="urn:oid:2.16.840.1.113883.2.4.3.11.999.77.16076005.1"/>
               <value value="MBH_200_variabelehoeveelheid2_MA"/>
            </identifier>
            <status value="unknown"/>
            <intent value="order"/>
            <category>
               <coding>
                  <system value="http://snomed.info/sct"/>
                  <code value="33633005"/>
                  <display value="voorschrijven van geneesmiddel"/>
               </coding>
            </category>
            <medicationReference>
<<<<<<< HEAD:ada_2_fhir-r4/mp/9.2.0/beschikbaarstellen_medicatiegegevens/fhir_instance/mg-mgrp-999900602-ALL.xml
               <reference value="urn:uuid:c33f1e6e-6a95-11ec-0000-020000000000"/>
=======
               <reference value="urn:uuid:c33f1e96-6a95-11ec-0000-020000000000"/>
>>>>>>> origin/master:ada_2_fhir-r4/mp/9.2.0/beschikbaarstellen_medicatiegegevens/fhir_instance/mg-mgrp-999900936-ALL.xml
               <type value="Medication"/>
               <display value="WATERSTOFPEROXIDE CONC VOOR MONDSPOELING 30MG/ML"/>
            </medicationReference>
            <subject>
<<<<<<< HEAD:ada_2_fhir-r4/mp/9.2.0/beschikbaarstellen_medicatiegegevens/fhir_instance/mg-mgrp-999900602-ALL.xml
               <reference value="urn:uuid:c33f1892-6a95-11ec-0000-020000000000"/>
=======
               <reference value="urn:uuid:c33f1950-6a95-11ec-0000-020000000000"/>
>>>>>>> origin/master:ada_2_fhir-r4/mp/9.2.0/beschikbaarstellen_medicatiegegevens/fhir_instance/mg-mgrp-999900936-ALL.xml
               <type value="Patient"/>
               <display value="Patient, M. XXX_Rambaldo"/>
            </subject>
            <authoredOn value="${DATE, T, D, +0}T08:18:00+02:00"/>
            <requester>
<<<<<<< HEAD:ada_2_fhir-r4/mp/9.2.0/beschikbaarstellen_medicatiegegevens/fhir_instance/mg-mgrp-999900602-ALL.xml
               <reference value="urn:uuid:c33f18ba-6a95-11ec-0000-020000000000"/>
=======
               <reference value="urn:uuid:c33f196e-6a95-11ec-0000-020000000000"/>
>>>>>>> origin/master:ada_2_fhir-r4/mp/9.2.0/beschikbaarstellen_medicatiegegevens/fhir_instance/mg-mgrp-999900936-ALL.xml
               <type value="PractitionerRole"/>
               <display value="Healthcare professional (role), Peter van Pulver, Huisartsen, niet nader gespecificeerd, Huisartsenpraktijk Pulver &amp; Partners"/>
            </requester>
            <dosageInstruction>
               <additionalInstruction>
                  <coding>
                     <system value="https://referentiemodel.nhg.org/tabellen/nhg-tabel-25-gebruiksvoorschrift#aanvullend-numeriek"/>
                     <code value="27"/>
                     <display value="Eerst oplossen in water"/>
                  </coding>
               </additionalInstruction>
               <additionalInstruction>
                  <coding>
                     <system value="https://referentiemodel.nhg.org/tabellen/nhg-tabel-25-gebruiksvoorschrift#aanvullend-numeriek"/>
                     <code value="69"/>
                     <display value="mond spoelen, daarna uitspugen"/>
                  </coding>
               </additionalInstruction>
               <timing>
                  <repeat>
                     <frequency value="2"/>
                     <period value="1"/>
                     <periodUnit value="d"/>
                  </repeat>
               </timing>
               <route>
                  <coding>
                     <system value="urn:oid:2.16.840.1.113883.2.4.4.9"/>
                     <code value="34"/>
                     <display value="OROMUCOSAAL"/>
                  </coding>
               </route>
               <doseAndRate>
                  <doseRange>
                     <low>
                        <extension url="http://hl7.org/fhir/StructureDefinition/iso21090-PQ-translation">
                           <valueQuantity>
                              <value value="10"/>
                              <unit value="milliliter"/>
                              <system value="urn:oid:2.16.840.1.113883.2.4.4.1.900.2"/>
                              <code value="233"/>
                           </valueQuantity>
                        </extension>
                        <value value="10"/>
                        <unit value="milliliter"/>
                        <system value="http://unitsofmeasure.org"/>
                        <code value="ml"/>
                     </low>
                     <high>
                        <extension url="http://hl7.org/fhir/StructureDefinition/iso21090-PQ-translation">
                           <valueQuantity>
                              <value value="15"/>
                              <unit value="milliliter"/>
                              <system value="urn:oid:2.16.840.1.113883.2.4.4.1.900.2"/>
                              <code value="233"/>
                           </valueQuantity>
                        </extension>
                        <value value="15"/>
                        <unit value="milliliter"/>
                        <system value="http://unitsofmeasure.org"/>
                        <code value="ml"/>
                     </high>
                  </doseRange>
               </doseAndRate>
            </dosageInstruction>
         </MedicationRequest>
      </resource>
      <request>
         <method value="POST"/>
         <url value="MedicationRequest"/>
      </request>
   </entry>
   <entry>
<<<<<<< HEAD:ada_2_fhir-r4/mp/9.2.0/beschikbaarstellen_medicatiegegevens/fhir_instance/mg-mgrp-999900602-ALL.xml
      <fullUrl value="urn:uuid:c33f1a36-6a95-11ec-0000-020000000000"/>
      <resource>
         <MedicationRequest>
            <id value="mp-MedAgr-mp9-c33f18bf-6a95-11ec-0000-020000000000"/>
=======
      <fullUrl value="urn:uuid:c33f1a5e-6a95-11ec-0000-020000000000"/>
      <resource>
         <MedicationRequest>
>>>>>>> origin/master:ada_2_fhir-r4/mp/9.2.0/beschikbaarstellen_medicatiegegevens/fhir_instance/mg-mgrp-999900936-ALL.xml
            <meta>
               <profile value="http://nictiz.nl/fhir/StructureDefinition/mp-MedicationAgreement"/>
            </meta>
            <extension url="http://nictiz.nl/fhir/StructureDefinition/ext-RenderedDosageInstruction">
               <valueString value="Vanaf T, tot en met T + 7 dagen, elke dag om 09:00, 12:00 en 15:00 1 stuk - let op, tijden exact aanhouden, oraal"/>
            </extension>
            <extension url="http://nictiz.nl/fhir/StructureDefinition/ext-TimeInterval.Period">
               <valuePeriod>
                  <start value="${DATE, T, D, +0}T00:00:00+02:00"/>
                  <end value="${DATE, T, D, +7}T23:59:59+02:00"/>
               </valuePeriod>
            </extension>
            <extension url="http://nictiz.nl/fhir/StructureDefinition/ext-PharmaceuticalTreatment.Identifier">
               <valueIdentifier>
                  <system value="urn:oid:2.16.840.1.113883.2.4.3.11.999.77.1.1"/>
                  <value value="MBH_200_tijdstippen_niet_flexibel"/>
               </valueIdentifier>
            </extension>
            <identifier>
               <system value="urn:oid:2.16.840.1.113883.2.4.3.11.999.77.16076005.1"/>
               <value value="MBH_200_tijdstippen_niet_flexibel_MA"/>
            </identifier>
            <status value="unknown"/>
            <intent value="order"/>
            <category>
               <coding>
                  <system value="http://snomed.info/sct"/>
                  <code value="33633005"/>
                  <display value="voorschrijven van geneesmiddel"/>
               </coding>
            </category>
            <medicationReference>
<<<<<<< HEAD:ada_2_fhir-r4/mp/9.2.0/beschikbaarstellen_medicatiegegevens/fhir_instance/mg-mgrp-999900602-ALL.xml
               <reference value="urn:uuid:c33f1eaa-6a95-11ec-0000-020000000000"/>
=======
               <reference value="urn:uuid:c33f1ed2-6a95-11ec-0000-020000000000"/>
>>>>>>> origin/master:ada_2_fhir-r4/mp/9.2.0/beschikbaarstellen_medicatiegegevens/fhir_instance/mg-mgrp-999900936-ALL.xml
               <type value="Medication"/>
               <display value="METFORMINE 500MG TABLET"/>
            </medicationReference>
            <subject>
<<<<<<< HEAD:ada_2_fhir-r4/mp/9.2.0/beschikbaarstellen_medicatiegegevens/fhir_instance/mg-mgrp-999900602-ALL.xml
               <reference value="urn:uuid:c33f1892-6a95-11ec-0000-020000000000"/>
=======
               <reference value="urn:uuid:c33f1950-6a95-11ec-0000-020000000000"/>
>>>>>>> origin/master:ada_2_fhir-r4/mp/9.2.0/beschikbaarstellen_medicatiegegevens/fhir_instance/mg-mgrp-999900936-ALL.xml
               <type value="Patient"/>
               <display value="Patient, M. XXX_Rambaldo"/>
            </subject>
            <authoredOn value="${DATE, T, D, +0}T09:15:00+02:00"/>
            <requester>
<<<<<<< HEAD:ada_2_fhir-r4/mp/9.2.0/beschikbaarstellen_medicatiegegevens/fhir_instance/mg-mgrp-999900602-ALL.xml
               <reference value="urn:uuid:c33f18ba-6a95-11ec-0000-020000000000"/>
=======
               <reference value="urn:uuid:c33f196e-6a95-11ec-0000-020000000000"/>
>>>>>>> origin/master:ada_2_fhir-r4/mp/9.2.0/beschikbaarstellen_medicatiegegevens/fhir_instance/mg-mgrp-999900936-ALL.xml
               <type value="PractitionerRole"/>
               <display value="Healthcare professional (role), Peter van Pulver, Huisartsen, niet nader gespecificeerd, Huisartsenpraktijk Pulver &amp; Partners"/>
            </requester>
            <dosageInstruction>
               <timing>
                  <repeat>
                     <extension url="http://hl7.org/fhir/StructureDefinition/timing-exact">
                        <valueBoolean value="true"/>
                     </extension>
                     <timeOfDay value="09:00:00"/>
                     <timeOfDay value="12:00:00"/>
                     <timeOfDay value="15:00:00"/>
                  </repeat>
               </timing>
               <route>
                  <coding>
                     <system value="urn:oid:2.16.840.1.113883.2.4.4.9"/>
                     <code value="9"/>
                     <display value="oraal"/>
                  </coding>
               </route>
               <doseAndRate>
                  <doseQuantity>
                     <extension url="http://hl7.org/fhir/StructureDefinition/iso21090-PQ-translation">
                        <valueQuantity>
                           <value value="1"/>
                           <unit value="stuk"/>
                           <system value="urn:oid:2.16.840.1.113883.2.4.4.1.900.2"/>
                           <code value="245"/>
                        </valueQuantity>
                     </extension>
                     <value value="1"/>
                     <unit value="stuk"/>
                     <system value="http://unitsofmeasure.org"/>
                     <code value="1"/>
                  </doseQuantity>
               </doseAndRate>
            </dosageInstruction>
         </MedicationRequest>
      </resource>
      <request>
         <method value="POST"/>
         <url value="MedicationRequest"/>
      </request>
   </entry>
   <entry>
<<<<<<< HEAD:ada_2_fhir-r4/mp/9.2.0/beschikbaarstellen_medicatiegegevens/fhir_instance/mg-mgrp-999900602-ALL.xml
      <fullUrl value="urn:uuid:c33f1a54-6a95-11ec-0000-020000000000"/>
      <resource>
         <MedicationRequest>
            <id value="mp-MedAgr-mp9-21684011138832431199977160760051-MBH200weekdagenMA"/>
=======
      <fullUrl value="urn:uuid:c33f1a7c-6a95-11ec-0000-020000000000"/>
      <resource>
         <MedicationRequest>
>>>>>>> origin/master:ada_2_fhir-r4/mp/9.2.0/beschikbaarstellen_medicatiegegevens/fhir_instance/mg-mgrp-999900936-ALL.xml
            <meta>
               <profile value="http://nictiz.nl/fhir/StructureDefinition/mp-MedicationAgreement"/>
            </meta>
            <extension url="http://nictiz.nl/fhir/StructureDefinition/ext-RenderedDosageInstruction">
               <valueString value="Vanaf T, tot en met T + 70 dagen, op maandag, woensdag en vrijdag, voor de nacht, aanbrengen, cutaan"/>
            </extension>
            <extension url="http://nictiz.nl/fhir/StructureDefinition/ext-TimeInterval.Period">
               <valuePeriod>
                  <start value="${DATE, T, D, +0}T00:00:00+02:00"/>
                  <end value="${DATE, T, D, +70}T23:59:59+02:00"/>
               </valuePeriod>
            </extension>
            <extension url="http://nictiz.nl/fhir/StructureDefinition/ext-PharmaceuticalTreatment.Identifier">
               <valueIdentifier>
                  <system value="urn:oid:2.16.840.1.113883.2.4.3.11.999.77.1.1"/>
                  <value value="MBH_200_weekdagen"/>
               </valueIdentifier>
            </extension>
            <identifier>
               <system value="urn:oid:2.16.840.1.113883.2.4.3.11.999.77.16076005.1"/>
               <value value="MBH_200_weekdagen_MA"/>
            </identifier>
            <status value="unknown"/>
            <intent value="order"/>
            <category>
               <coding>
                  <system value="http://snomed.info/sct"/>
                  <code value="33633005"/>
                  <display value="voorschrijven van geneesmiddel"/>
               </coding>
            </category>
            <medicationReference>
<<<<<<< HEAD:ada_2_fhir-r4/mp/9.2.0/beschikbaarstellen_medicatiegegevens/fhir_instance/mg-mgrp-999900602-ALL.xml
               <reference value="urn:uuid:c33f1ee6-6a95-11ec-0000-020000000000"/>
=======
               <reference value="urn:uuid:c33f1f0e-6a95-11ec-0000-020000000000"/>
>>>>>>> origin/master:ada_2_fhir-r4/mp/9.2.0/beschikbaarstellen_medicatiegegevens/fhir_instance/mg-mgrp-999900936-ALL.xml
               <type value="Medication"/>
               <display value="IMIQUIMOD 50MG/G CREME"/>
            </medicationReference>
            <subject>
<<<<<<< HEAD:ada_2_fhir-r4/mp/9.2.0/beschikbaarstellen_medicatiegegevens/fhir_instance/mg-mgrp-999900602-ALL.xml
               <reference value="urn:uuid:c33f1892-6a95-11ec-0000-020000000000"/>
=======
               <reference value="urn:uuid:c33f1950-6a95-11ec-0000-020000000000"/>
>>>>>>> origin/master:ada_2_fhir-r4/mp/9.2.0/beschikbaarstellen_medicatiegegevens/fhir_instance/mg-mgrp-999900936-ALL.xml
               <type value="Patient"/>
               <display value="Patient, M. XXX_Rambaldo"/>
            </subject>
            <authoredOn value="${DATE, T, D, +0}T08:25:00+02:00"/>
            <requester>
<<<<<<< HEAD:ada_2_fhir-r4/mp/9.2.0/beschikbaarstellen_medicatiegegevens/fhir_instance/mg-mgrp-999900602-ALL.xml
               <reference value="urn:uuid:c33f18ba-6a95-11ec-0000-020000000000"/>
=======
               <reference value="urn:uuid:c33f196e-6a95-11ec-0000-020000000000"/>
>>>>>>> origin/master:ada_2_fhir-r4/mp/9.2.0/beschikbaarstellen_medicatiegegevens/fhir_instance/mg-mgrp-999900936-ALL.xml
               <type value="PractitionerRole"/>
               <display value="Healthcare professional (role), Peter van Pulver, Huisartsen, niet nader gespecificeerd, Huisartsenpraktijk Pulver &amp; Partners"/>
            </requester>
            <dosageInstruction>
               <additionalInstruction>
                  <coding>
                     <system value="https://referentiemodel.nhg.org/tabellen/nhg-tabel-25-gebruiksvoorschrift#aanvullend-numeriek"/>
                     <code value="1128"/>
                     <display value="voor de nacht"/>
                  </coding>
               </additionalInstruction>
               <additionalInstruction>
                  <coding>
                     <system value="https://referentiemodel.nhg.org/tabellen/nhg-tabel-25-gebruiksvoorschrift#aanvullend-numeriek"/>
                     <code value="1018"/>
                     <display value="aanbrengen"/>
                  </coding>
               </additionalInstruction>
               <timing>
                  <repeat>
                     <dayOfWeek value="mon"/>
                     <dayOfWeek value="wed"/>
                     <dayOfWeek value="fri"/>
                  </repeat>
               </timing>
               <route>
                  <coding>
                     <system value="urn:oid:2.16.840.1.113883.2.4.4.9"/>
                     <code value="53"/>
                     <display value="cutaan"/>
                  </coding>
               </route>
            </dosageInstruction>
         </MedicationRequest>
      </resource>
      <request>
         <method value="POST"/>
         <url value="MedicationRequest"/>
      </request>
   </entry>
   <entry>
<<<<<<< HEAD:ada_2_fhir-r4/mp/9.2.0/beschikbaarstellen_medicatiegegevens/fhir_instance/mg-mgrp-999900602-ALL.xml
      <fullUrl value="urn:uuid:c33f1a72-6a95-11ec-0000-020000000000"/>
      <resource>
         <MedicationRequest>
            <id value="mp-MedAgr-mp9-21684011138832431199977160760051-MBH200dagdeelMA"/>
=======
      <fullUrl value="urn:uuid:c33f1a9a-6a95-11ec-0000-020000000000"/>
      <resource>
         <MedicationRequest>
>>>>>>> origin/master:ada_2_fhir-r4/mp/9.2.0/beschikbaarstellen_medicatiegegevens/fhir_instance/mg-mgrp-999900936-ALL.xml
            <meta>
               <profile value="http://nictiz.nl/fhir/StructureDefinition/mp-MedicationAgreement"/>
            </meta>
            <extension url="http://nictiz.nl/fhir/StructureDefinition/ext-RenderedDosageInstruction">
               <valueString value="Vanaf T, 1 stuk 's avonds, oraal"/>
            </extension>
            <extension url="http://nictiz.nl/fhir/StructureDefinition/ext-TimeInterval.Period">
               <valuePeriod>
                  <start value="${DATE, T, D, +0}T00:00:00+02:00"/>
               </valuePeriod>
            </extension>
            <extension url="http://nictiz.nl/fhir/StructureDefinition/ext-PharmaceuticalTreatment.Identifier">
               <valueIdentifier>
                  <system value="urn:oid:2.16.840.1.113883.2.4.3.11.999.77.1.1"/>
                  <value value="MBH_200_dagdeel"/>
               </valueIdentifier>
            </extension>
            <identifier>
               <system value="urn:oid:2.16.840.1.113883.2.4.3.11.999.77.16076005.1"/>
               <value value="MBH_200_dagdeel_MA"/>
            </identifier>
            <status value="unknown"/>
            <intent value="order"/>
            <category>
               <coding>
                  <system value="http://snomed.info/sct"/>
                  <code value="33633005"/>
                  <display value="voorschrijven van geneesmiddel"/>
               </coding>
            </category>
            <medicationReference>
<<<<<<< HEAD:ada_2_fhir-r4/mp/9.2.0/beschikbaarstellen_medicatiegegevens/fhir_instance/mg-mgrp-999900602-ALL.xml
               <reference value="urn:uuid:c33f1f22-6a95-11ec-0000-020000000000"/>
=======
               <reference value="urn:uuid:c33f1f4a-6a95-11ec-0000-020000000000"/>
>>>>>>> origin/master:ada_2_fhir-r4/mp/9.2.0/beschikbaarstellen_medicatiegegevens/fhir_instance/mg-mgrp-999900936-ALL.xml
               <type value="Medication"/>
               <display value="EZETIMIB/SIMVASTATINE 10/20"/>
            </medicationReference>
            <subject>
<<<<<<< HEAD:ada_2_fhir-r4/mp/9.2.0/beschikbaarstellen_medicatiegegevens/fhir_instance/mg-mgrp-999900602-ALL.xml
               <reference value="urn:uuid:c33f1892-6a95-11ec-0000-020000000000"/>
=======
               <reference value="urn:uuid:c33f1950-6a95-11ec-0000-020000000000"/>
>>>>>>> origin/master:ada_2_fhir-r4/mp/9.2.0/beschikbaarstellen_medicatiegegevens/fhir_instance/mg-mgrp-999900936-ALL.xml
               <type value="Patient"/>
               <display value="Patient, M. XXX_Rambaldo"/>
            </subject>
            <authoredOn value="${DATE, T, D, +0}T08:27:00+02:00"/>
            <requester>
<<<<<<< HEAD:ada_2_fhir-r4/mp/9.2.0/beschikbaarstellen_medicatiegegevens/fhir_instance/mg-mgrp-999900602-ALL.xml
               <reference value="urn:uuid:c33f18ba-6a95-11ec-0000-020000000000"/>
=======
               <reference value="urn:uuid:c33f196e-6a95-11ec-0000-020000000000"/>
>>>>>>> origin/master:ada_2_fhir-r4/mp/9.2.0/beschikbaarstellen_medicatiegegevens/fhir_instance/mg-mgrp-999900936-ALL.xml
               <type value="PractitionerRole"/>
               <display value="Healthcare professional (role), Peter van Pulver, Huisartsen, niet nader gespecificeerd, Huisartsenpraktijk Pulver &amp; Partners"/>
            </requester>
            <dosageInstruction>
               <timing>
                  <repeat>
                     <when value="EVE"/>
                  </repeat>
               </timing>
               <route>
                  <coding>
                     <system value="urn:oid:2.16.840.1.113883.2.4.4.9"/>
                     <code value="9"/>
                     <display value="oraal"/>
                  </coding>
               </route>
               <doseAndRate>
                  <doseQuantity>
                     <extension url="http://hl7.org/fhir/StructureDefinition/iso21090-PQ-translation">
                        <valueQuantity>
                           <value value="1"/>
                           <unit value="stuk"/>
                           <system value="urn:oid:2.16.840.1.113883.2.4.4.1.900.2"/>
                           <code value="245"/>
                        </valueQuantity>
                     </extension>
                     <value value="1"/>
                     <unit value="stuk"/>
                     <system value="http://unitsofmeasure.org"/>
                     <code value="1"/>
                  </doseQuantity>
               </doseAndRate>
            </dosageInstruction>
         </MedicationRequest>
      </resource>
      <request>
         <method value="POST"/>
         <url value="MedicationRequest"/>
      </request>
   </entry>
   <entry>
<<<<<<< HEAD:ada_2_fhir-r4/mp/9.2.0/beschikbaarstellen_medicatiegegevens/fhir_instance/mg-mgrp-999900602-ALL.xml
      <fullUrl value="urn:uuid:c33f1a90-6a95-11ec-0000-020000000000"/>
      <resource>
         <MedicationRequest>
            <id value="dAgr-mp9-21684011138832431199977160760051-MBH200cyclischschemaMA"/>
=======
      <fullUrl value="urn:uuid:c33f1ab8-6a95-11ec-0000-020000000000"/>
      <resource>
         <MedicationRequest>
>>>>>>> origin/master:ada_2_fhir-r4/mp/9.2.0/beschikbaarstellen_medicatiegegevens/fhir_instance/mg-mgrp-999900936-ALL.xml
            <meta>
               <profile value="http://nictiz.nl/fhir/StructureDefinition/mp-MedicationAgreement"/>
            </meta>
            <extension url="http://nictiz.nl/fhir/StructureDefinition/ext-RenderedDosageInstruction">
               <valueString value="Vanaf T, cyclus van 28 dagen: steeds gedurende 21 dagen 1 maal per dag 1 stuk, oraal"/>
            </extension>
            <extension url="http://nictiz.nl/fhir/StructureDefinition/ext-TimeInterval.Period">
               <valuePeriod>
                  <start value="${DATE, T, D, +0}T00:00:00+02:00"/>
               </valuePeriod>
            </extension>
            <extension url="http://nictiz.nl/fhir/StructureDefinition/ext-PharmaceuticalTreatment.Identifier">
               <valueIdentifier>
                  <system value="urn:oid:2.16.840.1.113883.2.4.3.11.999.77.1.1"/>
                  <value value="MBH_200_cyclischschema"/>
               </valueIdentifier>
            </extension>
            <modifierExtension url="http://nictiz.nl/fhir/StructureDefinition/ext-InstructionsForUse.RepeatPeriodCyclicalSchedule">
               <valueDuration>
                  <value value="28"/>
                  <unit value="dag"/>
                  <system value="http://unitsofmeasure.org"/>
                  <code value="d"/>
               </valueDuration>
            </modifierExtension>
            <identifier>
               <system value="urn:oid:2.16.840.1.113883.2.4.3.11.999.77.16076005.1"/>
               <value value="MBH_200_cyclischschema_MA"/>
            </identifier>
            <status value="unknown"/>
            <intent value="order"/>
            <category>
               <coding>
                  <system value="http://snomed.info/sct"/>
                  <code value="33633005"/>
                  <display value="voorschrijven van geneesmiddel"/>
               </coding>
            </category>
            <medicationReference>
<<<<<<< HEAD:ada_2_fhir-r4/mp/9.2.0/beschikbaarstellen_medicatiegegevens/fhir_instance/mg-mgrp-999900602-ALL.xml
               <reference value="urn:uuid:c33f1f5e-6a95-11ec-0000-020000000000"/>
=======
               <reference value="urn:uuid:c33f1f86-6a95-11ec-0000-020000000000"/>
>>>>>>> origin/master:ada_2_fhir-r4/mp/9.2.0/beschikbaarstellen_medicatiegegevens/fhir_instance/mg-mgrp-999900936-ALL.xml
               <type value="Medication"/>
               <display value="ETHINYLESTRADIOL/DESOGESTREL TABLET 30/150UG"/>
            </medicationReference>
            <subject>
<<<<<<< HEAD:ada_2_fhir-r4/mp/9.2.0/beschikbaarstellen_medicatiegegevens/fhir_instance/mg-mgrp-999900602-ALL.xml
               <reference value="urn:uuid:c33f1892-6a95-11ec-0000-020000000000"/>
=======
               <reference value="urn:uuid:c33f1950-6a95-11ec-0000-020000000000"/>
>>>>>>> origin/master:ada_2_fhir-r4/mp/9.2.0/beschikbaarstellen_medicatiegegevens/fhir_instance/mg-mgrp-999900936-ALL.xml
               <type value="Patient"/>
               <display value="Patient, M. XXX_Rambaldo"/>
            </subject>
            <authoredOn value="${DATE, T, D, +0}T08:33:00+02:00"/>
            <requester>
<<<<<<< HEAD:ada_2_fhir-r4/mp/9.2.0/beschikbaarstellen_medicatiegegevens/fhir_instance/mg-mgrp-999900602-ALL.xml
               <reference value="urn:uuid:c33f18ba-6a95-11ec-0000-020000000000"/>
=======
               <reference value="urn:uuid:c33f196e-6a95-11ec-0000-020000000000"/>
>>>>>>> origin/master:ada_2_fhir-r4/mp/9.2.0/beschikbaarstellen_medicatiegegevens/fhir_instance/mg-mgrp-999900936-ALL.xml
               <type value="PractitionerRole"/>
               <display value="Healthcare professional (role), Peter van Pulver, Huisartsen, niet nader gespecificeerd, Huisartsenpraktijk Pulver &amp; Partners"/>
            </requester>
            <dosageInstruction>
               <timing>
                  <repeat>
                     <boundsDuration>
                        <value value="21"/>
                        <unit value="dag"/>
                        <system value="http://unitsofmeasure.org"/>
                        <code value="d"/>
                     </boundsDuration>
                     <frequency value="1"/>
                     <period value="1"/>
                     <periodUnit value="d"/>
                  </repeat>
               </timing>
               <route>
                  <coding>
                     <system value="urn:oid:2.16.840.1.113883.2.4.4.9"/>
                     <code value="9"/>
                     <display value="oraal"/>
                  </coding>
               </route>
               <doseAndRate>
                  <doseQuantity>
                     <extension url="http://hl7.org/fhir/StructureDefinition/iso21090-PQ-translation">
                        <valueQuantity>
                           <value value="1"/>
                           <unit value="stuk"/>
                           <system value="urn:oid:2.16.840.1.113883.2.4.4.1.900.2"/>
                           <code value="245"/>
                        </valueQuantity>
                     </extension>
                     <value value="1"/>
                     <unit value="stuk"/>
                     <system value="http://unitsofmeasure.org"/>
                     <code value="1"/>
                  </doseQuantity>
               </doseAndRate>
            </dosageInstruction>
         </MedicationRequest>
      </resource>
      <request>
         <method value="POST"/>
         <url value="MedicationRequest"/>
      </request>
   </entry>
   <entry>
<<<<<<< HEAD:ada_2_fhir-r4/mp/9.2.0/beschikbaarstellen_medicatiegegevens/fhir_instance/mg-mgrp-999900602-ALL.xml
      <fullUrl value="urn:uuid:c33f1aae-6a95-11ec-0000-020000000000"/>
      <resource>
         <MedicationRequest>
            <id value="MedAgr-mp9-21684011138832431199977160760051-MBH200afbouwschemaMA"/>
=======
      <fullUrl value="urn:uuid:c33f1ad6-6a95-11ec-0000-020000000000"/>
      <resource>
         <MedicationRequest>
>>>>>>> origin/master:ada_2_fhir-r4/mp/9.2.0/beschikbaarstellen_medicatiegegevens/fhir_instance/mg-mgrp-999900936-ALL.xml
            <meta>
               <profile value="http://nictiz.nl/fhir/StructureDefinition/mp-MedicationAgreement"/>
            </meta>
            <extension url="http://nictiz.nl/fhir/StructureDefinition/ext-RenderedDosageInstruction">
               <valueString value="Vanaf T, tot en met T + 41 dagen, eerst gedurende 2 weken 1 maal per dag 3 gram, dan gedurende 3 weken 1 maal per dag 2 gram, dan gedurende 6 dagen 1 maal per dag 1 gram, cutaan"/>
            </extension>
            <extension url="http://nictiz.nl/fhir/StructureDefinition/ext-TimeInterval.Period">
               <valuePeriod>
                  <start value="${DATE, T, D, +0}T00:00:00+02:00"/>
                  <end value="${DATE, T, D, +41}T23:59:59+02:00"/>
               </valuePeriod>
            </extension>
            <extension url="http://nictiz.nl/fhir/StructureDefinition/ext-PharmaceuticalTreatment.Identifier">
               <valueIdentifier>
                  <system value="urn:oid:2.16.840.1.113883.2.4.3.11.999.77.1.1"/>
                  <value value="MBH_200_afbouwschema"/>
               </valueIdentifier>
            </extension>
            <identifier>
               <system value="urn:oid:2.16.840.1.113883.2.4.3.11.999.77.16076005.1"/>
               <value value="MBH_200_afbouwschema_MA"/>
            </identifier>
            <status value="unknown"/>
            <intent value="order"/>
            <category>
               <coding>
                  <system value="http://snomed.info/sct"/>
                  <code value="33633005"/>
                  <display value="voorschrijven van geneesmiddel"/>
               </coding>
            </category>
            <medicationReference>
<<<<<<< HEAD:ada_2_fhir-r4/mp/9.2.0/beschikbaarstellen_medicatiegegevens/fhir_instance/mg-mgrp-999900602-ALL.xml
               <reference value="urn:uuid:c33f1f7c-6a95-11ec-0000-020000000000"/>
=======
               <reference value="urn:uuid:c33f1fa4-6a95-11ec-0000-020000000000"/>
>>>>>>> origin/master:ada_2_fhir-r4/mp/9.2.0/beschikbaarstellen_medicatiegegevens/fhir_instance/mg-mgrp-999900936-ALL.xml
               <type value="Medication"/>
               <display value="Fusidinezuur creme 20mg/g"/>
            </medicationReference>
            <subject>
<<<<<<< HEAD:ada_2_fhir-r4/mp/9.2.0/beschikbaarstellen_medicatiegegevens/fhir_instance/mg-mgrp-999900602-ALL.xml
               <reference value="urn:uuid:c33f1892-6a95-11ec-0000-020000000000"/>
=======
               <reference value="urn:uuid:c33f1950-6a95-11ec-0000-020000000000"/>
>>>>>>> origin/master:ada_2_fhir-r4/mp/9.2.0/beschikbaarstellen_medicatiegegevens/fhir_instance/mg-mgrp-999900936-ALL.xml
               <type value="Patient"/>
               <display value="Patient, M. XXX_Rambaldo"/>
            </subject>
            <authoredOn value="${DATE, T, D, +0}T08:40:00+02:00"/>
            <requester>
<<<<<<< HEAD:ada_2_fhir-r4/mp/9.2.0/beschikbaarstellen_medicatiegegevens/fhir_instance/mg-mgrp-999900602-ALL.xml
               <reference value="urn:uuid:c33f18ba-6a95-11ec-0000-020000000000"/>
=======
               <reference value="urn:uuid:c33f196e-6a95-11ec-0000-020000000000"/>
>>>>>>> origin/master:ada_2_fhir-r4/mp/9.2.0/beschikbaarstellen_medicatiegegevens/fhir_instance/mg-mgrp-999900936-ALL.xml
               <type value="PractitionerRole"/>
               <display value="Healthcare professional (role), Peter van Pulver, Huisartsen, niet nader gespecificeerd, Huisartsenpraktijk Pulver &amp; Partners"/>
            </requester>
            <dosageInstruction>
               <sequence value="1"/>
               <timing>
                  <repeat>
                     <boundsDuration>
                        <value value="2"/>
                        <unit value="week"/>
                        <system value="http://unitsofmeasure.org"/>
                        <code value="wk"/>
                     </boundsDuration>
                     <frequency value="1"/>
                     <period value="1"/>
                     <periodUnit value="d"/>
                  </repeat>
               </timing>
               <route>
                  <coding>
                     <system value="urn:oid:2.16.840.1.113883.2.4.4.9"/>
                     <code value="53"/>
                     <display value="cutaan"/>
                  </coding>
               </route>
               <doseAndRate>
                  <doseQuantity>
                     <extension url="http://hl7.org/fhir/StructureDefinition/iso21090-PQ-translation">
                        <valueQuantity>
                           <value value="3"/>
                           <unit value="gram"/>
                           <system value="urn:oid:2.16.840.1.113883.2.4.4.1.900.2"/>
                           <code value="215"/>
                        </valueQuantity>
                     </extension>
                     <value value="3"/>
                     <unit value="gram"/>
                     <system value="http://unitsofmeasure.org"/>
                     <code value="g"/>
                  </doseQuantity>
               </doseAndRate>
            </dosageInstruction>
            <dosageInstruction>
               <sequence value="2"/>
               <timing>
                  <repeat>
                     <boundsDuration>
                        <value value="3"/>
                        <unit value="week"/>
                        <system value="http://unitsofmeasure.org"/>
                        <code value="wk"/>
                     </boundsDuration>
                     <frequency value="1"/>
                     <period value="1"/>
                     <periodUnit value="d"/>
                  </repeat>
               </timing>
               <route>
                  <coding>
                     <system value="urn:oid:2.16.840.1.113883.2.4.4.9"/>
                     <code value="53"/>
                     <display value="cutaan"/>
                  </coding>
               </route>
               <doseAndRate>
                  <doseQuantity>
                     <extension url="http://hl7.org/fhir/StructureDefinition/iso21090-PQ-translation">
                        <valueQuantity>
                           <value value="2"/>
                           <unit value="gram"/>
                           <system value="urn:oid:2.16.840.1.113883.2.4.4.1.900.2"/>
                           <code value="215"/>
                        </valueQuantity>
                     </extension>
                     <value value="2"/>
                     <unit value="gram"/>
                     <system value="http://unitsofmeasure.org"/>
                     <code value="g"/>
                  </doseQuantity>
               </doseAndRate>
            </dosageInstruction>
            <dosageInstruction>
               <sequence value="3"/>
               <timing>
                  <repeat>
                     <boundsDuration>
                        <value value="6"/>
                        <unit value="dag"/>
                        <system value="http://unitsofmeasure.org"/>
                        <code value="d"/>
                     </boundsDuration>
                     <frequency value="1"/>
                     <period value="1"/>
                     <periodUnit value="d"/>
                  </repeat>
               </timing>
               <route>
                  <coding>
                     <system value="urn:oid:2.16.840.1.113883.2.4.4.9"/>
                     <code value="53"/>
                     <display value="cutaan"/>
                  </coding>
               </route>
               <doseAndRate>
                  <doseQuantity>
                     <extension url="http://hl7.org/fhir/StructureDefinition/iso21090-PQ-translation">
                        <valueQuantity>
                           <value value="1"/>
                           <unit value="gram"/>
                           <system value="urn:oid:2.16.840.1.113883.2.4.4.1.900.2"/>
                           <code value="215"/>
                        </valueQuantity>
                     </extension>
                     <value value="1"/>
                     <unit value="gram"/>
                     <system value="http://unitsofmeasure.org"/>
                     <code value="g"/>
                  </doseQuantity>
               </doseAndRate>
            </dosageInstruction>
         </MedicationRequest>
      </resource>
      <request>
         <method value="POST"/>
         <url value="MedicationRequest"/>
      </request>
   </entry>
   <entry>
<<<<<<< HEAD:ada_2_fhir-r4/mp/9.2.0/beschikbaarstellen_medicatiegegevens/fhir_instance/mg-mgrp-999900602-ALL.xml
      <fullUrl value="urn:uuid:c33f1acc-6a95-11ec-0000-020000000000"/>
      <resource>
         <MedicationRequest>
            <id value="mp-MedAgr-mp9-c33f19f2-6a95-11ec-0000-020000000000"/>
=======
      <fullUrl value="urn:uuid:c33f1af4-6a95-11ec-0000-020000000000"/>
      <resource>
         <MedicationRequest>
>>>>>>> origin/master:ada_2_fhir-r4/mp/9.2.0/beschikbaarstellen_medicatiegegevens/fhir_instance/mg-mgrp-999900936-ALL.xml
            <meta>
               <profile value="http://nictiz.nl/fhir/StructureDefinition/mp-MedicationAgreement"/>
            </meta>
            <extension url="http://nictiz.nl/fhir/StructureDefinition/ext-RenderedDosageInstruction">
               <valueString value="Vanaf T, tot en met T + 21 dagen, Bij hoest 1 à 2 stuks , maximaal 6 stuks per dag, oraal"/>
            </extension>
            <extension url="http://nictiz.nl/fhir/StructureDefinition/ext-TimeInterval.Period">
               <valuePeriod>
                  <start value="${DATE, T, D, +0}T00:00:00+02:00"/>
                  <end value="${DATE, T, D, +21}T23:59:59+02:00"/>
               </valuePeriod>
            </extension>
            <extension url="http://nictiz.nl/fhir/StructureDefinition/ext-PharmaceuticalTreatment.Identifier">
               <valueIdentifier>
                  <system value="urn:oid:2.16.840.1.113883.2.4.3.11.999.77.1.1"/>
                  <value value="MBH_200_variabelehoeveelheidenmaximum"/>
               </valueIdentifier>
            </extension>
            <identifier>
               <system value="urn:oid:2.16.840.1.113883.2.4.3.11.999.77.16076005.1"/>
               <value value="MBH_200_variabelehoeveelheidenmaximum_MA"/>
            </identifier>
            <status value="unknown"/>
            <intent value="order"/>
            <category>
               <coding>
                  <system value="http://snomed.info/sct"/>
                  <code value="33633005"/>
                  <display value="voorschrijven van geneesmiddel"/>
               </coding>
            </category>
            <medicationReference>
<<<<<<< HEAD:ada_2_fhir-r4/mp/9.2.0/beschikbaarstellen_medicatiegegevens/fhir_instance/mg-mgrp-999900602-ALL.xml
               <reference value="urn:uuid:c33f1fb8-6a95-11ec-0000-020000000000"/>
=======
               <reference value="urn:uuid:c33f1fe0-6a95-11ec-0000-020000000000"/>
>>>>>>> origin/master:ada_2_fhir-r4/mp/9.2.0/beschikbaarstellen_medicatiegegevens/fhir_instance/mg-mgrp-999900936-ALL.xml
               <type value="Medication"/>
               <display value="CODEINE TABLET 10MG (FOSFAAT)"/>
            </medicationReference>
            <subject>
<<<<<<< HEAD:ada_2_fhir-r4/mp/9.2.0/beschikbaarstellen_medicatiegegevens/fhir_instance/mg-mgrp-999900602-ALL.xml
               <reference value="urn:uuid:c33f1892-6a95-11ec-0000-020000000000"/>
=======
               <reference value="urn:uuid:c33f1950-6a95-11ec-0000-020000000000"/>
>>>>>>> origin/master:ada_2_fhir-r4/mp/9.2.0/beschikbaarstellen_medicatiegegevens/fhir_instance/mg-mgrp-999900936-ALL.xml
               <type value="Patient"/>
               <display value="Patient, M. XXX_Rambaldo"/>
            </subject>
            <authoredOn value="${DATE, T, D, +0}T08:45:00+02:00"/>
            <requester>
<<<<<<< HEAD:ada_2_fhir-r4/mp/9.2.0/beschikbaarstellen_medicatiegegevens/fhir_instance/mg-mgrp-999900602-ALL.xml
               <reference value="urn:uuid:c33f18ba-6a95-11ec-0000-020000000000"/>
=======
               <reference value="urn:uuid:c33f196e-6a95-11ec-0000-020000000000"/>
>>>>>>> origin/master:ada_2_fhir-r4/mp/9.2.0/beschikbaarstellen_medicatiegegevens/fhir_instance/mg-mgrp-999900936-ALL.xml
               <type value="PractitionerRole"/>
               <display value="Healthcare professional (role), Peter van Pulver, Huisartsen, niet nader gespecificeerd, Huisartsenpraktijk Pulver &amp; Partners"/>
            </requester>
            <dosageInstruction>
               <asNeededCodeableConcept>
                  <coding>
                     <system value="https://referentiemodel.nhg.org/tabellen/nhg-tabel-25-gebruiksvoorschrift#aanvullend-numeriek"/>
                     <code value="1387"/>
                     <display value="Bij hoest"/>
                  </coding>
               </asNeededCodeableConcept>
               <route>
                  <coding>
                     <system value="urn:oid:2.16.840.1.113883.2.4.4.9"/>
                     <code value="9"/>
                     <display value="oraal"/>
                  </coding>
               </route>
               <doseAndRate>
                  <doseRange>
                     <low>
                        <extension url="http://hl7.org/fhir/StructureDefinition/iso21090-PQ-translation">
                           <valueQuantity>
                              <value value="1"/>
                              <unit value="stuk"/>
                              <system value="urn:oid:2.16.840.1.113883.2.4.4.1.900.2"/>
                              <code value="245"/>
                           </valueQuantity>
                        </extension>
                        <value value="1"/>
                        <unit value="stuk"/>
                        <system value="http://unitsofmeasure.org"/>
                        <code value="1"/>
                     </low>
                     <high>
                        <extension url="http://hl7.org/fhir/StructureDefinition/iso21090-PQ-translation">
                           <valueQuantity>
                              <value value="2"/>
                              <unit value="stuk"/>
                              <system value="urn:oid:2.16.840.1.113883.2.4.4.1.900.2"/>
                              <code value="245"/>
                           </valueQuantity>
                        </extension>
                        <value value="2"/>
                        <unit value="stuk"/>
                        <system value="http://unitsofmeasure.org"/>
                        <code value="1"/>
                     </high>
                  </doseRange>
               </doseAndRate>
               <maxDosePerPeriod>
                  <numerator>
                     <extension url="http://hl7.org/fhir/StructureDefinition/iso21090-PQ-translation">
                        <valueQuantity>
                           <value value="6"/>
                           <unit value="stuk"/>
                           <system value="urn:oid:2.16.840.1.113883.2.4.4.1.900.2"/>
                           <code value="245"/>
                        </valueQuantity>
                     </extension>
                     <value value="6"/>
                     <unit value="stuk"/>
                     <system value="http://unitsofmeasure.org"/>
                     <code value="1"/>
                  </numerator>
                  <denominator>
                     <value value="1"/>
                     <unit value="dag"/>
                     <system value="http://unitsofmeasure.org"/>
                     <code value="d"/>
                  </denominator>
               </maxDosePerPeriod>
            </dosageInstruction>
         </MedicationRequest>
      </resource>
      <request>
         <method value="POST"/>
         <url value="MedicationRequest"/>
      </request>
   </entry>
   <entry>
<<<<<<< HEAD:ada_2_fhir-r4/mp/9.2.0/beschikbaarstellen_medicatiegegevens/fhir_instance/mg-mgrp-999900602-ALL.xml
      <fullUrl value="urn:uuid:c33f1aea-6a95-11ec-0000-020000000000"/>
      <resource>
         <MedicationRequest>
            <id value="mp9-21684011138832431199977160760051-MBH200toedieningssnelheidMA"/>
=======
      <fullUrl value="urn:uuid:c33f1b12-6a95-11ec-0000-020000000000"/>
      <resource>
         <MedicationRequest>
>>>>>>> origin/master:ada_2_fhir-r4/mp/9.2.0/beschikbaarstellen_medicatiegegevens/fhir_instance/mg-mgrp-999900936-ALL.xml
            <meta>
               <profile value="http://nictiz.nl/fhir/StructureDefinition/mp-MedicationAgreement"/>
            </meta>
            <extension url="http://nictiz.nl/fhir/StructureDefinition/ext-RenderedDosageInstruction">
               <valueString value="Vanaf T, tot en met T + 8 dagen, toedieningssnelheid: maximaal 0.2 à 0.5 ml per uur, parenteraal"/>
            </extension>
            <extension url="http://nictiz.nl/fhir/StructureDefinition/ext-TimeInterval.Period">
               <valuePeriod>
                  <start value="${DATE, T, D, +0}T00:00:00+02:00"/>
                  <end value="${DATE, T, D, +8}T23:59:59+02:00"/>
               </valuePeriod>
            </extension>
            <extension url="http://nictiz.nl/fhir/StructureDefinition/ext-PharmaceuticalTreatment.Identifier">
               <valueIdentifier>
                  <system value="urn:oid:2.16.840.1.113883.2.4.3.11.999.77.1.1"/>
                  <value value="MBH_200_toedieningssnelheid"/>
               </valueIdentifier>
            </extension>
            <identifier>
               <system value="urn:oid:2.16.840.1.113883.2.4.3.11.999.77.16076005.1"/>
               <value value="MBH_200_toedieningssnelheid_MA"/>
            </identifier>
            <status value="unknown"/>
            <intent value="order"/>
            <category>
               <coding>
                  <system value="http://snomed.info/sct"/>
                  <code value="33633005"/>
                  <display value="voorschrijven van geneesmiddel"/>
               </coding>
            </category>
            <medicationReference>
<<<<<<< HEAD:ada_2_fhir-r4/mp/9.2.0/beschikbaarstellen_medicatiegegevens/fhir_instance/mg-mgrp-999900602-ALL.xml
               <reference value="urn:uuid:c33f1ff4-6a95-11ec-0000-020000000000"/>
=======
               <reference value="urn:uuid:c33f201c-6a95-11ec-0000-020000000000"/>
>>>>>>> origin/master:ada_2_fhir-r4/mp/9.2.0/beschikbaarstellen_medicatiegegevens/fhir_instance/mg-mgrp-999900936-ALL.xml
               <type value="Medication"/>
               <display value="MORFINE INFVLST 5MG/ML CAS 100ML"/>
            </medicationReference>
            <subject>
<<<<<<< HEAD:ada_2_fhir-r4/mp/9.2.0/beschikbaarstellen_medicatiegegevens/fhir_instance/mg-mgrp-999900602-ALL.xml
               <reference value="urn:uuid:c33f1892-6a95-11ec-0000-020000000000"/>
=======
               <reference value="urn:uuid:c33f1950-6a95-11ec-0000-020000000000"/>
>>>>>>> origin/master:ada_2_fhir-r4/mp/9.2.0/beschikbaarstellen_medicatiegegevens/fhir_instance/mg-mgrp-999900936-ALL.xml
               <type value="Patient"/>
               <display value="Patient, M. XXX_Rambaldo"/>
            </subject>
            <authoredOn value="${DATE, T, D, +0}T08:47:00+02:00"/>
            <requester>
<<<<<<< HEAD:ada_2_fhir-r4/mp/9.2.0/beschikbaarstellen_medicatiegegevens/fhir_instance/mg-mgrp-999900602-ALL.xml
               <reference value="urn:uuid:c33f18ba-6a95-11ec-0000-020000000000"/>
=======
               <reference value="urn:uuid:c33f196e-6a95-11ec-0000-020000000000"/>
>>>>>>> origin/master:ada_2_fhir-r4/mp/9.2.0/beschikbaarstellen_medicatiegegevens/fhir_instance/mg-mgrp-999900936-ALL.xml
               <type value="PractitionerRole"/>
               <display value="Healthcare professional (role), Peter van Pulver, Huisartsen, niet nader gespecificeerd, Huisartsenpraktijk Pulver &amp; Partners"/>
            </requester>
            <dosageInstruction>
               <route>
                  <coding>
                     <system value="urn:oid:2.16.840.1.113883.2.4.4.9"/>
                     <code value="10"/>
                     <display value="parenteraal"/>
                  </coding>
               </route>
               <doseAndRate>
                  <rateRange>
                     <low>
                        <value value="0.2"/>
                        <unit value="ml/h"/>
                        <system value="http://unitsofmeasure.org"/>
                        <code value="ml/h"/>
                     </low>
                     <high>
                        <value value="0.5"/>
                        <unit value="ml/h"/>
                        <system value="http://unitsofmeasure.org"/>
                        <code value="ml/h"/>
                     </high>
                  </rateRange>
               </doseAndRate>
            </dosageInstruction>
         </MedicationRequest>
      </resource>
      <request>
         <method value="POST"/>
         <url value="MedicationRequest"/>
      </request>
   </entry>
   <entry>
<<<<<<< HEAD:ada_2_fhir-r4/mp/9.2.0/beschikbaarstellen_medicatiegegevens/fhir_instance/mg-mgrp-999900602-ALL.xml
      <fullUrl value="urn:uuid:c33f1b08-6a95-11ec-0000-020000000000"/>
      <resource>
         <MedicationRequest>
            <id value="Agr-mp9-21684011138832431199977160760051-MBH200toedieningsduurMA"/>
=======
      <fullUrl value="urn:uuid:c33f1b30-6a95-11ec-0000-020000000000"/>
      <resource>
         <MedicationRequest>
>>>>>>> origin/master:ada_2_fhir-r4/mp/9.2.0/beschikbaarstellen_medicatiegegevens/fhir_instance/mg-mgrp-999900936-ALL.xml
            <meta>
               <profile value="http://nictiz.nl/fhir/StructureDefinition/mp-MedicationAgreement"/>
            </meta>
            <extension url="http://nictiz.nl/fhir/StructureDefinition/ext-RenderedDosageInstruction">
               <valueString value="Vanaf T, 1 maal per dag 1 stuk gedurende 16 uur, transdermaal"/>
            </extension>
            <extension url="http://nictiz.nl/fhir/StructureDefinition/ext-TimeInterval.Period">
               <valuePeriod>
                  <start value="${DATE, T, D, +0}T00:00:00+02:00"/>
               </valuePeriod>
            </extension>
            <extension url="http://nictiz.nl/fhir/StructureDefinition/ext-PharmaceuticalTreatment.Identifier">
               <valueIdentifier>
                  <system value="urn:oid:2.16.840.1.113883.2.4.3.11.999.77.1.1"/>
                  <value value="MBH_200_toedieningsduur"/>
               </valueIdentifier>
            </extension>
            <identifier>
               <system value="urn:oid:2.16.840.1.113883.2.4.3.11.999.77.16076005.1"/>
               <value value="MBH_200_toedieningsduur_MA"/>
            </identifier>
            <status value="unknown"/>
            <intent value="order"/>
            <category>
               <coding>
                  <system value="http://snomed.info/sct"/>
                  <code value="33633005"/>
                  <display value="voorschrijven van geneesmiddel"/>
               </coding>
            </category>
            <medicationReference>
<<<<<<< HEAD:ada_2_fhir-r4/mp/9.2.0/beschikbaarstellen_medicatiegegevens/fhir_instance/mg-mgrp-999900602-ALL.xml
               <reference value="urn:uuid:c33f2030-6a95-11ec-0000-020000000000"/>
=======
               <reference value="urn:uuid:c33f2058-6a95-11ec-0000-020000000000"/>
>>>>>>> origin/master:ada_2_fhir-r4/mp/9.2.0/beschikbaarstellen_medicatiegegevens/fhir_instance/mg-mgrp-999900936-ALL.xml
               <type value="Medication"/>
               <display value="NITROGLYCERINE PLEISTER 5MG/24UUR (DEPONIT T)"/>
            </medicationReference>
            <subject>
<<<<<<< HEAD:ada_2_fhir-r4/mp/9.2.0/beschikbaarstellen_medicatiegegevens/fhir_instance/mg-mgrp-999900602-ALL.xml
               <reference value="urn:uuid:c33f1892-6a95-11ec-0000-020000000000"/>
=======
               <reference value="urn:uuid:c33f1950-6a95-11ec-0000-020000000000"/>
>>>>>>> origin/master:ada_2_fhir-r4/mp/9.2.0/beschikbaarstellen_medicatiegegevens/fhir_instance/mg-mgrp-999900936-ALL.xml
               <type value="Patient"/>
               <display value="Patient, M. XXX_Rambaldo"/>
            </subject>
            <authoredOn value="${DATE, T, D, +0}T08:49:00+02:00"/>
            <requester>
<<<<<<< HEAD:ada_2_fhir-r4/mp/9.2.0/beschikbaarstellen_medicatiegegevens/fhir_instance/mg-mgrp-999900602-ALL.xml
               <reference value="urn:uuid:c33f18ba-6a95-11ec-0000-020000000000"/>
=======
               <reference value="urn:uuid:c33f196e-6a95-11ec-0000-020000000000"/>
>>>>>>> origin/master:ada_2_fhir-r4/mp/9.2.0/beschikbaarstellen_medicatiegegevens/fhir_instance/mg-mgrp-999900936-ALL.xml
               <type value="PractitionerRole"/>
               <display value="Healthcare professional (role), Peter van Pulver, Huisartsen, niet nader gespecificeerd, Huisartsenpraktijk Pulver &amp; Partners"/>
            </requester>
            <dosageInstruction>
               <timing>
                  <repeat>
                     <duration value="16"/>
                     <durationUnit value="h"/>
                     <frequency value="1"/>
                     <period value="1"/>
                     <periodUnit value="d"/>
                  </repeat>
               </timing>
               <route>
                  <coding>
                     <system value="urn:oid:2.16.840.1.113883.2.4.4.9"/>
                     <code value="58"/>
                     <display value="transdermaal"/>
                  </coding>
               </route>
               <doseAndRate>
                  <doseQuantity>
                     <extension url="http://hl7.org/fhir/StructureDefinition/iso21090-PQ-translation">
                        <valueQuantity>
                           <value value="1"/>
                           <unit value="stuk"/>
                           <system value="urn:oid:2.16.840.1.113883.2.4.4.1.900.2"/>
                           <code value="245"/>
                        </valueQuantity>
                     </extension>
                     <value value="1"/>
                     <unit value="stuk"/>
                     <system value="http://unitsofmeasure.org"/>
                     <code value="1"/>
                  </doseQuantity>
               </doseAndRate>
            </dosageInstruction>
         </MedicationRequest>
      </resource>
      <request>
         <method value="POST"/>
         <url value="MedicationRequest"/>
      </request>
   </entry>
   <entry>
<<<<<<< HEAD:ada_2_fhir-r4/mp/9.2.0/beschikbaarstellen_medicatiegegevens/fhir_instance/mg-mgrp-999900602-ALL.xml
      <fullUrl value="urn:uuid:c33f1b26-6a95-11ec-0000-020000000000"/>
      <resource>
         <MedicationRequest>
            <id value="mp-MedAgr-mp9-21684011138832431199977160760051-MBH200zonodigMA"/>
=======
      <fullUrl value="urn:uuid:c33f1b4e-6a95-11ec-0000-020000000000"/>
      <resource>
         <MedicationRequest>
>>>>>>> origin/master:ada_2_fhir-r4/mp/9.2.0/beschikbaarstellen_medicatiegegevens/fhir_instance/mg-mgrp-999900936-ALL.xml
            <meta>
               <profile value="http://nictiz.nl/fhir/StructureDefinition/mp-MedicationAgreement"/>
            </meta>
            <extension url="http://nictiz.nl/fhir/StructureDefinition/ext-RenderedDosageInstruction">
               <valueString value="Vanaf T, tot en met T + 27 dagen, Zo nodig 1 maal per dag 1 stuk, Oraal"/>
            </extension>
            <extension url="http://nictiz.nl/fhir/StructureDefinition/ext-TimeInterval.Period">
               <valuePeriod>
                  <start value="${DATE, T, D, +0}T00:00:00+02:00"/>
                  <end value="${DATE, T, D, +27}T23:59:59+02:00"/>
               </valuePeriod>
            </extension>
            <extension url="http://nictiz.nl/fhir/StructureDefinition/ext-PharmaceuticalTreatment.Identifier">
               <valueIdentifier>
                  <system value="urn:oid:2.16.840.1.113883.2.4.3.11.999.77.1.1"/>
                  <value value="MBH_200_zonodig"/>
               </valueIdentifier>
            </extension>
            <identifier>
               <system value="urn:oid:2.16.840.1.113883.2.4.3.11.999.77.16076005.1"/>
               <value value="MBH_200_zonodig_MA"/>
            </identifier>
            <status value="unknown"/>
            <intent value="order"/>
            <category>
               <coding>
                  <system value="http://snomed.info/sct"/>
                  <code value="33633005"/>
                  <display value="voorschrijven van geneesmiddel"/>
               </coding>
            </category>
            <medicationReference>
<<<<<<< HEAD:ada_2_fhir-r4/mp/9.2.0/beschikbaarstellen_medicatiegegevens/fhir_instance/mg-mgrp-999900602-ALL.xml
               <reference value="urn:uuid:c33f206c-6a95-11ec-0000-020000000000"/>
=======
               <reference value="urn:uuid:c33f2094-6a95-11ec-0000-020000000000"/>
>>>>>>> origin/master:ada_2_fhir-r4/mp/9.2.0/beschikbaarstellen_medicatiegegevens/fhir_instance/mg-mgrp-999900936-ALL.xml
               <type value="Medication"/>
               <display value="ACETYLSALICYLZUUR 100MG TAB"/>
            </medicationReference>
            <subject>
<<<<<<< HEAD:ada_2_fhir-r4/mp/9.2.0/beschikbaarstellen_medicatiegegevens/fhir_instance/mg-mgrp-999900602-ALL.xml
               <reference value="urn:uuid:c33f1892-6a95-11ec-0000-020000000000"/>
=======
               <reference value="urn:uuid:c33f1950-6a95-11ec-0000-020000000000"/>
>>>>>>> origin/master:ada_2_fhir-r4/mp/9.2.0/beschikbaarstellen_medicatiegegevens/fhir_instance/mg-mgrp-999900936-ALL.xml
               <type value="Patient"/>
               <display value="Patient, M. XXX_Rambaldo"/>
            </subject>
            <authoredOn value="${DATE, T, D, +0}T08:57:00+02:00"/>
            <requester>
<<<<<<< HEAD:ada_2_fhir-r4/mp/9.2.0/beschikbaarstellen_medicatiegegevens/fhir_instance/mg-mgrp-999900602-ALL.xml
               <reference value="urn:uuid:c33f18ba-6a95-11ec-0000-020000000000"/>
=======
               <reference value="urn:uuid:c33f196e-6a95-11ec-0000-020000000000"/>
>>>>>>> origin/master:ada_2_fhir-r4/mp/9.2.0/beschikbaarstellen_medicatiegegevens/fhir_instance/mg-mgrp-999900936-ALL.xml
               <type value="PractitionerRole"/>
               <display value="Healthcare professional (role), Peter van Pulver, Huisartsen, niet nader gespecificeerd, Huisartsenpraktijk Pulver &amp; Partners"/>
            </requester>
            <dosageInstruction>
               <timing>
                  <repeat>
                     <frequency value="1"/>
                     <period value="1"/>
                     <periodUnit value="d"/>
                  </repeat>
               </timing>
               <asNeededCodeableConcept>
                  <coding>
                     <system value="https://referentiemodel.nhg.org/tabellen/nhg-tabel-25-gebruiksvoorschrift#aanvullend-numeriek"/>
                     <code value="1137"/>
                     <display value="Zo nodig"/>
                  </coding>
               </asNeededCodeableConcept>
               <route>
                  <coding>
                     <system value="urn:oid:2.16.840.1.113883.2.4.4.9"/>
                     <code value="9"/>
                     <display value="Oraal"/>
                  </coding>
               </route>
               <doseAndRate>
                  <doseQuantity>
                     <extension url="http://hl7.org/fhir/StructureDefinition/iso21090-PQ-translation">
                        <valueQuantity>
                           <value value="1"/>
                           <unit value="stuk"/>
                           <system value="urn:oid:2.16.840.1.113883.2.4.4.1.900.2"/>
                           <code value="245"/>
                        </valueQuantity>
                     </extension>
                     <value value="1"/>
                     <unit value="stuk"/>
                     <system value="http://unitsofmeasure.org"/>
                     <code value="1"/>
                  </doseQuantity>
               </doseAndRate>
            </dosageInstruction>
         </MedicationRequest>
      </resource>
      <request>
         <method value="POST"/>
         <url value="MedicationRequest"/>
      </request>
   </entry>
   <entry>
<<<<<<< HEAD:ada_2_fhir-r4/mp/9.2.0/beschikbaarstellen_medicatiegegevens/fhir_instance/mg-mgrp-999900602-ALL.xml
      <fullUrl value="urn:uuid:c33f1b44-6a95-11ec-0000-020000000000"/>
      <resource>
         <MedicationRequest>
            <id value="mp9-21684011138832431199977160760051-MBH200tijdstippenflexibelMA"/>
=======
      <fullUrl value="urn:uuid:c33f1b6c-6a95-11ec-0000-020000000000"/>
      <resource>
         <MedicationRequest>
>>>>>>> origin/master:ada_2_fhir-r4/mp/9.2.0/beschikbaarstellen_medicatiegegevens/fhir_instance/mg-mgrp-999900936-ALL.xml
            <meta>
               <profile value="http://nictiz.nl/fhir/StructureDefinition/mp-MedicationAgreement"/>
            </meta>
            <extension url="http://nictiz.nl/fhir/StructureDefinition/ext-RenderedDosageInstruction">
               <valueString value="Vanaf T, tot en met T + 14 dagen, elke dag om 08:00, 14:00 en 20:00 1 stuk, oraal"/>
            </extension>
            <extension url="http://nictiz.nl/fhir/StructureDefinition/ext-TimeInterval.Period">
               <valuePeriod>
                  <start value="${DATE, T, D, +0}T00:00:00+02:00"/>
                  <end value="${DATE, T, D, +14}T23:59:59+02:00"/>
               </valuePeriod>
            </extension>
            <extension url="http://nictiz.nl/fhir/StructureDefinition/ext-PharmaceuticalTreatment.Identifier">
               <valueIdentifier>
                  <system value="urn:oid:2.16.840.1.113883.2.4.3.11.999.77.1.1"/>
                  <value value="MBH_200_tijdstippen_flexibel"/>
               </valueIdentifier>
            </extension>
            <identifier>
               <system value="urn:oid:2.16.840.1.113883.2.4.3.11.999.77.16076005.1"/>
               <value value="MBH_200_tijdstippen_flexibel_MA"/>
            </identifier>
            <status value="unknown"/>
            <intent value="order"/>
            <category>
               <coding>
                  <system value="http://snomed.info/sct"/>
                  <code value="33633005"/>
                  <display value="voorschrijven van geneesmiddel"/>
               </coding>
            </category>
            <medicationReference>
<<<<<<< HEAD:ada_2_fhir-r4/mp/9.2.0/beschikbaarstellen_medicatiegegevens/fhir_instance/mg-mgrp-999900602-ALL.xml
               <reference value="urn:uuid:c33f1eaa-6a95-11ec-0000-020000000000"/>
=======
               <reference value="urn:uuid:c33f1ed2-6a95-11ec-0000-020000000000"/>
>>>>>>> origin/master:ada_2_fhir-r4/mp/9.2.0/beschikbaarstellen_medicatiegegevens/fhir_instance/mg-mgrp-999900936-ALL.xml
               <type value="Medication"/>
               <display value="METFORMINE 500MG TABLET"/>
            </medicationReference>
            <subject>
<<<<<<< HEAD:ada_2_fhir-r4/mp/9.2.0/beschikbaarstellen_medicatiegegevens/fhir_instance/mg-mgrp-999900602-ALL.xml
               <reference value="urn:uuid:c33f1892-6a95-11ec-0000-020000000000"/>
=======
               <reference value="urn:uuid:c33f1950-6a95-11ec-0000-020000000000"/>
>>>>>>> origin/master:ada_2_fhir-r4/mp/9.2.0/beschikbaarstellen_medicatiegegevens/fhir_instance/mg-mgrp-999900936-ALL.xml
               <type value="Patient"/>
               <display value="Patient, M. XXX_Rambaldo"/>
            </subject>
            <authoredOn value="${DATE, T, D, +0}T08:24:00+02:00"/>
            <requester>
<<<<<<< HEAD:ada_2_fhir-r4/mp/9.2.0/beschikbaarstellen_medicatiegegevens/fhir_instance/mg-mgrp-999900602-ALL.xml
               <reference value="urn:uuid:c33f18ba-6a95-11ec-0000-020000000000"/>
=======
               <reference value="urn:uuid:c33f196e-6a95-11ec-0000-020000000000"/>
>>>>>>> origin/master:ada_2_fhir-r4/mp/9.2.0/beschikbaarstellen_medicatiegegevens/fhir_instance/mg-mgrp-999900936-ALL.xml
               <type value="PractitionerRole"/>
               <display value="Healthcare professional (role), Peter van Pulver, Huisartsen, niet nader gespecificeerd, Huisartsenpraktijk Pulver &amp; Partners"/>
            </requester>
            <dosageInstruction>
               <timing>
                  <repeat>
                     <extension url="http://hl7.org/fhir/StructureDefinition/timing-exact">
                        <valueBoolean value="false"/>
                     </extension>
                     <timeOfDay value="08:00:00"/>
                     <timeOfDay value="14:00:00"/>
                     <timeOfDay value="20:00:00"/>
                  </repeat>
               </timing>
               <route>
                  <coding>
                     <system value="urn:oid:2.16.840.1.113883.2.4.4.9"/>
                     <code value="9"/>
                     <display value="oraal"/>
                  </coding>
               </route>
               <doseAndRate>
                  <doseQuantity>
                     <extension url="http://hl7.org/fhir/StructureDefinition/iso21090-PQ-translation">
                        <valueQuantity>
                           <value value="1"/>
                           <unit value="stuk"/>
                           <system value="urn:oid:2.16.840.1.113883.2.4.4.1.900.2"/>
                           <code value="245"/>
                        </valueQuantity>
                     </extension>
                     <value value="1"/>
                     <unit value="stuk"/>
                     <system value="http://unitsofmeasure.org"/>
                     <code value="1"/>
                  </doseQuantity>
               </doseAndRate>
            </dosageInstruction>
         </MedicationRequest>
      </resource>
      <request>
         <method value="POST"/>
         <url value="MedicationRequest"/>
      </request>
   </entry>
   <entry>
<<<<<<< HEAD:ada_2_fhir-r4/mp/9.2.0/beschikbaarstellen_medicatiegegevens/fhir_instance/mg-mgrp-999900602-ALL.xml
      <fullUrl value="urn:uuid:c33f1b62-6a95-11ec-0000-020000000000"/>
      <resource>
         <MedicationDispense>
            <id value="p9-216840111388324311999774220370091-MBH200variabelefrequentieTA"/>
=======
      <fullUrl value="urn:uuid:c33f1b8a-6a95-11ec-0000-020000000000"/>
      <resource>
         <MedicationDispense>
>>>>>>> origin/master:ada_2_fhir-r4/mp/9.2.0/beschikbaarstellen_medicatiegegevens/fhir_instance/mg-mgrp-999900936-ALL.xml
            <meta>
               <profile value="http://nictiz.nl/fhir/StructureDefinition/mp-AdministrationAgreement"/>
            </meta>
            <extension url="http://nictiz.nl/fhir/StructureDefinition/ext-AdministrationAgreement.AdministrationAgreementDateTime">
               <valueDateTime value="${DATE, T, D, +0}T09:00:00+02:00"/>
            </extension>
            <extension url="http://nictiz.nl/fhir/StructureDefinition/ext-RenderedDosageInstruction">
               <valueString value="Vanaf T, tot en met T + 16 dagen, 1 à 2 maal per dag 1 stuk, Oraal"/>
            </extension>
            <extension url="http://nictiz.nl/fhir/StructureDefinition/ext-TimeInterval.Period">
               <valuePeriod>
                  <start value="${DATE, T, D, +0}T00:00:00+02:00"/>
                  <end value="${DATE, T, D, +16}T23:59:59+02:00"/>
               </valuePeriod>
            </extension>
            <extension url="http://nictiz.nl/fhir/StructureDefinition/ext-PharmaceuticalTreatment.Identifier">
               <valueIdentifier>
                  <system value="urn:oid:2.16.840.1.113883.2.4.3.11.999.77.1.1"/>
                  <value value="MBH_200_variabelefrequentie"/>
               </valueIdentifier>
            </extension>
            <identifier>
               <system value="urn:oid:2.16.840.1.113883.2.4.3.11.999.77.422037009.1"/>
               <value value="MBH_200_variabelefrequentie_TA"/>
            </identifier>
            <status value="unknown"/>
            <category>
               <coding>
                  <system value="http://snomed.info/sct"/>
                  <code value="422037009"/>
                  <display value="toedieningsafspraak"/>
               </coding>
            </category>
            <medicationReference>
<<<<<<< HEAD:ada_2_fhir-r4/mp/9.2.0/beschikbaarstellen_medicatiegegevens/fhir_instance/mg-mgrp-999900602-ALL.xml
               <reference value="urn:uuid:c33f1d60-6a95-11ec-0000-020000000000"/>
=======
               <reference value="urn:uuid:c33f1d88-6a95-11ec-0000-020000000000"/>
>>>>>>> origin/master:ada_2_fhir-r4/mp/9.2.0/beschikbaarstellen_medicatiegegevens/fhir_instance/mg-mgrp-999900936-ALL.xml
               <type value="Medication"/>
               <display value="MIZOLLEN TABLET MGA 10MG"/>
            </medicationReference>
            <subject>
<<<<<<< HEAD:ada_2_fhir-r4/mp/9.2.0/beschikbaarstellen_medicatiegegevens/fhir_instance/mg-mgrp-999900602-ALL.xml
               <reference value="urn:uuid:c33f1892-6a95-11ec-0000-020000000000"/>
=======
               <reference value="urn:uuid:c33f1950-6a95-11ec-0000-020000000000"/>
>>>>>>> origin/master:ada_2_fhir-r4/mp/9.2.0/beschikbaarstellen_medicatiegegevens/fhir_instance/mg-mgrp-999900936-ALL.xml
               <type value="Patient"/>
               <display value="Patient, M. XXX_Rambaldo"/>
            </subject>
            <performer>
               <actor>
<<<<<<< HEAD:ada_2_fhir-r4/mp/9.2.0/beschikbaarstellen_medicatiegegevens/fhir_instance/mg-mgrp-999900602-ALL.xml
                  <reference value="urn:uuid:c33f1946-6a95-11ec-0000-020000000000"/>
=======
                  <reference value="urn:uuid:c33f210c-6a95-11ec-0000-020000000000"/>
>>>>>>> origin/master:ada_2_fhir-r4/mp/9.2.0/beschikbaarstellen_medicatiegegevens/fhir_instance/mg-mgrp-999900936-ALL.xml
                  <type value="Organization"/>
                  <display value="Healthcare provider (organization), Apotheek de Gulle Gaper"/>
               </actor>
            </performer>
            <authorizingPrescription>
               <type value="MedicationRequest"/>
               <identifier>
                  <system value="urn:oid:2.16.840.1.113883.2.4.3.11.999.77.16076005.1"/>
                  <value value="MBH_200_variabelefrequentie_MA"/>
               </identifier>
               <display value="relatie naar medicatieafspraak met identificatie: MBH_200_variabelefrequentie_MA || 2.16.840.1.113883.2.4.3.11.999.77.16076005.1"/>
            </authorizingPrescription>
            <dosageInstruction>
               <timing>
                  <repeat>
                     <frequency value="1"/>
                     <frequencyMax value="2"/>
                     <period value="1"/>
                     <periodUnit value="d"/>
                  </repeat>
               </timing>
               <route>
                  <coding>
                     <system value="urn:oid:2.16.840.1.113883.2.4.4.9"/>
                     <code value="9"/>
                     <display value="Oraal"/>
                  </coding>
               </route>
               <doseAndRate>
                  <doseQuantity>
                     <extension url="http://hl7.org/fhir/StructureDefinition/iso21090-PQ-translation">
                        <valueQuantity>
                           <value value="1"/>
                           <unit value="stuk"/>
                           <system value="urn:oid:2.16.840.1.113883.2.4.4.1.900.2"/>
                           <code value="245"/>
                        </valueQuantity>
                     </extension>
                     <value value="1"/>
                     <unit value="stuk"/>
                     <system value="http://unitsofmeasure.org"/>
                     <code value="1"/>
                  </doseQuantity>
               </doseAndRate>
            </dosageInstruction>
         </MedicationDispense>
      </resource>
      <request>
         <method value="POST"/>
         <url value="MedicationDispense"/>
      </request>
   </entry>
   <entry>
<<<<<<< HEAD:ada_2_fhir-r4/mp/9.2.0/beschikbaarstellen_medicatiegegevens/fhir_instance/mg-mgrp-999900602-ALL.xml
      <fullUrl value="urn:uuid:c33f1b80-6a95-11ec-0000-020000000000"/>
      <resource>
         <MedicationDispense>
            <id value="mp-AdmAgr-mp9-216840111388324311999774220370091-MBH200intervalTA"/>
=======
      <fullUrl value="urn:uuid:c33f1ba8-6a95-11ec-0000-020000000000"/>
      <resource>
         <MedicationDispense>
>>>>>>> origin/master:ada_2_fhir-r4/mp/9.2.0/beschikbaarstellen_medicatiegegevens/fhir_instance/mg-mgrp-999900936-ALL.xml
            <meta>
               <profile value="http://nictiz.nl/fhir/StructureDefinition/mp-AdministrationAgreement"/>
            </meta>
            <extension url="http://nictiz.nl/fhir/StructureDefinition/ext-AdministrationAgreement.AdministrationAgreementDateTime">
               <valueDateTime value="${DATE, T, D, +0}T09:04:00+02:00"/>
            </extension>
            <extension url="http://nictiz.nl/fhir/StructureDefinition/ext-RenderedDosageInstruction">
               <valueString value="Vanaf T, iedere 8 uur 1 stuk - let op, tijden exact aanhouden, Oraal"/>
            </extension>
            <extension url="http://nictiz.nl/fhir/StructureDefinition/ext-TimeInterval.Period">
               <valuePeriod>
                  <start value="${DATE, T, D, +0}T00:00:00+02:00"/>
               </valuePeriod>
            </extension>
            <extension url="http://nictiz.nl/fhir/StructureDefinition/ext-PharmaceuticalTreatment.Identifier">
               <valueIdentifier>
                  <system value="urn:oid:2.16.840.1.113883.2.4.3.11.999.77.1.1"/>
                  <value value="MBH_200_interval"/>
               </valueIdentifier>
            </extension>
            <identifier>
               <system value="urn:oid:2.16.840.1.113883.2.4.3.11.999.77.422037009.1"/>
               <value value="MBH_200_interval_TA"/>
            </identifier>
            <status value="unknown"/>
            <category>
               <coding>
                  <system value="http://snomed.info/sct"/>
                  <code value="422037009"/>
                  <display value="toedieningsafspraak"/>
               </coding>
            </category>
            <medicationReference>
<<<<<<< HEAD:ada_2_fhir-r4/mp/9.2.0/beschikbaarstellen_medicatiegegevens/fhir_instance/mg-mgrp-999900602-ALL.xml
               <reference value="urn:uuid:c33f1d9c-6a95-11ec-0000-020000000000"/>
=======
               <reference value="urn:uuid:c33f1dc4-6a95-11ec-0000-020000000000"/>
>>>>>>> origin/master:ada_2_fhir-r4/mp/9.2.0/beschikbaarstellen_medicatiegegevens/fhir_instance/mg-mgrp-999900936-ALL.xml
               <type value="Medication"/>
               <display value="AMOXICILLINE DISPER SANDOZ TABLET 500MG"/>
            </medicationReference>
            <subject>
<<<<<<< HEAD:ada_2_fhir-r4/mp/9.2.0/beschikbaarstellen_medicatiegegevens/fhir_instance/mg-mgrp-999900602-ALL.xml
               <reference value="urn:uuid:c33f1892-6a95-11ec-0000-020000000000"/>
=======
               <reference value="urn:uuid:c33f1950-6a95-11ec-0000-020000000000"/>
>>>>>>> origin/master:ada_2_fhir-r4/mp/9.2.0/beschikbaarstellen_medicatiegegevens/fhir_instance/mg-mgrp-999900936-ALL.xml
               <type value="Patient"/>
               <display value="Patient, M. XXX_Rambaldo"/>
            </subject>
            <performer>
               <actor>
<<<<<<< HEAD:ada_2_fhir-r4/mp/9.2.0/beschikbaarstellen_medicatiegegevens/fhir_instance/mg-mgrp-999900602-ALL.xml
                  <reference value="urn:uuid:c33f1946-6a95-11ec-0000-020000000000"/>
=======
                  <reference value="urn:uuid:c33f210c-6a95-11ec-0000-020000000000"/>
>>>>>>> origin/master:ada_2_fhir-r4/mp/9.2.0/beschikbaarstellen_medicatiegegevens/fhir_instance/mg-mgrp-999900936-ALL.xml
                  <type value="Organization"/>
                  <display value="Healthcare provider (organization), Apotheek de Gulle Gaper"/>
               </actor>
            </performer>
            <authorizingPrescription>
               <type value="MedicationRequest"/>
               <identifier>
                  <system value="urn:oid:2.16.840.1.113883.2.4.3.11.999.77.16076005.1"/>
                  <value value="MBH_200_interval_MA"/>
               </identifier>
               <display value="relatie naar medicatieafspraak met identificatie: MBH_200_interval_MA || 2.16.840.1.113883.2.4.3.11.999.77.16076005.1"/>
            </authorizingPrescription>
            <dosageInstruction>
               <timing>
                  <repeat>
                     <extension url="http://hl7.org/fhir/StructureDefinition/timing-exact">
                        <valueBoolean value="true"/>
                     </extension>
                     <frequency value="1"/>
                     <period value="8"/>
                     <periodUnit value="h"/>
                  </repeat>
               </timing>
               <route>
                  <coding>
                     <system value="urn:oid:2.16.840.1.113883.2.4.4.9"/>
                     <code value="9"/>
                     <display value="Oraal"/>
                  </coding>
               </route>
               <doseAndRate>
                  <doseQuantity>
                     <extension url="http://hl7.org/fhir/StructureDefinition/iso21090-PQ-translation">
                        <valueQuantity>
                           <value value="1"/>
                           <unit value="stuk"/>
                           <system value="urn:oid:2.16.840.1.113883.2.4.4.1.900.2"/>
                           <code value="245"/>
                        </valueQuantity>
                     </extension>
                     <value value="1"/>
                     <unit value="stuk"/>
                     <system value="http://unitsofmeasure.org"/>
                     <code value="1"/>
                  </doseQuantity>
               </doseAndRate>
            </dosageInstruction>
         </MedicationDispense>
      </resource>
      <request>
         <method value="POST"/>
         <url value="MedicationDispense"/>
      </request>
   </entry>
   <entry>
<<<<<<< HEAD:ada_2_fhir-r4/mp/9.2.0/beschikbaarstellen_medicatiegegevens/fhir_instance/mg-mgrp-999900602-ALL.xml
      <fullUrl value="urn:uuid:c33f1b9e-6a95-11ec-0000-020000000000"/>
      <resource>
         <MedicationDispense>
            <id value="9-216840111388324311999774220370091-MBH200variabelehoeveelheidTA"/>
=======
      <fullUrl value="urn:uuid:c33f1bc6-6a95-11ec-0000-020000000000"/>
      <resource>
         <MedicationDispense>
>>>>>>> origin/master:ada_2_fhir-r4/mp/9.2.0/beschikbaarstellen_medicatiegegevens/fhir_instance/mg-mgrp-999900936-ALL.xml
            <meta>
               <profile value="http://nictiz.nl/fhir/StructureDefinition/mp-AdministrationAgreement"/>
            </meta>
            <extension url="http://nictiz.nl/fhir/StructureDefinition/ext-AdministrationAgreement.AdministrationAgreementDateTime">
               <valueDateTime value="${DATE, T, D, +0}T09:10:00+02:00"/>
            </extension>
            <extension url="http://nictiz.nl/fhir/StructureDefinition/ext-RenderedDosageInstruction">
               <valueString value="Vanaf T, tot en met T + 28 dagen, 3 maal per dag 1 à 2 stuks, oraal"/>
            </extension>
            <extension url="http://nictiz.nl/fhir/StructureDefinition/ext-TimeInterval.Period">
               <valuePeriod>
                  <start value="${DATE, T, D, +0}T00:00:00+02:00"/>
                  <end value="${DATE, T, D, +28}T23:59:59+02:00"/>
               </valuePeriod>
            </extension>
            <extension url="http://nictiz.nl/fhir/StructureDefinition/ext-PharmaceuticalTreatment.Identifier">
               <valueIdentifier>
                  <system value="urn:oid:2.16.840.1.113883.2.4.3.11.999.77.1.1"/>
                  <value value="MBH_200_variabelehoeveelheid"/>
               </valueIdentifier>
            </extension>
            <identifier>
               <system value="urn:oid:2.16.840.1.113883.2.4.3.11.999.77.422037009.1"/>
               <value value="MBH_200_variabelehoeveelheid_TA"/>
            </identifier>
            <status value="unknown"/>
            <category>
               <coding>
                  <system value="http://snomed.info/sct"/>
                  <code value="422037009"/>
                  <display value="toedieningsafspraak"/>
               </coding>
            </category>
            <medicationReference>
<<<<<<< HEAD:ada_2_fhir-r4/mp/9.2.0/beschikbaarstellen_medicatiegegevens/fhir_instance/mg-mgrp-999900602-ALL.xml
               <reference value="urn:uuid:c33f1dd8-6a95-11ec-0000-020000000000"/>
=======
               <reference value="urn:uuid:c33f1e00-6a95-11ec-0000-020000000000"/>
>>>>>>> origin/master:ada_2_fhir-r4/mp/9.2.0/beschikbaarstellen_medicatiegegevens/fhir_instance/mg-mgrp-999900936-ALL.xml
               <type value="Medication"/>
               <display value="PARACETAMOL AURO TABLET 500MG"/>
            </medicationReference>
            <subject>
<<<<<<< HEAD:ada_2_fhir-r4/mp/9.2.0/beschikbaarstellen_medicatiegegevens/fhir_instance/mg-mgrp-999900602-ALL.xml
               <reference value="urn:uuid:c33f1892-6a95-11ec-0000-020000000000"/>
=======
               <reference value="urn:uuid:c33f1950-6a95-11ec-0000-020000000000"/>
>>>>>>> origin/master:ada_2_fhir-r4/mp/9.2.0/beschikbaarstellen_medicatiegegevens/fhir_instance/mg-mgrp-999900936-ALL.xml
               <type value="Patient"/>
               <display value="Patient, M. XXX_Rambaldo"/>
            </subject>
            <performer>
               <actor>
<<<<<<< HEAD:ada_2_fhir-r4/mp/9.2.0/beschikbaarstellen_medicatiegegevens/fhir_instance/mg-mgrp-999900602-ALL.xml
                  <reference value="urn:uuid:c33f1946-6a95-11ec-0000-020000000000"/>
=======
                  <reference value="urn:uuid:c33f210c-6a95-11ec-0000-020000000000"/>
>>>>>>> origin/master:ada_2_fhir-r4/mp/9.2.0/beschikbaarstellen_medicatiegegevens/fhir_instance/mg-mgrp-999900936-ALL.xml
                  <type value="Organization"/>
                  <display value="Healthcare provider (organization), Apotheek de Gulle Gaper"/>
               </actor>
            </performer>
            <authorizingPrescription>
               <type value="MedicationRequest"/>
               <identifier>
                  <system value="urn:oid:2.16.840.1.113883.2.4.3.11.999.77.16076005.1"/>
                  <value value="MBH_200_variabelehoeveelheid_MA"/>
               </identifier>
               <display value="relatie naar medicatieafspraak met identificatie: MBH_200_variabelehoeveelheid_MA || 2.16.840.1.113883.2.4.3.11.999.77.16076005.1"/>
            </authorizingPrescription>
            <dosageInstruction>
               <timing>
                  <repeat>
                     <frequency value="3"/>
                     <period value="1"/>
                     <periodUnit value="d"/>
                  </repeat>
               </timing>
               <route>
                  <coding>
                     <system value="urn:oid:2.16.840.1.113883.2.4.4.9"/>
                     <code value="9"/>
                     <display value="oraal"/>
                  </coding>
               </route>
               <doseAndRate>
                  <doseRange>
                     <low>
                        <extension url="http://hl7.org/fhir/StructureDefinition/iso21090-PQ-translation">
                           <valueQuantity>
                              <value value="1"/>
                              <unit value="stuk"/>
                              <system value="urn:oid:2.16.840.1.113883.2.4.4.1.900.2"/>
                              <code value="245"/>
                           </valueQuantity>
                        </extension>
                        <value value="1"/>
                        <unit value="stuk"/>
                        <system value="http://unitsofmeasure.org"/>
                        <code value="1"/>
                     </low>
                     <high>
                        <extension url="http://hl7.org/fhir/StructureDefinition/iso21090-PQ-translation">
                           <valueQuantity>
                              <value value="2"/>
                              <unit value="stuk"/>
                              <system value="urn:oid:2.16.840.1.113883.2.4.4.1.900.2"/>
                              <code value="245"/>
                           </valueQuantity>
                        </extension>
                        <value value="2"/>
                        <unit value="stuk"/>
                        <system value="http://unitsofmeasure.org"/>
                        <code value="1"/>
                     </high>
                  </doseRange>
               </doseAndRate>
            </dosageInstruction>
         </MedicationDispense>
      </resource>
      <request>
         <method value="POST"/>
         <url value="MedicationDispense"/>
      </request>
   </entry>
   <entry>
<<<<<<< HEAD:ada_2_fhir-r4/mp/9.2.0/beschikbaarstellen_medicatiegegevens/fhir_instance/mg-mgrp-999900602-ALL.xml
      <fullUrl value="urn:uuid:c33f1bbc-6a95-11ec-0000-020000000000"/>
      <resource>
         <MedicationDispense>
            <id value="gr-mp9-216840111388324311999774220370091-MBH200zonderkeerdosisTA"/>
=======
      <fullUrl value="urn:uuid:c33f1be4-6a95-11ec-0000-020000000000"/>
      <resource>
         <MedicationDispense>
>>>>>>> origin/master:ada_2_fhir-r4/mp/9.2.0/beschikbaarstellen_medicatiegegevens/fhir_instance/mg-mgrp-999900936-ALL.xml
            <meta>
               <profile value="http://nictiz.nl/fhir/StructureDefinition/mp-AdministrationAgreement"/>
            </meta>
            <extension url="http://nictiz.nl/fhir/StructureDefinition/ext-AdministrationAgreement.AdministrationAgreementDateTime">
               <valueDateTime value="${DATE, T, D, +0}T09:12:00+02:00"/>
            </extension>
            <extension url="http://nictiz.nl/fhir/StructureDefinition/ext-RenderedDosageInstruction">
               <valueString value="Vanaf T, tot en met T + 28 dagen, 3 maal per dag, aanbrengen, cutaan"/>
            </extension>
            <extension url="http://nictiz.nl/fhir/StructureDefinition/ext-TimeInterval.Period">
               <valuePeriod>
                  <start value="${DATE, T, D, +0}T00:00:00+02:00"/>
                  <end value="${DATE, T, D, +28}T23:59:59+02:00"/>
               </valuePeriod>
            </extension>
            <extension url="http://nictiz.nl/fhir/StructureDefinition/ext-PharmaceuticalTreatment.Identifier">
               <valueIdentifier>
                  <system value="urn:oid:2.16.840.1.113883.2.4.3.11.999.77.1.1"/>
                  <value value="MBH_200_zonderkeerdosis"/>
               </valueIdentifier>
            </extension>
            <identifier>
               <system value="urn:oid:2.16.840.1.113883.2.4.3.11.999.77.422037009.1"/>
               <value value="MBH_200_zonderkeerdosis_TA"/>
            </identifier>
            <status value="unknown"/>
            <category>
               <coding>
                  <system value="http://snomed.info/sct"/>
                  <code value="422037009"/>
                  <display value="toedieningsafspraak"/>
               </coding>
            </category>
            <medicationReference>
<<<<<<< HEAD:ada_2_fhir-r4/mp/9.2.0/beschikbaarstellen_medicatiegegevens/fhir_instance/mg-mgrp-999900602-ALL.xml
               <reference value="urn:uuid:c33f1e14-6a95-11ec-0000-020000000000"/>
=======
               <reference value="urn:uuid:c33f1e3c-6a95-11ec-0000-020000000000"/>
>>>>>>> origin/master:ada_2_fhir-r4/mp/9.2.0/beschikbaarstellen_medicatiegegevens/fhir_instance/mg-mgrp-999900936-ALL.xml
               <type value="Medication"/>
               <display value="CETOMACROGOLCREME MET 10% VASELINE FAGRON"/>
            </medicationReference>
            <subject>
<<<<<<< HEAD:ada_2_fhir-r4/mp/9.2.0/beschikbaarstellen_medicatiegegevens/fhir_instance/mg-mgrp-999900602-ALL.xml
               <reference value="urn:uuid:c33f1892-6a95-11ec-0000-020000000000"/>
=======
               <reference value="urn:uuid:c33f1950-6a95-11ec-0000-020000000000"/>
>>>>>>> origin/master:ada_2_fhir-r4/mp/9.2.0/beschikbaarstellen_medicatiegegevens/fhir_instance/mg-mgrp-999900936-ALL.xml
               <type value="Patient"/>
               <display value="Patient, M. XXX_Rambaldo"/>
            </subject>
            <performer>
               <actor>
<<<<<<< HEAD:ada_2_fhir-r4/mp/9.2.0/beschikbaarstellen_medicatiegegevens/fhir_instance/mg-mgrp-999900602-ALL.xml
                  <reference value="urn:uuid:c33f1946-6a95-11ec-0000-020000000000"/>
=======
                  <reference value="urn:uuid:c33f210c-6a95-11ec-0000-020000000000"/>
>>>>>>> origin/master:ada_2_fhir-r4/mp/9.2.0/beschikbaarstellen_medicatiegegevens/fhir_instance/mg-mgrp-999900936-ALL.xml
                  <type value="Organization"/>
                  <display value="Healthcare provider (organization), Apotheek de Gulle Gaper"/>
               </actor>
            </performer>
            <authorizingPrescription>
               <type value="MedicationRequest"/>
               <identifier>
                  <system value="urn:oid:2.16.840.1.113883.2.4.3.11.999.77.16076005.1"/>
                  <value value="MBH_200_zonderkeerdosis_MA"/>
               </identifier>
               <display value="relatie naar medicatieafspraak met identificatie: MBH_200_zonderkeerdosis_MA || 2.16.840.1.113883.2.4.3.11.999.77.16076005.1"/>
            </authorizingPrescription>
            <dosageInstruction>
               <additionalInstruction>
                  <coding>
                     <system value="https://referentiemodel.nhg.org/tabellen/nhg-tabel-25-gebruiksvoorschrift#aanvullend-numeriek"/>
                     <code value="1018"/>
                     <display value="aanbrengen"/>
                  </coding>
               </additionalInstruction>
               <timing>
                  <repeat>
                     <frequency value="3"/>
                     <period value="1"/>
                     <periodUnit value="d"/>
                  </repeat>
               </timing>
               <route>
                  <coding>
                     <system value="urn:oid:2.16.840.1.113883.2.4.4.9"/>
                     <code value="53"/>
                     <display value="cutaan"/>
                  </coding>
               </route>
            </dosageInstruction>
         </MedicationDispense>
      </resource>
      <request>
         <method value="POST"/>
         <url value="MedicationDispense"/>
      </request>
   </entry>
   <entry>
<<<<<<< HEAD:ada_2_fhir-r4/mp/9.2.0/beschikbaarstellen_medicatiegegevens/fhir_instance/mg-mgrp-999900602-ALL.xml
      <fullUrl value="urn:uuid:c33f1bda-6a95-11ec-0000-020000000000"/>
      <resource>
         <MedicationDispense>
            <id value="p9-216840111388324311999774220370091-MBH200bijzonderekeerdosisTA"/>
=======
      <fullUrl value="urn:uuid:c33f1c02-6a95-11ec-0000-020000000000"/>
      <resource>
         <MedicationDispense>
>>>>>>> origin/master:ada_2_fhir-r4/mp/9.2.0/beschikbaarstellen_medicatiegegevens/fhir_instance/mg-mgrp-999900936-ALL.xml
            <meta>
               <profile value="http://nictiz.nl/fhir/StructureDefinition/mp-AdministrationAgreement"/>
            </meta>
            <extension url="http://nictiz.nl/fhir/StructureDefinition/ext-AdministrationAgreement.AdministrationAgreementDateTime">
               <valueDateTime value="${DATE, T, D, +0}T09:15:00+02:00"/>
            </extension>
            <extension url="http://nictiz.nl/fhir/StructureDefinition/ext-RenderedDosageInstruction">
               <valueString value="Vanaf T, tot en met T + 28 dagen, 2 maal per dag 0.5 stuk, oraal"/>
            </extension>
            <extension url="http://nictiz.nl/fhir/StructureDefinition/ext-TimeInterval.Period">
               <valuePeriod>
                  <start value="${DATE, T, D, +0}T00:00:00+02:00"/>
                  <end value="${DATE, T, D, +28}T23:59:59+02:00"/>
               </valuePeriod>
            </extension>
            <extension url="http://nictiz.nl/fhir/StructureDefinition/ext-PharmaceuticalTreatment.Identifier">
               <valueIdentifier>
                  <system value="urn:oid:2.16.840.1.113883.2.4.3.11.999.77.1.1"/>
                  <value value="MBH_200_bijzonderekeerdosis"/>
               </valueIdentifier>
            </extension>
            <identifier>
               <system value="urn:oid:2.16.840.1.113883.2.4.3.11.999.77.422037009.1"/>
               <value value="MBH_200_bijzonderekeerdosis_TA"/>
            </identifier>
            <status value="unknown"/>
            <category>
               <coding>
                  <system value="http://snomed.info/sct"/>
                  <code value="422037009"/>
                  <display value="toedieningsafspraak"/>
               </coding>
            </category>
            <medicationReference>
<<<<<<< HEAD:ada_2_fhir-r4/mp/9.2.0/beschikbaarstellen_medicatiegegevens/fhir_instance/mg-mgrp-999900602-ALL.xml
               <reference value="urn:uuid:c33f1e50-6a95-11ec-0000-020000000000"/>
=======
               <reference value="urn:uuid:c33f1e78-6a95-11ec-0000-020000000000"/>
>>>>>>> origin/master:ada_2_fhir-r4/mp/9.2.0/beschikbaarstellen_medicatiegegevens/fhir_instance/mg-mgrp-999900936-ALL.xml
               <type value="Medication"/>
               <display value="NAPROXEN APOTEX TABLET 500MG"/>
            </medicationReference>
            <subject>
<<<<<<< HEAD:ada_2_fhir-r4/mp/9.2.0/beschikbaarstellen_medicatiegegevens/fhir_instance/mg-mgrp-999900602-ALL.xml
               <reference value="urn:uuid:c33f1892-6a95-11ec-0000-020000000000"/>
=======
               <reference value="urn:uuid:c33f1950-6a95-11ec-0000-020000000000"/>
>>>>>>> origin/master:ada_2_fhir-r4/mp/9.2.0/beschikbaarstellen_medicatiegegevens/fhir_instance/mg-mgrp-999900936-ALL.xml
               <type value="Patient"/>
               <display value="Patient, M. XXX_Rambaldo"/>
            </subject>
            <performer>
               <actor>
<<<<<<< HEAD:ada_2_fhir-r4/mp/9.2.0/beschikbaarstellen_medicatiegegevens/fhir_instance/mg-mgrp-999900602-ALL.xml
                  <reference value="urn:uuid:c33f1946-6a95-11ec-0000-020000000000"/>
=======
                  <reference value="urn:uuid:c33f210c-6a95-11ec-0000-020000000000"/>
>>>>>>> origin/master:ada_2_fhir-r4/mp/9.2.0/beschikbaarstellen_medicatiegegevens/fhir_instance/mg-mgrp-999900936-ALL.xml
                  <type value="Organization"/>
                  <display value="Healthcare provider (organization), Apotheek de Gulle Gaper"/>
               </actor>
            </performer>
            <authorizingPrescription>
               <type value="MedicationRequest"/>
               <identifier>
                  <system value="urn:oid:2.16.840.1.113883.2.4.3.11.999.77.16076005.1"/>
                  <value value="MBH_200_bijzonderekeerdosis_MA"/>
               </identifier>
               <display value="relatie naar medicatieafspraak met identificatie: MBH_200_bijzonderekeerdosis_MA || 2.16.840.1.113883.2.4.3.11.999.77.16076005.1"/>
            </authorizingPrescription>
            <dosageInstruction>
               <timing>
                  <repeat>
                     <frequency value="2"/>
                     <period value="1"/>
                     <periodUnit value="d"/>
                  </repeat>
               </timing>
               <route>
                  <coding>
                     <system value="urn:oid:2.16.840.1.113883.2.4.4.9"/>
                     <code value="9"/>
                     <display value="oraal"/>
                  </coding>
               </route>
               <doseAndRate>
                  <doseQuantity>
                     <extension url="http://hl7.org/fhir/StructureDefinition/iso21090-PQ-translation">
                        <valueQuantity>
                           <value value="0.5"/>
                           <unit value="stuk"/>
                           <system value="urn:oid:2.16.840.1.113883.2.4.4.1.900.2"/>
                           <code value="245"/>
                        </valueQuantity>
                     </extension>
                     <value value="0.5"/>
                     <unit value="stuk"/>
                     <system value="http://unitsofmeasure.org"/>
                     <code value="1"/>
                  </doseQuantity>
               </doseAndRate>
            </dosageInstruction>
         </MedicationDispense>
      </resource>
      <request>
         <method value="POST"/>
         <url value="MedicationDispense"/>
      </request>
   </entry>
   <entry>
<<<<<<< HEAD:ada_2_fhir-r4/mp/9.2.0/beschikbaarstellen_medicatiegegevens/fhir_instance/mg-mgrp-999900602-ALL.xml
      <fullUrl value="urn:uuid:c33f1bf8-6a95-11ec-0000-020000000000"/>
      <resource>
         <MedicationDispense>
            <id value="mp-AdmAgr-mp9-c33f189f-6a95-11ec-0000-020000000000"/>
=======
      <fullUrl value="urn:uuid:c33f1c20-6a95-11ec-0000-020000000000"/>
      <resource>
         <MedicationDispense>
>>>>>>> origin/master:ada_2_fhir-r4/mp/9.2.0/beschikbaarstellen_medicatiegegevens/fhir_instance/mg-mgrp-999900936-ALL.xml
            <meta>
               <profile value="http://nictiz.nl/fhir/StructureDefinition/mp-AdministrationAgreement"/>
            </meta>
            <extension url="http://nictiz.nl/fhir/StructureDefinition/ext-AdministrationAgreement.AdministrationAgreementDateTime">
               <valueDateTime value="${DATE, T, D, +0}T09:18:00+02:00"/>
            </extension>
            <extension url="http://nictiz.nl/fhir/StructureDefinition/ext-RenderedDosageInstruction">
               <valueString value="Vanaf T, tot en met T + 28 dagen, 2 maal per dag 10 à 15 ml, Eerst oplossen in water, mond spoelen, daarna uitspugen, OROMUCOSAAL"/>
            </extension>
            <extension url="http://nictiz.nl/fhir/StructureDefinition/ext-TimeInterval.Period">
               <valuePeriod>
                  <start value="${DATE, T, D, +0}T00:00:00+02:00"/>
                  <end value="${DATE, T, D, +28}T23:59:59+02:00"/>
               </valuePeriod>
            </extension>
            <extension url="http://nictiz.nl/fhir/StructureDefinition/ext-PharmaceuticalTreatment.Identifier">
               <valueIdentifier>
                  <system value="urn:oid:2.16.840.1.113883.2.4.3.11.999.77.1.1"/>
                  <value value="MBH_200_variabelehoeveelheid2"/>
               </valueIdentifier>
            </extension>
            <identifier>
               <system value="urn:oid:2.16.840.1.113883.2.4.3.11.999.77.422037009.1"/>
               <value value="MBH_200_variabelehoeveelheid2_TA"/>
            </identifier>
            <status value="unknown"/>
            <category>
               <coding>
                  <system value="http://snomed.info/sct"/>
                  <code value="422037009"/>
                  <display value="toedieningsafspraak"/>
               </coding>
            </category>
            <medicationReference>
<<<<<<< HEAD:ada_2_fhir-r4/mp/9.2.0/beschikbaarstellen_medicatiegegevens/fhir_instance/mg-mgrp-999900602-ALL.xml
               <reference value="urn:uuid:c33f1e8c-6a95-11ec-0000-020000000000"/>
=======
               <reference value="urn:uuid:c33f1eb4-6a95-11ec-0000-020000000000"/>
>>>>>>> origin/master:ada_2_fhir-r4/mp/9.2.0/beschikbaarstellen_medicatiegegevens/fhir_instance/mg-mgrp-999900936-ALL.xml
               <type value="Medication"/>
               <display value="WATERSTOFPEROXIDE 3% CONC VOOR MONDSP FNA MR"/>
            </medicationReference>
            <subject>
<<<<<<< HEAD:ada_2_fhir-r4/mp/9.2.0/beschikbaarstellen_medicatiegegevens/fhir_instance/mg-mgrp-999900602-ALL.xml
               <reference value="urn:uuid:c33f1892-6a95-11ec-0000-020000000000"/>
=======
               <reference value="urn:uuid:c33f1950-6a95-11ec-0000-020000000000"/>
>>>>>>> origin/master:ada_2_fhir-r4/mp/9.2.0/beschikbaarstellen_medicatiegegevens/fhir_instance/mg-mgrp-999900936-ALL.xml
               <type value="Patient"/>
               <display value="Patient, M. XXX_Rambaldo"/>
            </subject>
            <performer>
               <actor>
<<<<<<< HEAD:ada_2_fhir-r4/mp/9.2.0/beschikbaarstellen_medicatiegegevens/fhir_instance/mg-mgrp-999900602-ALL.xml
                  <reference value="urn:uuid:c33f1946-6a95-11ec-0000-020000000000"/>
=======
                  <reference value="urn:uuid:c33f210c-6a95-11ec-0000-020000000000"/>
>>>>>>> origin/master:ada_2_fhir-r4/mp/9.2.0/beschikbaarstellen_medicatiegegevens/fhir_instance/mg-mgrp-999900936-ALL.xml
                  <type value="Organization"/>
                  <display value="Healthcare provider (organization), Apotheek de Gulle Gaper"/>
               </actor>
            </performer>
            <authorizingPrescription>
               <type value="MedicationRequest"/>
               <identifier>
                  <system value="urn:oid:2.16.840.1.113883.2.4.3.11.999.77.16076005.1"/>
                  <value value="MBH_200_variabelehoeveelheid2_MA"/>
               </identifier>
               <display value="relatie naar medicatieafspraak met identificatie: MBH_200_variabelehoeveelheid2_MA || 2.16.840.1.113883.2.4.3.11.999.77.16076005.1"/>
            </authorizingPrescription>
            <dosageInstruction>
               <additionalInstruction>
                  <coding>
                     <system value="https://referentiemodel.nhg.org/tabellen/nhg-tabel-25-gebruiksvoorschrift#aanvullend-numeriek"/>
                     <code value="27"/>
                     <display value="Eerst oplossen in water"/>
                  </coding>
               </additionalInstruction>
               <additionalInstruction>
                  <coding>
                     <system value="https://referentiemodel.nhg.org/tabellen/nhg-tabel-25-gebruiksvoorschrift#aanvullend-numeriek"/>
                     <code value="69"/>
                     <display value="mond spoelen, daarna uitspugen"/>
                  </coding>
               </additionalInstruction>
               <timing>
                  <repeat>
                     <frequency value="2"/>
                     <period value="1"/>
                     <periodUnit value="d"/>
                  </repeat>
               </timing>
               <route>
                  <coding>
                     <system value="urn:oid:2.16.840.1.113883.2.4.4.9"/>
                     <code value="34"/>
                     <display value="OROMUCOSAAL"/>
                  </coding>
               </route>
               <doseAndRate>
                  <doseRange>
                     <low>
                        <extension url="http://hl7.org/fhir/StructureDefinition/iso21090-PQ-translation">
                           <valueQuantity>
                              <value value="10"/>
                              <unit value="milliliter"/>
                              <system value="urn:oid:2.16.840.1.113883.2.4.4.1.900.2"/>
                              <code value="233"/>
                           </valueQuantity>
                        </extension>
                        <value value="10"/>
                        <unit value="milliliter"/>
                        <system value="http://unitsofmeasure.org"/>
                        <code value="ml"/>
                     </low>
                     <high>
                        <extension url="http://hl7.org/fhir/StructureDefinition/iso21090-PQ-translation">
                           <valueQuantity>
                              <value value="15"/>
                              <unit value="milliliter"/>
                              <system value="urn:oid:2.16.840.1.113883.2.4.4.1.900.2"/>
                              <code value="233"/>
                           </valueQuantity>
                        </extension>
                        <value value="15"/>
                        <unit value="milliliter"/>
                        <system value="http://unitsofmeasure.org"/>
                        <code value="ml"/>
                     </high>
                  </doseRange>
               </doseAndRate>
            </dosageInstruction>
         </MedicationDispense>
      </resource>
      <request>
         <method value="POST"/>
         <url value="MedicationDispense"/>
      </request>
   </entry>
   <entry>
<<<<<<< HEAD:ada_2_fhir-r4/mp/9.2.0/beschikbaarstellen_medicatiegegevens/fhir_instance/mg-mgrp-999900602-ALL.xml
      <fullUrl value="urn:uuid:c33f1c16-6a95-11ec-0000-020000000000"/>
      <resource>
         <MedicationDispense>
            <id value="mp-AdmAgr-mp9-c33f18d7-6a95-11ec-0000-020000000000"/>
=======
      <fullUrl value="urn:uuid:c33f1c3e-6a95-11ec-0000-020000000000"/>
      <resource>
         <MedicationDispense>
>>>>>>> origin/master:ada_2_fhir-r4/mp/9.2.0/beschikbaarstellen_medicatiegegevens/fhir_instance/mg-mgrp-999900936-ALL.xml
            <meta>
               <profile value="http://nictiz.nl/fhir/StructureDefinition/mp-AdministrationAgreement"/>
            </meta>
            <extension url="http://nictiz.nl/fhir/StructureDefinition/ext-AdministrationAgreement.AdministrationAgreementDateTime">
               <valueDateTime value="${DATE, T, D, +0}T10:15:00+02:00"/>
            </extension>
            <extension url="http://nictiz.nl/fhir/StructureDefinition/ext-RenderedDosageInstruction">
               <valueString value="elke dag om 09:00, 12:00 en 15:00 1 stuk - let op, tijden exact aanhouden, oraal"/>
            </extension>
            <extension url="http://nictiz.nl/fhir/StructureDefinition/ext-PharmaceuticalTreatment.Identifier">
               <valueIdentifier>
                  <system value="urn:oid:2.16.840.1.113883.2.4.3.11.999.77.1.1"/>
                  <value value="MBH_200_tijdstippen_niet_flexibel"/>
               </valueIdentifier>
            </extension>
            <identifier>
               <system value="urn:oid:2.16.840.1.113883.2.4.3.11.999.77.422037009.1"/>
               <value value="MBH_200_tijdstippen_niet_flexibel_TA"/>
            </identifier>
            <status value="unknown"/>
            <category>
               <coding>
                  <system value="http://snomed.info/sct"/>
                  <code value="422037009"/>
                  <display value="toedieningsafspraak"/>
               </coding>
            </category>
            <medicationReference>
<<<<<<< HEAD:ada_2_fhir-r4/mp/9.2.0/beschikbaarstellen_medicatiegegevens/fhir_instance/mg-mgrp-999900602-ALL.xml
               <reference value="urn:uuid:c33f1eaa-6a95-11ec-0000-020000000000"/>
=======
               <reference value="urn:uuid:c33f1ed2-6a95-11ec-0000-020000000000"/>
>>>>>>> origin/master:ada_2_fhir-r4/mp/9.2.0/beschikbaarstellen_medicatiegegevens/fhir_instance/mg-mgrp-999900936-ALL.xml
               <type value="Medication"/>
               <display value="METFORMINE 500MG TABLET"/>
            </medicationReference>
            <subject>
<<<<<<< HEAD:ada_2_fhir-r4/mp/9.2.0/beschikbaarstellen_medicatiegegevens/fhir_instance/mg-mgrp-999900602-ALL.xml
               <reference value="urn:uuid:c33f1892-6a95-11ec-0000-020000000000"/>
=======
               <reference value="urn:uuid:c33f1950-6a95-11ec-0000-020000000000"/>
>>>>>>> origin/master:ada_2_fhir-r4/mp/9.2.0/beschikbaarstellen_medicatiegegevens/fhir_instance/mg-mgrp-999900936-ALL.xml
               <type value="Patient"/>
               <display value="Patient, M. XXX_Rambaldo"/>
            </subject>
            <performer>
               <actor>
<<<<<<< HEAD:ada_2_fhir-r4/mp/9.2.0/beschikbaarstellen_medicatiegegevens/fhir_instance/mg-mgrp-999900602-ALL.xml
                  <reference value="urn:uuid:c33f1946-6a95-11ec-0000-020000000000"/>
=======
                  <reference value="urn:uuid:c33f210c-6a95-11ec-0000-020000000000"/>
>>>>>>> origin/master:ada_2_fhir-r4/mp/9.2.0/beschikbaarstellen_medicatiegegevens/fhir_instance/mg-mgrp-999900936-ALL.xml
                  <type value="Organization"/>
                  <display value="Healthcare provider (organization), Apotheek de Gulle Gaper"/>
               </actor>
            </performer>
            <authorizingPrescription>
               <type value="MedicationRequest"/>
               <identifier>
                  <system value="urn:oid:2.16.840.1.113883.2.4.3.11.999.77.16076005.1"/>
                  <value value="MBH_200_tijdstippen_niet_flexibel_MA"/>
               </identifier>
               <display value="relatie naar medicatieafspraak met identificatie: MBH_200_tijdstippen_niet_flexibel_MA || 2.16.840.1.113883.2.4.3.11.999.77.16076005.1"/>
            </authorizingPrescription>
            <dosageInstruction>
               <timing>
                  <repeat>
                     <extension url="http://hl7.org/fhir/StructureDefinition/timing-exact">
                        <valueBoolean value="true"/>
                     </extension>
                     <timeOfDay value="09:00:00"/>
                     <timeOfDay value="12:00:00"/>
                     <timeOfDay value="15:00:00"/>
                  </repeat>
               </timing>
               <route>
                  <coding>
                     <system value="urn:oid:2.16.840.1.113883.2.4.4.9"/>
                     <code value="9"/>
                     <display value="oraal"/>
                  </coding>
               </route>
               <doseAndRate>
                  <doseQuantity>
                     <extension url="http://hl7.org/fhir/StructureDefinition/iso21090-PQ-translation">
                        <valueQuantity>
                           <value value="1"/>
                           <unit value="stuk"/>
                           <system value="urn:oid:2.16.840.1.113883.2.4.4.1.900.2"/>
                           <code value="245"/>
                        </valueQuantity>
                     </extension>
                     <value value="1"/>
                     <unit value="stuk"/>
                     <system value="http://unitsofmeasure.org"/>
                     <code value="1"/>
                  </doseQuantity>
               </doseAndRate>
            </dosageInstruction>
         </MedicationDispense>
      </resource>
      <request>
         <method value="POST"/>
         <url value="MedicationDispense"/>
      </request>
   </entry>
   <entry>
<<<<<<< HEAD:ada_2_fhir-r4/mp/9.2.0/beschikbaarstellen_medicatiegegevens/fhir_instance/mg-mgrp-999900602-ALL.xml
      <fullUrl value="urn:uuid:c33f1c34-6a95-11ec-0000-020000000000"/>
      <resource>
         <MedicationDispense>
            <id value="p-AdmAgr-mp9-216840111388324311999774220370091-MBH200weekdagenTA"/>
=======
      <fullUrl value="urn:uuid:c33f1c5c-6a95-11ec-0000-020000000000"/>
      <resource>
         <MedicationDispense>
>>>>>>> origin/master:ada_2_fhir-r4/mp/9.2.0/beschikbaarstellen_medicatiegegevens/fhir_instance/mg-mgrp-999900936-ALL.xml
            <meta>
               <profile value="http://nictiz.nl/fhir/StructureDefinition/mp-AdministrationAgreement"/>
            </meta>
            <extension url="http://nictiz.nl/fhir/StructureDefinition/ext-AdministrationAgreement.AdministrationAgreementDateTime">
               <valueDateTime value="${DATE, T, D, +0}T09:25:00+02:00"/>
            </extension>
            <extension url="http://nictiz.nl/fhir/StructureDefinition/ext-RenderedDosageInstruction">
               <valueString value="Vanaf T, tot en met T + 70 dagen, op maandag, woensdag en vrijdag, voor de nacht, aanbrengen, cutaan"/>
            </extension>
            <extension url="http://nictiz.nl/fhir/StructureDefinition/ext-TimeInterval.Period">
               <valuePeriod>
                  <start value="${DATE, T, D, +0}T00:00:00+02:00"/>
                  <end value="${DATE, T, D, +70}T23:59:59+02:00"/>
               </valuePeriod>
            </extension>
            <extension url="http://nictiz.nl/fhir/StructureDefinition/ext-PharmaceuticalTreatment.Identifier">
               <valueIdentifier>
                  <system value="urn:oid:2.16.840.1.113883.2.4.3.11.999.77.1.1"/>
                  <value value="MBH_200_weekdagen"/>
               </valueIdentifier>
            </extension>
            <identifier>
               <system value="urn:oid:2.16.840.1.113883.2.4.3.11.999.77.422037009.1"/>
               <value value="MBH_200_weekdagen_TA"/>
            </identifier>
            <status value="unknown"/>
            <category>
               <coding>
                  <system value="http://snomed.info/sct"/>
                  <code value="422037009"/>
                  <display value="toedieningsafspraak"/>
               </coding>
            </category>
            <medicationReference>
<<<<<<< HEAD:ada_2_fhir-r4/mp/9.2.0/beschikbaarstellen_medicatiegegevens/fhir_instance/mg-mgrp-999900602-ALL.xml
               <reference value="urn:uuid:c33f1f04-6a95-11ec-0000-020000000000"/>
=======
               <reference value="urn:uuid:c33f1f2c-6a95-11ec-0000-020000000000"/>
>>>>>>> origin/master:ada_2_fhir-r4/mp/9.2.0/beschikbaarstellen_medicatiegegevens/fhir_instance/mg-mgrp-999900936-ALL.xml
               <type value="Medication"/>
               <display value="ALDARA CREME 50MG/G IN SACHET"/>
            </medicationReference>
            <subject>
<<<<<<< HEAD:ada_2_fhir-r4/mp/9.2.0/beschikbaarstellen_medicatiegegevens/fhir_instance/mg-mgrp-999900602-ALL.xml
               <reference value="urn:uuid:c33f1892-6a95-11ec-0000-020000000000"/>
=======
               <reference value="urn:uuid:c33f1950-6a95-11ec-0000-020000000000"/>
>>>>>>> origin/master:ada_2_fhir-r4/mp/9.2.0/beschikbaarstellen_medicatiegegevens/fhir_instance/mg-mgrp-999900936-ALL.xml
               <type value="Patient"/>
               <display value="Patient, M. XXX_Rambaldo"/>
            </subject>
            <performer>
               <actor>
<<<<<<< HEAD:ada_2_fhir-r4/mp/9.2.0/beschikbaarstellen_medicatiegegevens/fhir_instance/mg-mgrp-999900602-ALL.xml
                  <reference value="urn:uuid:c33f1946-6a95-11ec-0000-020000000000"/>
=======
                  <reference value="urn:uuid:c33f210c-6a95-11ec-0000-020000000000"/>
>>>>>>> origin/master:ada_2_fhir-r4/mp/9.2.0/beschikbaarstellen_medicatiegegevens/fhir_instance/mg-mgrp-999900936-ALL.xml
                  <type value="Organization"/>
                  <display value="Healthcare provider (organization), Apotheek de Gulle Gaper"/>
               </actor>
            </performer>
            <authorizingPrescription>
               <type value="MedicationRequest"/>
               <identifier>
                  <system value="urn:oid:2.16.840.1.113883.2.4.3.11.999.77.16076005.1"/>
                  <value value="MBH_200_weekdagen_MA"/>
               </identifier>
               <display value="relatie naar medicatieafspraak met identificatie: MBH_200_weekdagen_MA || 2.16.840.1.113883.2.4.3.11.999.77.16076005.1"/>
            </authorizingPrescription>
            <dosageInstruction>
               <additionalInstruction>
                  <coding>
                     <system value="https://referentiemodel.nhg.org/tabellen/nhg-tabel-25-gebruiksvoorschrift#aanvullend-numeriek"/>
                     <code value="1128"/>
                     <display value="voor de nacht"/>
                  </coding>
               </additionalInstruction>
               <additionalInstruction>
                  <coding>
                     <system value="https://referentiemodel.nhg.org/tabellen/nhg-tabel-25-gebruiksvoorschrift#aanvullend-numeriek"/>
                     <code value="1018"/>
                     <display value="aanbrengen"/>
                  </coding>
               </additionalInstruction>
               <timing>
                  <repeat>
                     <dayOfWeek value="mon"/>
                     <dayOfWeek value="wed"/>
                     <dayOfWeek value="fri"/>
                  </repeat>
               </timing>
               <route>
                  <coding>
                     <system value="urn:oid:2.16.840.1.113883.2.4.4.9"/>
                     <code value="53"/>
                     <display value="cutaan"/>
                  </coding>
               </route>
            </dosageInstruction>
         </MedicationDispense>
      </resource>
      <request>
         <method value="POST"/>
         <url value="MedicationDispense"/>
      </request>
   </entry>
   <entry>
<<<<<<< HEAD:ada_2_fhir-r4/mp/9.2.0/beschikbaarstellen_medicatiegegevens/fhir_instance/mg-mgrp-999900602-ALL.xml
      <fullUrl value="urn:uuid:c33f1c52-6a95-11ec-0000-020000000000"/>
      <resource>
         <MedicationDispense>
            <id value="mp-AdmAgr-mp9-216840111388324311999774220370091-MBH200dagdeelTA"/>
=======
      <fullUrl value="urn:uuid:c33f1c7a-6a95-11ec-0000-020000000000"/>
      <resource>
         <MedicationDispense>
>>>>>>> origin/master:ada_2_fhir-r4/mp/9.2.0/beschikbaarstellen_medicatiegegevens/fhir_instance/mg-mgrp-999900936-ALL.xml
            <meta>
               <profile value="http://nictiz.nl/fhir/StructureDefinition/mp-AdministrationAgreement"/>
            </meta>
            <extension url="http://nictiz.nl/fhir/StructureDefinition/ext-AdministrationAgreement.AdministrationAgreementDateTime">
               <valueDateTime value="${DATE, T, D, +0}T09:27:00+02:00"/>
            </extension>
            <extension url="http://nictiz.nl/fhir/StructureDefinition/ext-RenderedDosageInstruction">
               <valueString value="Vanaf T, 1 stuk 's avonds, oraal"/>
            </extension>
            <extension url="http://nictiz.nl/fhir/StructureDefinition/ext-TimeInterval.Period">
               <valuePeriod>
                  <start value="${DATE, T, D, +0}T00:00:00+02:00"/>
               </valuePeriod>
            </extension>
            <extension url="http://nictiz.nl/fhir/StructureDefinition/ext-PharmaceuticalTreatment.Identifier">
               <valueIdentifier>
                  <system value="urn:oid:2.16.840.1.113883.2.4.3.11.999.77.1.1"/>
                  <value value="MBH_200_dagdeel"/>
               </valueIdentifier>
            </extension>
            <identifier>
               <system value="urn:oid:2.16.840.1.113883.2.4.3.11.999.77.422037009.1"/>
               <value value="MBH_200_dagdeel_TA"/>
            </identifier>
            <status value="unknown"/>
            <category>
               <coding>
                  <system value="http://snomed.info/sct"/>
                  <code value="422037009"/>
                  <display value="toedieningsafspraak"/>
               </coding>
            </category>
            <medicationReference>
<<<<<<< HEAD:ada_2_fhir-r4/mp/9.2.0/beschikbaarstellen_medicatiegegevens/fhir_instance/mg-mgrp-999900602-ALL.xml
               <reference value="urn:uuid:c33f1f40-6a95-11ec-0000-020000000000"/>
=======
               <reference value="urn:uuid:c33f1f68-6a95-11ec-0000-020000000000"/>
>>>>>>> origin/master:ada_2_fhir-r4/mp/9.2.0/beschikbaarstellen_medicatiegegevens/fhir_instance/mg-mgrp-999900936-ALL.xml
               <type value="Medication"/>
               <display value="INEGY TABLET 10/20MG"/>
            </medicationReference>
            <subject>
<<<<<<< HEAD:ada_2_fhir-r4/mp/9.2.0/beschikbaarstellen_medicatiegegevens/fhir_instance/mg-mgrp-999900602-ALL.xml
               <reference value="urn:uuid:c33f1892-6a95-11ec-0000-020000000000"/>
=======
               <reference value="urn:uuid:c33f1950-6a95-11ec-0000-020000000000"/>
>>>>>>> origin/master:ada_2_fhir-r4/mp/9.2.0/beschikbaarstellen_medicatiegegevens/fhir_instance/mg-mgrp-999900936-ALL.xml
               <type value="Patient"/>
               <display value="Patient, M. XXX_Rambaldo"/>
            </subject>
            <performer>
               <actor>
<<<<<<< HEAD:ada_2_fhir-r4/mp/9.2.0/beschikbaarstellen_medicatiegegevens/fhir_instance/mg-mgrp-999900602-ALL.xml
                  <reference value="urn:uuid:c33f1946-6a95-11ec-0000-020000000000"/>
=======
                  <reference value="urn:uuid:c33f210c-6a95-11ec-0000-020000000000"/>
>>>>>>> origin/master:ada_2_fhir-r4/mp/9.2.0/beschikbaarstellen_medicatiegegevens/fhir_instance/mg-mgrp-999900936-ALL.xml
                  <type value="Organization"/>
                  <display value="Healthcare provider (organization), Apotheek de Gulle Gaper"/>
               </actor>
            </performer>
            <authorizingPrescription>
               <type value="MedicationRequest"/>
               <identifier>
                  <system value="urn:oid:2.16.840.1.113883.2.4.3.11.999.77.16076005.1"/>
                  <value value="MBH_200_dagdeel_MA"/>
               </identifier>
               <display value="relatie naar medicatieafspraak met identificatie: MBH_200_dagdeel_MA || 2.16.840.1.113883.2.4.3.11.999.77.16076005.1"/>
            </authorizingPrescription>
            <dosageInstruction>
               <timing>
                  <repeat>
                     <when value="EVE"/>
                  </repeat>
               </timing>
               <route>
                  <coding>
                     <system value="urn:oid:2.16.840.1.113883.2.4.4.9"/>
                     <code value="9"/>
                     <display value="oraal"/>
                  </coding>
               </route>
               <doseAndRate>
                  <doseQuantity>
                     <extension url="http://hl7.org/fhir/StructureDefinition/iso21090-PQ-translation">
                        <valueQuantity>
                           <value value="1"/>
                           <unit value="stuk"/>
                           <system value="urn:oid:2.16.840.1.113883.2.4.4.1.900.2"/>
                           <code value="245"/>
                        </valueQuantity>
                     </extension>
                     <value value="1"/>
                     <unit value="stuk"/>
                     <system value="http://unitsofmeasure.org"/>
                     <code value="1"/>
                  </doseQuantity>
               </doseAndRate>
            </dosageInstruction>
         </MedicationDispense>
      </resource>
      <request>
         <method value="POST"/>
         <url value="MedicationDispense"/>
      </request>
   </entry>
   <entry>
<<<<<<< HEAD:ada_2_fhir-r4/mp/9.2.0/beschikbaarstellen_medicatiegegevens/fhir_instance/mg-mgrp-999900602-ALL.xml
      <fullUrl value="urn:uuid:c33f1c70-6a95-11ec-0000-020000000000"/>
      <resource>
         <MedicationDispense>
            <id value="Agr-mp9-216840111388324311999774220370091-MBH200cyclischschemaTA"/>
=======
      <fullUrl value="urn:uuid:c33f1c98-6a95-11ec-0000-020000000000"/>
      <resource>
         <MedicationDispense>
>>>>>>> origin/master:ada_2_fhir-r4/mp/9.2.0/beschikbaarstellen_medicatiegegevens/fhir_instance/mg-mgrp-999900936-ALL.xml
            <meta>
               <profile value="http://nictiz.nl/fhir/StructureDefinition/mp-AdministrationAgreement"/>
            </meta>
            <extension url="http://nictiz.nl/fhir/StructureDefinition/ext-AdministrationAgreement.AdministrationAgreementDateTime">
               <valueDateTime value="${DATE, T, D, +0}T09:33:00+02:00"/>
            </extension>
            <extension url="http://nictiz.nl/fhir/StructureDefinition/ext-RenderedDosageInstruction">
               <valueString value="Vanaf T, cyclus van 28 dagen: steeds gedurende 21 dagen 1 maal per dag 1 stuk, oraal"/>
            </extension>
            <extension url="http://nictiz.nl/fhir/StructureDefinition/ext-TimeInterval.Period">
               <valuePeriod>
                  <start value="${DATE, T, D, +0}T00:00:00+02:00"/>
               </valuePeriod>
            </extension>
            <extension url="http://nictiz.nl/fhir/StructureDefinition/ext-PharmaceuticalTreatment.Identifier">
               <valueIdentifier>
                  <system value="urn:oid:2.16.840.1.113883.2.4.3.11.999.77.1.1"/>
                  <value value="MBH_200_cyclischschema"/>
               </valueIdentifier>
            </extension>
            <modifierExtension url="http://nictiz.nl/fhir/StructureDefinition/ext-InstructionsForUse.RepeatPeriodCyclicalSchedule">
               <valueDuration>
                  <value value="28"/>
                  <unit value="dag"/>
                  <system value="http://unitsofmeasure.org"/>
                  <code value="d"/>
               </valueDuration>
            </modifierExtension>
            <identifier>
               <system value="urn:oid:2.16.840.1.113883.2.4.3.11.999.77.422037009.1"/>
               <value value="MBH_200_cyclischschema_TA"/>
            </identifier>
            <status value="unknown"/>
            <category>
               <coding>
                  <system value="http://snomed.info/sct"/>
                  <code value="422037009"/>
                  <display value="toedieningsafspraak"/>
               </coding>
            </category>
            <medicationReference>
<<<<<<< HEAD:ada_2_fhir-r4/mp/9.2.0/beschikbaarstellen_medicatiegegevens/fhir_instance/mg-mgrp-999900602-ALL.xml
               <reference value="urn:uuid:c33f1f7c-6a95-11ec-0000-020000000000"/>
=======
               <reference value="urn:uuid:c33f1fa4-6a95-11ec-0000-020000000000"/>
>>>>>>> origin/master:ada_2_fhir-r4/mp/9.2.0/beschikbaarstellen_medicatiegegevens/fhir_instance/mg-mgrp-999900936-ALL.xml
               <type value="Medication"/>
               <display value="Fusidinezuur creme 20mg/g"/>
            </medicationReference>
            <subject>
<<<<<<< HEAD:ada_2_fhir-r4/mp/9.2.0/beschikbaarstellen_medicatiegegevens/fhir_instance/mg-mgrp-999900602-ALL.xml
               <reference value="urn:uuid:c33f1892-6a95-11ec-0000-020000000000"/>
=======
               <reference value="urn:uuid:c33f1950-6a95-11ec-0000-020000000000"/>
>>>>>>> origin/master:ada_2_fhir-r4/mp/9.2.0/beschikbaarstellen_medicatiegegevens/fhir_instance/mg-mgrp-999900936-ALL.xml
               <type value="Patient"/>
               <display value="Patient, M. XXX_Rambaldo"/>
            </subject>
            <performer>
               <actor>
<<<<<<< HEAD:ada_2_fhir-r4/mp/9.2.0/beschikbaarstellen_medicatiegegevens/fhir_instance/mg-mgrp-999900602-ALL.xml
                  <reference value="urn:uuid:c33f1946-6a95-11ec-0000-020000000000"/>
=======
                  <reference value="urn:uuid:c33f210c-6a95-11ec-0000-020000000000"/>
>>>>>>> origin/master:ada_2_fhir-r4/mp/9.2.0/beschikbaarstellen_medicatiegegevens/fhir_instance/mg-mgrp-999900936-ALL.xml
                  <type value="Organization"/>
                  <display value="Healthcare provider (organization), Apotheek de Gulle Gaper"/>
               </actor>
            </performer>
            <authorizingPrescription>
               <type value="MedicationRequest"/>
               <identifier>
                  <system value="urn:oid:2.16.840.1.113883.2.4.3.11.999.77.16076005.1"/>
                  <value value="MBH_200_cyclischschema_MA"/>
               </identifier>
               <display value="relatie naar medicatieafspraak met identificatie: MBH_200_cyclischschema_MA || 2.16.840.1.113883.2.4.3.11.999.77.16076005.1"/>
            </authorizingPrescription>
            <dosageInstruction>
               <timing>
                  <repeat>
                     <boundsDuration>
                        <value value="21"/>
                        <unit value="dag"/>
                        <system value="http://unitsofmeasure.org"/>
                        <code value="d"/>
                     </boundsDuration>
                     <frequency value="1"/>
                     <period value="1"/>
                     <periodUnit value="d"/>
                  </repeat>
               </timing>
               <route>
                  <coding>
                     <system value="urn:oid:2.16.840.1.113883.2.4.4.9"/>
                     <code value="9"/>
                     <display value="oraal"/>
                  </coding>
               </route>
               <doseAndRate>
                  <doseQuantity>
                     <extension url="http://hl7.org/fhir/StructureDefinition/iso21090-PQ-translation">
                        <valueQuantity>
                           <value value="1"/>
                           <unit value="stuk"/>
                           <system value="urn:oid:2.16.840.1.113883.2.4.4.1.900.2"/>
                           <code value="245"/>
                        </valueQuantity>
                     </extension>
                     <value value="1"/>
                     <unit value="stuk"/>
                     <system value="http://unitsofmeasure.org"/>
                     <code value="1"/>
                  </doseQuantity>
               </doseAndRate>
            </dosageInstruction>
         </MedicationDispense>
      </resource>
      <request>
         <method value="POST"/>
         <url value="MedicationDispense"/>
      </request>
   </entry>
   <entry>
<<<<<<< HEAD:ada_2_fhir-r4/mp/9.2.0/beschikbaarstellen_medicatiegegevens/fhir_instance/mg-mgrp-999900602-ALL.xml
      <fullUrl value="urn:uuid:c33f1c8e-6a95-11ec-0000-020000000000"/>
      <resource>
         <MedicationDispense>
            <id value="dmAgr-mp9-216840111388324311999774220370091-MBH200afbouwschemaTA"/>
=======
      <fullUrl value="urn:uuid:c33f1cb6-6a95-11ec-0000-020000000000"/>
      <resource>
         <MedicationDispense>
>>>>>>> origin/master:ada_2_fhir-r4/mp/9.2.0/beschikbaarstellen_medicatiegegevens/fhir_instance/mg-mgrp-999900936-ALL.xml
            <meta>
               <profile value="http://nictiz.nl/fhir/StructureDefinition/mp-AdministrationAgreement"/>
            </meta>
            <extension url="http://nictiz.nl/fhir/StructureDefinition/ext-AdministrationAgreement.AdministrationAgreementDateTime">
               <valueDateTime value="${DATE, T, D, +0}T09:40:00+02:00"/>
            </extension>
            <extension url="http://nictiz.nl/fhir/StructureDefinition/ext-RenderedDosageInstruction">
               <valueString value="Vanaf T, tot en met T + 41 dagen, eerst gedurende 2 weken 1 maal per dag 3 gram, dan gedurende 3 weken 1 maal per dag 2 gram, dan gedurende 6 dagen 1 maal per dag 1 gram, cutaan"/>
            </extension>
            <extension url="http://nictiz.nl/fhir/StructureDefinition/ext-TimeInterval.Period">
               <valuePeriod>
                  <start value="${DATE, T, D, +0}T00:00:00+02:00"/>
                  <end value="${DATE, T, D, +41}T23:59:59+02:00"/>
               </valuePeriod>
            </extension>
            <extension url="http://nictiz.nl/fhir/StructureDefinition/ext-PharmaceuticalTreatment.Identifier">
               <valueIdentifier>
                  <system value="urn:oid:2.16.840.1.113883.2.4.3.11.999.77.1.1"/>
                  <value value="MBH_200_afbouwschema"/>
               </valueIdentifier>
            </extension>
            <identifier>
               <system value="urn:oid:2.16.840.1.113883.2.4.3.11.999.77.422037009.1"/>
               <value value="MBH_200_afbouwschema_TA"/>
            </identifier>
            <status value="unknown"/>
            <category>
               <coding>
                  <system value="http://snomed.info/sct"/>
                  <code value="422037009"/>
                  <display value="toedieningsafspraak"/>
               </coding>
            </category>
            <medicationReference>
<<<<<<< HEAD:ada_2_fhir-r4/mp/9.2.0/beschikbaarstellen_medicatiegegevens/fhir_instance/mg-mgrp-999900602-ALL.xml
               <reference value="urn:uuid:c33f1f9a-6a95-11ec-0000-020000000000"/>
=======
               <reference value="urn:uuid:c33f1fc2-6a95-11ec-0000-020000000000"/>
>>>>>>> origin/master:ada_2_fhir-r4/mp/9.2.0/beschikbaarstellen_medicatiegegevens/fhir_instance/mg-mgrp-999900936-ALL.xml
               <type value="Medication"/>
               <display value="AFFUSINE CREME 20MG/G"/>
            </medicationReference>
            <subject>
<<<<<<< HEAD:ada_2_fhir-r4/mp/9.2.0/beschikbaarstellen_medicatiegegevens/fhir_instance/mg-mgrp-999900602-ALL.xml
               <reference value="urn:uuid:c33f1892-6a95-11ec-0000-020000000000"/>
=======
               <reference value="urn:uuid:c33f1950-6a95-11ec-0000-020000000000"/>
>>>>>>> origin/master:ada_2_fhir-r4/mp/9.2.0/beschikbaarstellen_medicatiegegevens/fhir_instance/mg-mgrp-999900936-ALL.xml
               <type value="Patient"/>
               <display value="Patient, M. XXX_Rambaldo"/>
            </subject>
            <performer>
               <actor>
<<<<<<< HEAD:ada_2_fhir-r4/mp/9.2.0/beschikbaarstellen_medicatiegegevens/fhir_instance/mg-mgrp-999900602-ALL.xml
                  <reference value="urn:uuid:c33f1946-6a95-11ec-0000-020000000000"/>
=======
                  <reference value="urn:uuid:c33f210c-6a95-11ec-0000-020000000000"/>
>>>>>>> origin/master:ada_2_fhir-r4/mp/9.2.0/beschikbaarstellen_medicatiegegevens/fhir_instance/mg-mgrp-999900936-ALL.xml
                  <type value="Organization"/>
                  <display value="Healthcare provider (organization), Apotheek de Gulle Gaper"/>
               </actor>
            </performer>
            <authorizingPrescription>
               <type value="MedicationRequest"/>
               <identifier>
                  <system value="urn:oid:2.16.840.1.113883.2.4.3.11.999.77.16076005.1"/>
                  <value value="MBH_200_afbouwschema_MA"/>
               </identifier>
               <display value="relatie naar medicatieafspraak met identificatie: MBH_200_afbouwschema_MA || 2.16.840.1.113883.2.4.3.11.999.77.16076005.1"/>
            </authorizingPrescription>
            <dosageInstruction>
               <sequence value="1"/>
               <timing>
                  <repeat>
                     <boundsDuration>
                        <value value="2"/>
                        <unit value="week"/>
                        <system value="http://unitsofmeasure.org"/>
                        <code value="wk"/>
                     </boundsDuration>
                     <frequency value="1"/>
                     <period value="1"/>
                     <periodUnit value="d"/>
                  </repeat>
               </timing>
               <route>
                  <coding>
                     <system value="urn:oid:2.16.840.1.113883.2.4.4.9"/>
                     <code value="53"/>
                     <display value="cutaan"/>
                  </coding>
               </route>
               <doseAndRate>
                  <doseQuantity>
                     <extension url="http://hl7.org/fhir/StructureDefinition/iso21090-PQ-translation">
                        <valueQuantity>
                           <value value="3"/>
                           <unit value="gram"/>
                           <system value="urn:oid:2.16.840.1.113883.2.4.4.1.900.2"/>
                           <code value="215"/>
                        </valueQuantity>
                     </extension>
                     <value value="3"/>
                     <unit value="gram"/>
                     <system value="http://unitsofmeasure.org"/>
                     <code value="g"/>
                  </doseQuantity>
               </doseAndRate>
            </dosageInstruction>
            <dosageInstruction>
               <sequence value="2"/>
               <timing>
                  <repeat>
                     <boundsDuration>
                        <value value="3"/>
                        <unit value="week"/>
                        <system value="http://unitsofmeasure.org"/>
                        <code value="wk"/>
                     </boundsDuration>
                     <frequency value="1"/>
                     <period value="1"/>
                     <periodUnit value="d"/>
                  </repeat>
               </timing>
               <route>
                  <coding>
                     <system value="urn:oid:2.16.840.1.113883.2.4.4.9"/>
                     <code value="53"/>
                     <display value="cutaan"/>
                  </coding>
               </route>
               <doseAndRate>
                  <doseQuantity>
                     <extension url="http://hl7.org/fhir/StructureDefinition/iso21090-PQ-translation">
                        <valueQuantity>
                           <value value="2"/>
                           <unit value="gram"/>
                           <system value="urn:oid:2.16.840.1.113883.2.4.4.1.900.2"/>
                           <code value="215"/>
                        </valueQuantity>
                     </extension>
                     <value value="2"/>
                     <unit value="gram"/>
                     <system value="http://unitsofmeasure.org"/>
                     <code value="g"/>
                  </doseQuantity>
               </doseAndRate>
            </dosageInstruction>
            <dosageInstruction>
               <sequence value="3"/>
               <timing>
                  <repeat>
                     <boundsDuration>
                        <value value="6"/>
                        <unit value="dag"/>
                        <system value="http://unitsofmeasure.org"/>
                        <code value="d"/>
                     </boundsDuration>
                     <frequency value="1"/>
                     <period value="1"/>
                     <periodUnit value="d"/>
                  </repeat>
               </timing>
               <route>
                  <coding>
                     <system value="urn:oid:2.16.840.1.113883.2.4.4.9"/>
                     <code value="53"/>
                     <display value="cutaan"/>
                  </coding>
               </route>
               <doseAndRate>
                  <doseQuantity>
                     <extension url="http://hl7.org/fhir/StructureDefinition/iso21090-PQ-translation">
                        <valueQuantity>
                           <value value="1"/>
                           <unit value="gram"/>
                           <system value="urn:oid:2.16.840.1.113883.2.4.4.1.900.2"/>
                           <code value="215"/>
                        </valueQuantity>
                     </extension>
                     <value value="1"/>
                     <unit value="gram"/>
                     <system value="http://unitsofmeasure.org"/>
                     <code value="g"/>
                  </doseQuantity>
               </doseAndRate>
            </dosageInstruction>
         </MedicationDispense>
      </resource>
      <request>
         <method value="POST"/>
         <url value="MedicationDispense"/>
      </request>
   </entry>
   <entry>
<<<<<<< HEAD:ada_2_fhir-r4/mp/9.2.0/beschikbaarstellen_medicatiegegevens/fhir_instance/mg-mgrp-999900602-ALL.xml
      <fullUrl value="urn:uuid:c33f1cac-6a95-11ec-0000-020000000000"/>
      <resource>
         <MedicationDispense>
            <id value="mp-AdmAgr-mp9-c33f1a0d-6a95-11ec-0000-020000000000"/>
=======
      <fullUrl value="urn:uuid:c33f1cd4-6a95-11ec-0000-020000000000"/>
      <resource>
         <MedicationDispense>
>>>>>>> origin/master:ada_2_fhir-r4/mp/9.2.0/beschikbaarstellen_medicatiegegevens/fhir_instance/mg-mgrp-999900936-ALL.xml
            <meta>
               <profile value="http://nictiz.nl/fhir/StructureDefinition/mp-AdministrationAgreement"/>
            </meta>
            <extension url="http://nictiz.nl/fhir/StructureDefinition/ext-AdministrationAgreement.AdministrationAgreementDateTime">
               <valueDateTime value="${DATE, T, D, +0}T09:45:00+02:00"/>
            </extension>
            <extension url="http://nictiz.nl/fhir/StructureDefinition/ext-RenderedDosageInstruction">
               <valueString value="Vanaf T, tot en met T + 21 dagen, Bij hoest 1 à 2 stuks , maximaal 6 stuks per dag, oraal"/>
            </extension>
            <extension url="http://nictiz.nl/fhir/StructureDefinition/ext-TimeInterval.Period">
               <valuePeriod>
                  <start value="${DATE, T, D, +0}T00:00:00+02:00"/>
                  <end value="${DATE, T, D, +21}T23:59:59+02:00"/>
               </valuePeriod>
            </extension>
            <extension url="http://nictiz.nl/fhir/StructureDefinition/ext-PharmaceuticalTreatment.Identifier">
               <valueIdentifier>
                  <system value="urn:oid:2.16.840.1.113883.2.4.3.11.999.77.1.1"/>
                  <value value="MBH_200_variabelehoeveelheidenmaximum"/>
               </valueIdentifier>
            </extension>
            <identifier>
               <system value="urn:oid:2.16.840.1.113883.2.4.3.11.999.77.422037009.1"/>
               <value value="MBH_200_variabelehoeveelheidenmaximum_TA"/>
            </identifier>
            <status value="unknown"/>
            <category>
               <coding>
                  <system value="http://snomed.info/sct"/>
                  <code value="422037009"/>
                  <display value="toedieningsafspraak"/>
               </coding>
            </category>
            <medicationReference>
<<<<<<< HEAD:ada_2_fhir-r4/mp/9.2.0/beschikbaarstellen_medicatiegegevens/fhir_instance/mg-mgrp-999900602-ALL.xml
               <reference value="urn:uuid:c33f1fd6-6a95-11ec-0000-020000000000"/>
=======
               <reference value="urn:uuid:c33f1ffe-6a95-11ec-0000-020000000000"/>
>>>>>>> origin/master:ada_2_fhir-r4/mp/9.2.0/beschikbaarstellen_medicatiegegevens/fhir_instance/mg-mgrp-999900936-ALL.xml
               <type value="Medication"/>
               <display value="CODEINEFOSFAAT PCH TABLET 10MG"/>
            </medicationReference>
            <subject>
<<<<<<< HEAD:ada_2_fhir-r4/mp/9.2.0/beschikbaarstellen_medicatiegegevens/fhir_instance/mg-mgrp-999900602-ALL.xml
               <reference value="urn:uuid:c33f1892-6a95-11ec-0000-020000000000"/>
=======
               <reference value="urn:uuid:c33f1950-6a95-11ec-0000-020000000000"/>
>>>>>>> origin/master:ada_2_fhir-r4/mp/9.2.0/beschikbaarstellen_medicatiegegevens/fhir_instance/mg-mgrp-999900936-ALL.xml
               <type value="Patient"/>
               <display value="Patient, M. XXX_Rambaldo"/>
            </subject>
            <performer>
               <actor>
<<<<<<< HEAD:ada_2_fhir-r4/mp/9.2.0/beschikbaarstellen_medicatiegegevens/fhir_instance/mg-mgrp-999900602-ALL.xml
                  <reference value="urn:uuid:c33f1946-6a95-11ec-0000-020000000000"/>
=======
                  <reference value="urn:uuid:c33f210c-6a95-11ec-0000-020000000000"/>
>>>>>>> origin/master:ada_2_fhir-r4/mp/9.2.0/beschikbaarstellen_medicatiegegevens/fhir_instance/mg-mgrp-999900936-ALL.xml
                  <type value="Organization"/>
                  <display value="Healthcare provider (organization), Apotheek de Gulle Gaper"/>
               </actor>
            </performer>
            <authorizingPrescription>
               <type value="MedicationRequest"/>
               <identifier>
                  <system value="urn:oid:2.16.840.1.113883.2.4.3.11.999.77.16076005.1"/>
                  <value value="MBH_200_variabelehoeveelheidenmaximum_MA"/>
               </identifier>
               <display value="relatie naar medicatieafspraak met identificatie: MBH_200_variabelehoeveelheidenmaximum_MA || 2.16.840.1.113883.2.4.3.11.999.77.16076005.1"/>
            </authorizingPrescription>
            <dosageInstruction>
               <asNeededCodeableConcept>
                  <coding>
                     <system value="https://referentiemodel.nhg.org/tabellen/nhg-tabel-25-gebruiksvoorschrift#aanvullend-numeriek"/>
                     <code value="1387"/>
                     <display value="Bij hoest"/>
                  </coding>
               </asNeededCodeableConcept>
               <route>
                  <coding>
                     <system value="urn:oid:2.16.840.1.113883.2.4.4.9"/>
                     <code value="9"/>
                     <display value="oraal"/>
                  </coding>
               </route>
               <doseAndRate>
                  <doseRange>
                     <low>
                        <extension url="http://hl7.org/fhir/StructureDefinition/iso21090-PQ-translation">
                           <valueQuantity>
                              <value value="1"/>
                              <unit value="stuk"/>
                              <system value="urn:oid:2.16.840.1.113883.2.4.4.1.900.2"/>
                              <code value="245"/>
                           </valueQuantity>
                        </extension>
                        <value value="1"/>
                        <unit value="stuk"/>
                        <system value="http://unitsofmeasure.org"/>
                        <code value="1"/>
                     </low>
                     <high>
                        <extension url="http://hl7.org/fhir/StructureDefinition/iso21090-PQ-translation">
                           <valueQuantity>
                              <value value="2"/>
                              <unit value="stuk"/>
                              <system value="urn:oid:2.16.840.1.113883.2.4.4.1.900.2"/>
                              <code value="245"/>
                           </valueQuantity>
                        </extension>
                        <value value="2"/>
                        <unit value="stuk"/>
                        <system value="http://unitsofmeasure.org"/>
                        <code value="1"/>
                     </high>
                  </doseRange>
               </doseAndRate>
               <maxDosePerPeriod>
                  <numerator>
                     <extension url="http://hl7.org/fhir/StructureDefinition/iso21090-PQ-translation">
                        <valueQuantity>
                           <value value="6"/>
                           <unit value="stuk"/>
                           <system value="urn:oid:2.16.840.1.113883.2.4.4.1.900.2"/>
                           <code value="245"/>
                        </valueQuantity>
                     </extension>
                     <value value="6"/>
                     <unit value="stuk"/>
                     <system value="http://unitsofmeasure.org"/>
                     <code value="1"/>
                  </numerator>
                  <denominator>
                     <value value="1"/>
                     <unit value="dag"/>
                     <system value="http://unitsofmeasure.org"/>
                     <code value="d"/>
                  </denominator>
               </maxDosePerPeriod>
            </dosageInstruction>
         </MedicationDispense>
      </resource>
      <request>
         <method value="POST"/>
         <url value="MedicationDispense"/>
      </request>
   </entry>
   <entry>
<<<<<<< HEAD:ada_2_fhir-r4/mp/9.2.0/beschikbaarstellen_medicatiegegevens/fhir_instance/mg-mgrp-999900602-ALL.xml
      <fullUrl value="urn:uuid:c33f1cca-6a95-11ec-0000-020000000000"/>
      <resource>
         <MedicationDispense>
            <id value="p9-216840111388324311999774220370091-MBH200toedieningssnelheidTA"/>
=======
      <fullUrl value="urn:uuid:c33f1cf2-6a95-11ec-0000-020000000000"/>
      <resource>
         <MedicationDispense>
>>>>>>> origin/master:ada_2_fhir-r4/mp/9.2.0/beschikbaarstellen_medicatiegegevens/fhir_instance/mg-mgrp-999900936-ALL.xml
            <meta>
               <profile value="http://nictiz.nl/fhir/StructureDefinition/mp-AdministrationAgreement"/>
            </meta>
            <extension url="http://nictiz.nl/fhir/StructureDefinition/ext-AdministrationAgreement.AdministrationAgreementDateTime">
               <valueDateTime value="${DATE, T, D, +0}T09:47:00+02:00"/>
            </extension>
            <extension url="http://nictiz.nl/fhir/StructureDefinition/ext-RenderedDosageInstruction">
               <valueString value="Vanaf T, tot en met T + 8 dagen, toedieningssnelheid: maximaal 0.2 à 0.5 ml per uur, parenteraal"/>
            </extension>
            <extension url="http://nictiz.nl/fhir/StructureDefinition/ext-TimeInterval.Period">
               <valuePeriod>
                  <start value="${DATE, T, D, +0}T00:00:00+02:00"/>
                  <end value="${DATE, T, D, +8}T23:59:59+02:00"/>
               </valuePeriod>
            </extension>
            <extension url="http://nictiz.nl/fhir/StructureDefinition/ext-PharmaceuticalTreatment.Identifier">
               <valueIdentifier>
                  <system value="urn:oid:2.16.840.1.113883.2.4.3.11.999.77.1.1"/>
                  <value value="MBH_200_toedieningssnelheid"/>
               </valueIdentifier>
            </extension>
            <identifier>
               <system value="urn:oid:2.16.840.1.113883.2.4.3.11.999.77.422037009.1"/>
               <value value="MBH_200_toedieningssnelheid_TA"/>
            </identifier>
            <status value="unknown"/>
            <category>
               <coding>
                  <system value="http://snomed.info/sct"/>
                  <code value="422037009"/>
                  <display value="toedieningsafspraak"/>
               </coding>
            </category>
            <medicationReference>
<<<<<<< HEAD:ada_2_fhir-r4/mp/9.2.0/beschikbaarstellen_medicatiegegevens/fhir_instance/mg-mgrp-999900602-ALL.xml
               <reference value="urn:uuid:c33f2012-6a95-11ec-0000-020000000000"/>
=======
               <reference value="urn:uuid:c33f203a-6a95-11ec-0000-020000000000"/>
>>>>>>> origin/master:ada_2_fhir-r4/mp/9.2.0/beschikbaarstellen_medicatiegegevens/fhir_instance/mg-mgrp-999900936-ALL.xml
               <type value="Medication"/>
               <display value="MORFINEHYDROCHLORIDE 1ML= 5MG EPI CAS 100ML FNA MR"/>
            </medicationReference>
            <subject>
<<<<<<< HEAD:ada_2_fhir-r4/mp/9.2.0/beschikbaarstellen_medicatiegegevens/fhir_instance/mg-mgrp-999900602-ALL.xml
               <reference value="urn:uuid:c33f1892-6a95-11ec-0000-020000000000"/>
=======
               <reference value="urn:uuid:c33f1950-6a95-11ec-0000-020000000000"/>
>>>>>>> origin/master:ada_2_fhir-r4/mp/9.2.0/beschikbaarstellen_medicatiegegevens/fhir_instance/mg-mgrp-999900936-ALL.xml
               <type value="Patient"/>
               <display value="Patient, M. XXX_Rambaldo"/>
            </subject>
            <performer>
               <actor>
<<<<<<< HEAD:ada_2_fhir-r4/mp/9.2.0/beschikbaarstellen_medicatiegegevens/fhir_instance/mg-mgrp-999900602-ALL.xml
                  <reference value="urn:uuid:c33f1946-6a95-11ec-0000-020000000000"/>
=======
                  <reference value="urn:uuid:c33f210c-6a95-11ec-0000-020000000000"/>
>>>>>>> origin/master:ada_2_fhir-r4/mp/9.2.0/beschikbaarstellen_medicatiegegevens/fhir_instance/mg-mgrp-999900936-ALL.xml
                  <type value="Organization"/>
                  <display value="Healthcare provider (organization), Apotheek de Gulle Gaper"/>
               </actor>
            </performer>
            <authorizingPrescription>
               <type value="MedicationRequest"/>
               <identifier>
                  <system value="urn:oid:2.16.840.1.113883.2.4.3.11.999.77.16076005.1"/>
                  <value value="MBH_200_toedieningssnelheid_MA"/>
               </identifier>
               <display value="relatie naar medicatieafspraak met identificatie: MBH_200_toedieningssnelheid_MA || 2.16.840.1.113883.2.4.3.11.999.77.16076005.1"/>
            </authorizingPrescription>
            <dosageInstruction>
               <route>
                  <coding>
                     <system value="urn:oid:2.16.840.1.113883.2.4.4.9"/>
                     <code value="10"/>
                     <display value="parenteraal"/>
                  </coding>
               </route>
               <doseAndRate>
                  <rateRange>
                     <low>
                        <value value="0.2"/>
                        <unit value="ml/h"/>
                        <system value="http://unitsofmeasure.org"/>
                        <code value="ml/h"/>
                     </low>
                     <high>
                        <value value="0.5"/>
                        <unit value="ml/h"/>
                        <system value="http://unitsofmeasure.org"/>
                        <code value="ml/h"/>
                     </high>
                  </rateRange>
               </doseAndRate>
            </dosageInstruction>
         </MedicationDispense>
      </resource>
      <request>
         <method value="POST"/>
         <url value="MedicationDispense"/>
      </request>
   </entry>
   <entry>
<<<<<<< HEAD:ada_2_fhir-r4/mp/9.2.0/beschikbaarstellen_medicatiegegevens/fhir_instance/mg-mgrp-999900602-ALL.xml
      <fullUrl value="urn:uuid:c33f1ce8-6a95-11ec-0000-020000000000"/>
      <resource>
         <MedicationDispense>
            <id value="gr-mp9-216840111388324311999774220370091-MBH200toedieningsduurTA"/>
=======
      <fullUrl value="urn:uuid:c33f1d10-6a95-11ec-0000-020000000000"/>
      <resource>
         <MedicationDispense>
>>>>>>> origin/master:ada_2_fhir-r4/mp/9.2.0/beschikbaarstellen_medicatiegegevens/fhir_instance/mg-mgrp-999900936-ALL.xml
            <meta>
               <profile value="http://nictiz.nl/fhir/StructureDefinition/mp-AdministrationAgreement"/>
            </meta>
            <extension url="http://nictiz.nl/fhir/StructureDefinition/ext-AdministrationAgreement.AdministrationAgreementDateTime">
               <valueDateTime value="${DATE, T, D, +0}T09:49:00+02:00"/>
            </extension>
            <extension url="http://nictiz.nl/fhir/StructureDefinition/ext-RenderedDosageInstruction">
               <valueString value="Vanaf T, 1 maal per dag 1 stuk gedurende 16 uur, transdermaal"/>
            </extension>
            <extension url="http://nictiz.nl/fhir/StructureDefinition/ext-TimeInterval.Period">
               <valuePeriod>
                  <start value="${DATE, T, D, +0}T00:00:00+02:00"/>
               </valuePeriod>
            </extension>
            <extension url="http://nictiz.nl/fhir/StructureDefinition/ext-PharmaceuticalTreatment.Identifier">
               <valueIdentifier>
                  <system value="urn:oid:2.16.840.1.113883.2.4.3.11.999.77.1.1"/>
                  <value value="MBH_200_toedieningsduur"/>
               </valueIdentifier>
            </extension>
            <identifier>
               <system value="urn:oid:2.16.840.1.113883.2.4.3.11.999.77.422037009.1"/>
               <value value="MBH_200_toedieningsduur_TA"/>
            </identifier>
            <status value="unknown"/>
            <category>
               <coding>
                  <system value="http://snomed.info/sct"/>
                  <code value="422037009"/>
                  <display value="toedieningsafspraak"/>
               </coding>
            </category>
            <medicationReference>
<<<<<<< HEAD:ada_2_fhir-r4/mp/9.2.0/beschikbaarstellen_medicatiegegevens/fhir_instance/mg-mgrp-999900602-ALL.xml
               <reference value="urn:uuid:c33f204e-6a95-11ec-0000-020000000000"/>
=======
               <reference value="urn:uuid:c33f2076-6a95-11ec-0000-020000000000"/>
>>>>>>> origin/master:ada_2_fhir-r4/mp/9.2.0/beschikbaarstellen_medicatiegegevens/fhir_instance/mg-mgrp-999900936-ALL.xml
               <type value="Medication"/>
               <display value="DEPONIT T 5 PLEISTER TRANSDERMAAL 18,7MG"/>
            </medicationReference>
            <subject>
<<<<<<< HEAD:ada_2_fhir-r4/mp/9.2.0/beschikbaarstellen_medicatiegegevens/fhir_instance/mg-mgrp-999900602-ALL.xml
               <reference value="urn:uuid:c33f1892-6a95-11ec-0000-020000000000"/>
=======
               <reference value="urn:uuid:c33f1950-6a95-11ec-0000-020000000000"/>
>>>>>>> origin/master:ada_2_fhir-r4/mp/9.2.0/beschikbaarstellen_medicatiegegevens/fhir_instance/mg-mgrp-999900936-ALL.xml
               <type value="Patient"/>
               <display value="Patient, M. XXX_Rambaldo"/>
            </subject>
            <performer>
               <actor>
<<<<<<< HEAD:ada_2_fhir-r4/mp/9.2.0/beschikbaarstellen_medicatiegegevens/fhir_instance/mg-mgrp-999900602-ALL.xml
                  <reference value="urn:uuid:c33f1946-6a95-11ec-0000-020000000000"/>
=======
                  <reference value="urn:uuid:c33f210c-6a95-11ec-0000-020000000000"/>
>>>>>>> origin/master:ada_2_fhir-r4/mp/9.2.0/beschikbaarstellen_medicatiegegevens/fhir_instance/mg-mgrp-999900936-ALL.xml
                  <type value="Organization"/>
                  <display value="Healthcare provider (organization), Apotheek de Gulle Gaper"/>
               </actor>
            </performer>
            <authorizingPrescription>
               <type value="MedicationRequest"/>
               <identifier>
                  <system value="urn:oid:2.16.840.1.113883.2.4.3.11.999.77.16076005.1"/>
                  <value value="MBH_200_toedieningsduur_MA"/>
               </identifier>
               <display value="relatie naar medicatieafspraak met identificatie: MBH_200_toedieningsduur_MA || 2.16.840.1.113883.2.4.3.11.999.77.16076005.1"/>
            </authorizingPrescription>
            <dosageInstruction>
               <timing>
                  <repeat>
                     <duration value="16"/>
                     <durationUnit value="h"/>
                     <frequency value="1"/>
                     <period value="1"/>
                     <periodUnit value="d"/>
                  </repeat>
               </timing>
               <route>
                  <coding>
                     <system value="urn:oid:2.16.840.1.113883.2.4.4.9"/>
                     <code value="58"/>
                     <display value="transdermaal"/>
                  </coding>
               </route>
               <doseAndRate>
                  <doseQuantity>
                     <extension url="http://hl7.org/fhir/StructureDefinition/iso21090-PQ-translation">
                        <valueQuantity>
                           <value value="1"/>
                           <unit value="stuk"/>
                           <system value="urn:oid:2.16.840.1.113883.2.4.4.1.900.2"/>
                           <code value="245"/>
                        </valueQuantity>
                     </extension>
                     <value value="1"/>
                     <unit value="stuk"/>
                     <system value="http://unitsofmeasure.org"/>
                     <code value="1"/>
                  </doseQuantity>
               </doseAndRate>
            </dosageInstruction>
         </MedicationDispense>
      </resource>
      <request>
         <method value="POST"/>
         <url value="MedicationDispense"/>
      </request>
   </entry>
   <entry>
<<<<<<< HEAD:ada_2_fhir-r4/mp/9.2.0/beschikbaarstellen_medicatiegegevens/fhir_instance/mg-mgrp-999900602-ALL.xml
      <fullUrl value="urn:uuid:c33f1d06-6a95-11ec-0000-020000000000"/>
      <resource>
         <MedicationDispense>
            <id value="mp-AdmAgr-mp9-216840111388324311999774220370091-MBH200zonodigTA"/>
=======
      <fullUrl value="urn:uuid:c33f1d2e-6a95-11ec-0000-020000000000"/>
      <resource>
         <MedicationDispense>
>>>>>>> origin/master:ada_2_fhir-r4/mp/9.2.0/beschikbaarstellen_medicatiegegevens/fhir_instance/mg-mgrp-999900936-ALL.xml
            <meta>
               <profile value="http://nictiz.nl/fhir/StructureDefinition/mp-AdministrationAgreement"/>
            </meta>
            <extension url="http://nictiz.nl/fhir/StructureDefinition/ext-AdministrationAgreement.AdministrationAgreementDateTime">
               <valueDateTime value="${DATE, T, D, +0}T09:57:00+02:00"/>
            </extension>
            <extension url="http://nictiz.nl/fhir/StructureDefinition/ext-RenderedDosageInstruction">
               <valueString value="Vanaf T, tot en met T + 27 dagen, Zo nodig 1 maal per dag 1 stuk, Oraal"/>
            </extension>
            <extension url="http://nictiz.nl/fhir/StructureDefinition/ext-TimeInterval.Period">
               <valuePeriod>
                  <start value="${DATE, T, D, +0}T00:00:00+02:00"/>
                  <end value="${DATE, T, D, +27}T23:59:59+02:00"/>
               </valuePeriod>
            </extension>
            <extension url="http://nictiz.nl/fhir/StructureDefinition/ext-PharmaceuticalTreatment.Identifier">
               <valueIdentifier>
                  <system value="urn:oid:2.16.840.1.113883.2.4.3.11.999.77.1.1"/>
                  <value value="MBH_200_zonodig"/>
               </valueIdentifier>
            </extension>
            <identifier>
               <system value="urn:oid:2.16.840.1.113883.2.4.3.11.999.77.422037009.1"/>
               <value value="MBH_200_zonodig_TA"/>
            </identifier>
            <status value="unknown"/>
            <category>
               <coding>
                  <system value="http://snomed.info/sct"/>
                  <code value="422037009"/>
                  <display value="toedieningsafspraak"/>
               </coding>
            </category>
            <medicationReference>
<<<<<<< HEAD:ada_2_fhir-r4/mp/9.2.0/beschikbaarstellen_medicatiegegevens/fhir_instance/mg-mgrp-999900602-ALL.xml
               <reference value="urn:uuid:c33f208a-6a95-11ec-0000-020000000000"/>
=======
               <reference value="urn:uuid:c33f20b2-6a95-11ec-0000-020000000000"/>
>>>>>>> origin/master:ada_2_fhir-r4/mp/9.2.0/beschikbaarstellen_medicatiegegevens/fhir_instance/mg-mgrp-999900936-ALL.xml
               <type value="Medication"/>
               <display value="ASPIRINE TABLET 100MG"/>
            </medicationReference>
            <subject>
<<<<<<< HEAD:ada_2_fhir-r4/mp/9.2.0/beschikbaarstellen_medicatiegegevens/fhir_instance/mg-mgrp-999900602-ALL.xml
               <reference value="urn:uuid:c33f1892-6a95-11ec-0000-020000000000"/>
=======
               <reference value="urn:uuid:c33f1950-6a95-11ec-0000-020000000000"/>
>>>>>>> origin/master:ada_2_fhir-r4/mp/9.2.0/beschikbaarstellen_medicatiegegevens/fhir_instance/mg-mgrp-999900936-ALL.xml
               <type value="Patient"/>
               <display value="Patient, M. XXX_Rambaldo"/>
            </subject>
            <performer>
               <actor>
<<<<<<< HEAD:ada_2_fhir-r4/mp/9.2.0/beschikbaarstellen_medicatiegegevens/fhir_instance/mg-mgrp-999900602-ALL.xml
                  <reference value="urn:uuid:c33f1946-6a95-11ec-0000-020000000000"/>
=======
                  <reference value="urn:uuid:c33f210c-6a95-11ec-0000-020000000000"/>
>>>>>>> origin/master:ada_2_fhir-r4/mp/9.2.0/beschikbaarstellen_medicatiegegevens/fhir_instance/mg-mgrp-999900936-ALL.xml
                  <type value="Organization"/>
                  <display value="Healthcare provider (organization), Apotheek de Gulle Gaper"/>
               </actor>
            </performer>
            <authorizingPrescription>
               <type value="MedicationRequest"/>
               <identifier>
                  <system value="urn:oid:2.16.840.1.113883.2.4.3.11.999.77.16076005.1"/>
                  <value value="MBH_200_zonodig_MA"/>
               </identifier>
               <display value="relatie naar medicatieafspraak met identificatie: MBH_200_zonodig_MA || 2.16.840.1.113883.2.4.3.11.999.77.16076005.1"/>
            </authorizingPrescription>
            <dosageInstruction>
               <timing>
                  <repeat>
                     <frequency value="1"/>
                     <period value="1"/>
                     <periodUnit value="d"/>
                  </repeat>
               </timing>
               <asNeededCodeableConcept>
                  <coding>
                     <system value="https://referentiemodel.nhg.org/tabellen/nhg-tabel-25-gebruiksvoorschrift#aanvullend-numeriek"/>
                     <code value="1137"/>
                     <display value="Zo nodig"/>
                  </coding>
               </asNeededCodeableConcept>
               <route>
                  <coding>
                     <system value="urn:oid:2.16.840.1.113883.2.4.4.9"/>
                     <code value="9"/>
                     <display value="Oraal"/>
                  </coding>
               </route>
               <doseAndRate>
                  <doseQuantity>
                     <extension url="http://hl7.org/fhir/StructureDefinition/iso21090-PQ-translation">
                        <valueQuantity>
                           <value value="1"/>
                           <unit value="stuk"/>
                           <system value="urn:oid:2.16.840.1.113883.2.4.4.1.900.2"/>
                           <code value="245"/>
                        </valueQuantity>
                     </extension>
                     <value value="1"/>
                     <unit value="stuk"/>
                     <system value="http://unitsofmeasure.org"/>
                     <code value="1"/>
                  </doseQuantity>
               </doseAndRate>
            </dosageInstruction>
         </MedicationDispense>
      </resource>
      <request>
         <method value="POST"/>
         <url value="MedicationDispense"/>
      </request>
   </entry>
   <entry>
<<<<<<< HEAD:ada_2_fhir-r4/mp/9.2.0/beschikbaarstellen_medicatiegegevens/fhir_instance/mg-mgrp-999900602-ALL.xml
      <fullUrl value="urn:uuid:c33f1d24-6a95-11ec-0000-020000000000"/>
      <resource>
         <MedicationDispense>
            <id value="p9-216840111388324311999774220370091-MBH200tijdstippenflexibelTA"/>
=======
      <fullUrl value="urn:uuid:c33f1d4c-6a95-11ec-0000-020000000000"/>
      <resource>
         <MedicationDispense>
>>>>>>> origin/master:ada_2_fhir-r4/mp/9.2.0/beschikbaarstellen_medicatiegegevens/fhir_instance/mg-mgrp-999900936-ALL.xml
            <meta>
               <profile value="http://nictiz.nl/fhir/StructureDefinition/mp-AdministrationAgreement"/>
            </meta>
            <extension url="http://nictiz.nl/fhir/StructureDefinition/ext-AdministrationAgreement.AdministrationAgreementDateTime">
               <valueDateTime value="${DATE, T, D, +0}T09:24:00+02:00"/>
            </extension>
            <extension url="http://nictiz.nl/fhir/StructureDefinition/ext-RenderedDosageInstruction">
               <valueString value="Vanaf T, tot en met T + 14 dagen, elke dag om 08:00, 14:00 en 20:00 1 stuk, oraal"/>
            </extension>
            <extension url="http://nictiz.nl/fhir/StructureDefinition/ext-TimeInterval.Period">
               <valuePeriod>
                  <start value="${DATE, T, D, +0}T00:00:00+02:00"/>
                  <end value="${DATE, T, D, +14}T23:59:59+02:00"/>
               </valuePeriod>
            </extension>
            <extension url="http://nictiz.nl/fhir/StructureDefinition/ext-PharmaceuticalTreatment.Identifier">
               <valueIdentifier>
                  <system value="urn:oid:2.16.840.1.113883.2.4.3.11.999.77.1.1"/>
                  <value value="MBH_200_tijdstippen_flexibel"/>
               </valueIdentifier>
            </extension>
            <identifier>
               <system value="urn:oid:2.16.840.1.113883.2.4.3.11.999.77.422037009.1"/>
               <value value="MBH_200_tijdstippen_flexibel_TA"/>
            </identifier>
            <status value="unknown"/>
            <category>
               <coding>
                  <system value="http://snomed.info/sct"/>
                  <code value="422037009"/>
                  <display value="toedieningsafspraak"/>
               </coding>
            </category>
            <medicationReference>
<<<<<<< HEAD:ada_2_fhir-r4/mp/9.2.0/beschikbaarstellen_medicatiegegevens/fhir_instance/mg-mgrp-999900602-ALL.xml
               <reference value="urn:uuid:c33f1ec8-6a95-11ec-0000-020000000000"/>
=======
               <reference value="urn:uuid:c33f1ef0-6a95-11ec-0000-020000000000"/>
>>>>>>> origin/master:ada_2_fhir-r4/mp/9.2.0/beschikbaarstellen_medicatiegegevens/fhir_instance/mg-mgrp-999900936-ALL.xml
               <type value="Medication"/>
               <display value="METFORMINE HCL PCH TABLET 500MG"/>
            </medicationReference>
            <subject>
<<<<<<< HEAD:ada_2_fhir-r4/mp/9.2.0/beschikbaarstellen_medicatiegegevens/fhir_instance/mg-mgrp-999900602-ALL.xml
               <reference value="urn:uuid:c33f1892-6a95-11ec-0000-020000000000"/>
=======
               <reference value="urn:uuid:c33f1950-6a95-11ec-0000-020000000000"/>
>>>>>>> origin/master:ada_2_fhir-r4/mp/9.2.0/beschikbaarstellen_medicatiegegevens/fhir_instance/mg-mgrp-999900936-ALL.xml
               <type value="Patient"/>
               <display value="Patient, M. XXX_Rambaldo"/>
            </subject>
            <performer>
               <actor>
<<<<<<< HEAD:ada_2_fhir-r4/mp/9.2.0/beschikbaarstellen_medicatiegegevens/fhir_instance/mg-mgrp-999900602-ALL.xml
                  <reference value="urn:uuid:c33f1946-6a95-11ec-0000-020000000000"/>
=======
                  <reference value="urn:uuid:c33f210c-6a95-11ec-0000-020000000000"/>
>>>>>>> origin/master:ada_2_fhir-r4/mp/9.2.0/beschikbaarstellen_medicatiegegevens/fhir_instance/mg-mgrp-999900936-ALL.xml
                  <type value="Organization"/>
                  <display value="Healthcare provider (organization), Apotheek de Gulle Gaper"/>
               </actor>
            </performer>
            <authorizingPrescription>
               <type value="MedicationRequest"/>
               <identifier>
                  <system value="urn:oid:2.16.840.1.113883.2.4.3.11.999.77.16076005.1"/>
                  <value value="MBH_200_tijdstippen_flexibel_MA"/>
               </identifier>
               <display value="relatie naar medicatieafspraak met identificatie: MBH_200_tijdstippen_flexibel_MA || 2.16.840.1.113883.2.4.3.11.999.77.16076005.1"/>
            </authorizingPrescription>
            <dosageInstruction>
               <timing>
                  <repeat>
                     <extension url="http://hl7.org/fhir/StructureDefinition/timing-exact">
                        <valueBoolean value="false"/>
                     </extension>
                     <timeOfDay value="08:00:00"/>
                     <timeOfDay value="14:00:00"/>
                     <timeOfDay value="20:00:00"/>
                  </repeat>
               </timing>
               <route>
                  <coding>
                     <system value="urn:oid:2.16.840.1.113883.2.4.4.9"/>
                     <code value="9"/>
                     <display value="oraal"/>
                  </coding>
               </route>
               <doseAndRate>
                  <doseQuantity>
                     <extension url="http://hl7.org/fhir/StructureDefinition/iso21090-PQ-translation">
                        <valueQuantity>
                           <value value="1"/>
                           <unit value="stuk"/>
                           <system value="urn:oid:2.16.840.1.113883.2.4.4.1.900.2"/>
                           <code value="245"/>
                        </valueQuantity>
                     </extension>
                     <value value="1"/>
                     <unit value="stuk"/>
                     <system value="http://unitsofmeasure.org"/>
                     <code value="1"/>
                  </doseQuantity>
               </doseAndRate>
            </dosageInstruction>
         </MedicationDispense>
      </resource>
      <request>
         <method value="POST"/>
         <url value="MedicationDispense"/>
      </request>
   </entry>
   <entry>
<<<<<<< HEAD:ada_2_fhir-r4/mp/9.2.0/beschikbaarstellen_medicatiegegevens/fhir_instance/mg-mgrp-999900602-ALL.xml
      <fullUrl value="urn:uuid:c33f1892-6a95-11ec-0000-020000000000"/>
=======
      <fullUrl value="urn:uuid:c33f1950-6a95-11ec-0000-020000000000"/>
>>>>>>> origin/master:ada_2_fhir-r4/mp/9.2.0/beschikbaarstellen_medicatiegegevens/fhir_instance/mg-mgrp-999900936-ALL.xml
      <resource>
         <Patient>
            <meta>
               <profile value="http://nictiz.nl/fhir/StructureDefinition/nl-core-Patient"/>
            </meta>
            <identifier>
               <system value="http://fhir.nl/fhir/NamingSystem/bsn"/>
               <value value="999900936"/>
            </identifier>
            <name>
               <extension url="http://hl7.org/fhir/StructureDefinition/humanname-assembly-order">
                  <valueCode value="NL1"/>
               </extension>
               <use value="official"/>
               <text value="M. XXX_Rambaldo"/>
               <family value="XXX_Rambaldo">
                  <extension url="http://hl7.org/fhir/StructureDefinition/humanname-own-name">
                     <valueString value="XXX_Rambaldo"/>
                  </extension>
               </family>
               <given value="M.">
                  <extension url="http://hl7.org/fhir/StructureDefinition/iso21090-EN-qualifier">
                     <valueCode value="IN"/>
                  </extension>
               </given>
            </name>
            <gender value="female">
               <extension url="http://nictiz.nl/fhir/StructureDefinition/ext-CodeSpecification">
                  <valueCodeableConcept>
                     <coding>
                        <system value="http://terminology.hl7.org/CodeSystem/v3-AdministrativeGender"/>
                        <code value="F"/>
                        <display value="Vrouw"/>
                     </coding>
                  </valueCodeableConcept>
               </extension>
            </gender>
            <birthDate value="1985-11-07"/>
         </Patient>
      </resource>
      <request>
         <method value="POST"/>
         <url value="Patient"/>
      </request>
   </entry>
   <entry>
<<<<<<< HEAD:ada_2_fhir-r4/mp/9.2.0/beschikbaarstellen_medicatiegegevens/fhir_instance/mg-mgrp-999900602-ALL.xml
      <fullUrl value="urn:uuid:c33f18ba-6a95-11ec-0000-020000000000"/>
      <resource>
         <PractitionerRole>
            <id value="nl-core-HPrf-PracRol-mp9-PrcRol-2165281100731-000001111"/>
=======
      <fullUrl value="urn:uuid:c33f196e-6a95-11ec-0000-020000000000"/>
      <resource>
         <PractitionerRole>
>>>>>>> origin/master:ada_2_fhir-r4/mp/9.2.0/beschikbaarstellen_medicatiegegevens/fhir_instance/mg-mgrp-999900936-ALL.xml
            <meta>
               <profile value="http://nictiz.nl/fhir/StructureDefinition/nl-core-HealthProfessional-PractitionerRole"/>
            </meta>
            <practitioner>
<<<<<<< HEAD:ada_2_fhir-r4/mp/9.2.0/beschikbaarstellen_medicatiegegevens/fhir_instance/mg-mgrp-999900602-ALL.xml
               <reference value="urn:uuid:c33f18e2-6a95-11ec-0000-020000000000"/>
=======
               <reference value="urn:uuid:c33f198c-6a95-11ec-0000-020000000000"/>
>>>>>>> origin/master:ada_2_fhir-r4/mp/9.2.0/beschikbaarstellen_medicatiegegevens/fhir_instance/mg-mgrp-999900936-ALL.xml
               <type value="Practitioner"/>
               <display value="Healthcare professional (person), Peter van Pulver"/>
            </practitioner>
            <organization>
<<<<<<< HEAD:ada_2_fhir-r4/mp/9.2.0/beschikbaarstellen_medicatiegegevens/fhir_instance/mg-mgrp-999900602-ALL.xml
               <reference value="urn:uuid:c33f190a-6a95-11ec-0000-020000000000"/>
=======
               <reference value="urn:uuid:c33f20d0-6a95-11ec-0000-020000000000"/>
>>>>>>> origin/master:ada_2_fhir-r4/mp/9.2.0/beschikbaarstellen_medicatiegegevens/fhir_instance/mg-mgrp-999900936-ALL.xml
               <type value="Organization"/>
               <display value="Healthcare provider (organization), Huisartsenpraktijk Pulver &amp; Partners"/>
            </organization>
            <specialty>
               <coding>
                  <system value="urn:oid:2.16.840.1.113883.2.4.6.7"/>
                  <version value="2020-10-23T00:00:00"/>
                  <code value="0100"/>
                  <display value="Huisartsen, niet nader gespecificeerd"/>
               </coding>
            </specialty>
         </PractitionerRole>
      </resource>
      <request>
         <method value="POST"/>
         <url value="PractitionerRole"/>
      </request>
   </entry>
   <entry>
<<<<<<< HEAD:ada_2_fhir-r4/mp/9.2.0/beschikbaarstellen_medicatiegegevens/fhir_instance/mg-mgrp-999900602-ALL.xml
      <fullUrl value="urn:uuid:c33f18e2-6a95-11ec-0000-020000000000"/>
=======
      <fullUrl value="urn:uuid:c33f198c-6a95-11ec-0000-020000000000"/>
>>>>>>> origin/master:ada_2_fhir-r4/mp/9.2.0/beschikbaarstellen_medicatiegegevens/fhir_instance/mg-mgrp-999900936-ALL.xml
      <resource>
         <Practitioner>
            <meta>
               <profile value="http://nictiz.nl/fhir/StructureDefinition/nl-core-HealthProfessional-Practitioner"/>
            </meta>
            <identifier>
               <system value="http://fhir.nl/fhir/NamingSystem/uzi-nr-pers"/>
               <value value="000001111"/>
            </identifier>
            <name>
               <use value="official"/>
               <text value="Peter van Pulver"/>
               <family value="van Pulver">
                  <extension url="http://hl7.org/fhir/StructureDefinition/humanname-own-prefix">
                     <valueString value="van"/>
                  </extension>
                  <extension url="http://hl7.org/fhir/StructureDefinition/humanname-own-name">
                     <valueString value="Pulver"/>
                  </extension>
               </family>
               <given value="Peter">
                  <extension url="http://hl7.org/fhir/StructureDefinition/iso21090-EN-qualifier">
                     <valueCode value="BR"/>
                  </extension>
               </given>
            </name>
         </Practitioner>
      </resource>
      <request>
         <method value="POST"/>
         <url value="Practitioner"/>
      </request>
   </entry>
   <entry>
<<<<<<< HEAD:ada_2_fhir-r4/mp/9.2.0/beschikbaarstellen_medicatiegegevens/fhir_instance/mg-mgrp-999900602-ALL.xml
      <fullUrl value="urn:uuid:c33f190a-6a95-11ec-0000-020000000000"/>
      <resource>
         <Organization>
            <id value="nl-core-HPrv-Org-mp9-Org-2165281100733-00001111"/>
=======
      <fullUrl value="urn:uuid:c33f20d0-6a95-11ec-0000-020000000000"/>
      <resource>
         <Organization>
>>>>>>> origin/master:ada_2_fhir-r4/mp/9.2.0/beschikbaarstellen_medicatiegegevens/fhir_instance/mg-mgrp-999900936-ALL.xml
            <meta>
               <profile value="http://nictiz.nl/fhir/StructureDefinition/nl-core-HealthcareProvider-Organization"/>
            </meta>
            <identifier>
               <system value="http://fhir.nl/fhir/NamingSystem/ura"/>
               <value value="00001111"/>
            </identifier>
            <name value="Huisartsenpraktijk Pulver &amp; Partners"/>
            <address>
               <extension url="http://nictiz.nl/fhir/StructureDefinition/ext-AddressInformation.AddressType">
                  <valueCodeableConcept>
                     <coding>
                        <system value="http://terminology.hl7.org/CodeSystem/v3-AddressUse"/>
                        <code value="WP"/>
                        <display value="Werkadres"/>
                     </coding>
                  </valueCodeableConcept>
               </extension>
               <use value="work"/>
               <line value="Dorpsstraat 1">
                  <extension url="http://hl7.org/fhir/StructureDefinition/iso21090-ADXP-streetName">
                     <valueString value="Dorpsstraat"/>
                  </extension>
                  <extension url="http://hl7.org/fhir/StructureDefinition/iso21090-ADXP-houseNumber">
                     <valueString value="1"/>
                  </extension>
               </line>
               <city value="Ons Dorp"/>
               <postalCode value="1234AA"/>
            </address>
         </Organization>
      </resource>
      <request>
         <method value="POST"/>
         <url value="Organization"/>
      </request>
   </entry>
   <entry>
<<<<<<< HEAD:ada_2_fhir-r4/mp/9.2.0/beschikbaarstellen_medicatiegegevens/fhir_instance/mg-mgrp-999900602-ALL.xml
      <fullUrl value="urn:uuid:c33f1946-6a95-11ec-0000-020000000000"/>
      <resource>
         <Organization>
            <id value="nl-core-HPrv-Org-mp9-Org-2165281100733-01236578"/>
=======
      <fullUrl value="urn:uuid:c33f210c-6a95-11ec-0000-020000000000"/>
      <resource>
         <Organization>
>>>>>>> origin/master:ada_2_fhir-r4/mp/9.2.0/beschikbaarstellen_medicatiegegevens/fhir_instance/mg-mgrp-999900936-ALL.xml
            <meta>
               <profile value="http://nictiz.nl/fhir/StructureDefinition/nl-core-HealthcareProvider-Organization"/>
            </meta>
            <identifier>
               <system value="http://fhir.nl/fhir/NamingSystem/ura"/>
               <value value="01236578"/>
            </identifier>
            <name value="Apotheek de Gulle Gaper"/>
         </Organization>
      </resource>
      <request>
         <method value="POST"/>
         <url value="Organization"/>
      </request>
   </entry>
   <entry>
<<<<<<< HEAD:ada_2_fhir-r4/mp/9.2.0/beschikbaarstellen_medicatiegegevens/fhir_instance/mg-mgrp-999900602-ALL.xml
      <fullUrl value="urn:uuid:c33f1d42-6a95-11ec-0000-020000000000"/>
=======
      <fullUrl value="urn:uuid:c33f1d6a-6a95-11ec-0000-020000000000"/>
>>>>>>> origin/master:ada_2_fhir-r4/mp/9.2.0/beschikbaarstellen_medicatiegegevens/fhir_instance/mg-mgrp-999900936-ALL.xml
      <resource>
         <Medication>
            <meta>
               <profile value="http://nictiz.nl/fhir/StructureDefinition/nl-core-PharmaceuticalProduct"/>
            </meta>
            <code>
               <coding>
                  <system value="urn:oid:2.16.840.1.113883.2.4.4.10"/>
                  <code value="48291"/>
                  <display value="MIZOLASTINE TABLET MGA  10MG"/>
                  <userSelected value="true"/>
               </coding>
               <coding>
                  <system value="urn:oid:2.16.840.1.113883.2.4.4.1"/>
                  <code value="102164"/>
                  <display value="MIZOLASTINE TABLET MGA  10MG"/>
               </coding>
               <text value="MIZOLASTINE TABLET MGA  10MG"/>
            </code>
         </Medication>
      </resource>
      <request>
         <method value="POST"/>
         <url value="Medication"/>
      </request>
   </entry>
   <entry>
<<<<<<< HEAD:ada_2_fhir-r4/mp/9.2.0/beschikbaarstellen_medicatiegegevens/fhir_instance/mg-mgrp-999900602-ALL.xml
      <fullUrl value="urn:uuid:c33f1d60-6a95-11ec-0000-020000000000"/>
=======
      <fullUrl value="urn:uuid:c33f1d88-6a95-11ec-0000-020000000000"/>
>>>>>>> origin/master:ada_2_fhir-r4/mp/9.2.0/beschikbaarstellen_medicatiegegevens/fhir_instance/mg-mgrp-999900936-ALL.xml
      <resource>
         <Medication>
            <meta>
               <profile value="http://nictiz.nl/fhir/StructureDefinition/nl-core-PharmaceuticalProduct"/>
            </meta>
            <code>
               <coding>
                  <system value="urn:oid:2.16.840.1.113883.2.4.4.7"/>
                  <code value="1101099"/>
                  <display value="MIZOLLEN TABLET MGA 10MG"/>
                  <userSelected value="true"/>
               </coding>
               <coding>
                  <system value="urn:oid:2.16.840.1.113883.2.4.4.10"/>
                  <code value="48291"/>
                  <display value="MIZOLASTINE TABLET MGA  10MG"/>
               </coding>
               <coding>
                  <system value="urn:oid:2.16.840.1.113883.2.4.4.1"/>
                  <code value="102164"/>
                  <display value="MIZOLASTINE TABLET MGA  10MG"/>
               </coding>
               <text value="MIZOLLEN TABLET MGA 10MG"/>
            </code>
         </Medication>
      </resource>
      <request>
         <method value="POST"/>
         <url value="Medication"/>
      </request>
   </entry>
   <entry>
<<<<<<< HEAD:ada_2_fhir-r4/mp/9.2.0/beschikbaarstellen_medicatiegegevens/fhir_instance/mg-mgrp-999900602-ALL.xml
      <fullUrl value="urn:uuid:c33f1d7e-6a95-11ec-0000-020000000000"/>
=======
      <fullUrl value="urn:uuid:c33f1da6-6a95-11ec-0000-020000000000"/>
>>>>>>> origin/master:ada_2_fhir-r4/mp/9.2.0/beschikbaarstellen_medicatiegegevens/fhir_instance/mg-mgrp-999900936-ALL.xml
      <resource>
         <Medication>
            <meta>
               <profile value="http://nictiz.nl/fhir/StructureDefinition/nl-core-PharmaceuticalProduct"/>
            </meta>
            <code>
               <coding>
                  <system value="urn:oid:2.16.840.1.113883.2.4.4.10"/>
                  <code value="68519"/>
                  <display value="AMOXICILLINE DISPERTABLET 500MG"/>
                  <userSelected value="true"/>
               </coding>
               <coding>
                  <system value="urn:oid:2.16.840.1.113883.2.4.4.1"/>
                  <code value="117080"/>
                  <display value="AMOXICILLINE DISPERTABLET 500MG"/>
               </coding>
               <text value="AMOXICILLINE DISPERTABLET 500MG"/>
            </code>
         </Medication>
      </resource>
      <request>
         <method value="POST"/>
         <url value="Medication"/>
      </request>
   </entry>
   <entry>
<<<<<<< HEAD:ada_2_fhir-r4/mp/9.2.0/beschikbaarstellen_medicatiegegevens/fhir_instance/mg-mgrp-999900602-ALL.xml
      <fullUrl value="urn:uuid:c33f1d9c-6a95-11ec-0000-020000000000"/>
=======
      <fullUrl value="urn:uuid:c33f1dc4-6a95-11ec-0000-020000000000"/>
>>>>>>> origin/master:ada_2_fhir-r4/mp/9.2.0/beschikbaarstellen_medicatiegegevens/fhir_instance/mg-mgrp-999900936-ALL.xml
      <resource>
         <Medication>
            <meta>
               <profile value="http://nictiz.nl/fhir/StructureDefinition/nl-core-PharmaceuticalProduct"/>
            </meta>
            <code>
               <coding>
                  <system value="urn:oid:2.16.840.1.113883.2.4.4.7"/>
                  <code value="802891"/>
                  <display value="AMOXICILLINE DISPER SANDOZ TABLET 500MG"/>
                  <userSelected value="true"/>
               </coding>
               <coding>
                  <system value="urn:oid:2.16.840.1.113883.2.4.4.10"/>
                  <code value="68519"/>
                  <display value="AMOXICILLINE DISPERTABLET 500MG"/>
               </coding>
               <coding>
                  <system value="urn:oid:2.16.840.1.113883.2.4.4.1"/>
                  <code value="117080"/>
                  <display value="AMOXICILLINE DISPERTABLET 500MG"/>
               </coding>
               <text value="AMOXICILLINE DISPER SANDOZ TABLET 500MG"/>
            </code>
         </Medication>
      </resource>
      <request>
         <method value="POST"/>
         <url value="Medication"/>
      </request>
   </entry>
   <entry>
<<<<<<< HEAD:ada_2_fhir-r4/mp/9.2.0/beschikbaarstellen_medicatiegegevens/fhir_instance/mg-mgrp-999900602-ALL.xml
      <fullUrl value="urn:uuid:c33f1dba-6a95-11ec-0000-020000000000"/>
=======
      <fullUrl value="urn:uuid:c33f1de2-6a95-11ec-0000-020000000000"/>
>>>>>>> origin/master:ada_2_fhir-r4/mp/9.2.0/beschikbaarstellen_medicatiegegevens/fhir_instance/mg-mgrp-999900936-ALL.xml
      <resource>
         <Medication>
            <meta>
               <profile value="http://nictiz.nl/fhir/StructureDefinition/nl-core-PharmaceuticalProduct"/>
            </meta>
            <code>
               <coding>
                  <system value="urn:oid:2.16.840.1.113883.2.4.4.10"/>
                  <code value="67903"/>
                  <display value="PARACETAMOL 500MG TABLET"/>
                  <userSelected value="true"/>
               </coding>
               <coding>
                  <system value="urn:oid:2.16.840.1.113883.2.4.4.1"/>
                  <code value="2194"/>
                  <display value="PARACETAMOL 500MG TABLET"/>
               </coding>
               <text value="PARACETAMOL 500MG TABLET"/>
            </code>
         </Medication>
      </resource>
      <request>
         <method value="POST"/>
         <url value="Medication"/>
      </request>
   </entry>
   <entry>
<<<<<<< HEAD:ada_2_fhir-r4/mp/9.2.0/beschikbaarstellen_medicatiegegevens/fhir_instance/mg-mgrp-999900602-ALL.xml
      <fullUrl value="urn:uuid:c33f1dd8-6a95-11ec-0000-020000000000"/>
=======
      <fullUrl value="urn:uuid:c33f1e00-6a95-11ec-0000-020000000000"/>
>>>>>>> origin/master:ada_2_fhir-r4/mp/9.2.0/beschikbaarstellen_medicatiegegevens/fhir_instance/mg-mgrp-999900936-ALL.xml
      <resource>
         <Medication>
            <meta>
               <profile value="http://nictiz.nl/fhir/StructureDefinition/nl-core-PharmaceuticalProduct"/>
            </meta>
            <code>
               <coding>
                  <system value="urn:oid:2.16.840.1.113883.2.4.4.7"/>
                  <code value="1026291"/>
                  <display value="PARACETAMOL AURO TABLET 500MG"/>
                  <userSelected value="true"/>
               </coding>
               <coding>
                  <system value="urn:oid:2.16.840.1.113883.2.4.4.10"/>
                  <code value="67903"/>
                  <display value="PARACETAMOL 500MG TABLET"/>
               </coding>
               <coding>
                  <system value="urn:oid:2.16.840.1.113883.2.4.4.1"/>
                  <code value="2194"/>
                  <display value="PARACETAMOL 500MG TABLET"/>
               </coding>
               <text value="PARACETAMOL AURO TABLET 500MG"/>
            </code>
         </Medication>
      </resource>
      <request>
         <method value="POST"/>
         <url value="Medication"/>
      </request>
   </entry>
   <entry>
<<<<<<< HEAD:ada_2_fhir-r4/mp/9.2.0/beschikbaarstellen_medicatiegegevens/fhir_instance/mg-mgrp-999900602-ALL.xml
      <fullUrl value="urn:uuid:c33f1df6-6a95-11ec-0000-020000000000"/>
=======
      <fullUrl value="urn:uuid:c33f1e1e-6a95-11ec-0000-020000000000"/>
>>>>>>> origin/master:ada_2_fhir-r4/mp/9.2.0/beschikbaarstellen_medicatiegegevens/fhir_instance/mg-mgrp-999900936-ALL.xml
      <resource>
         <Medication>
            <meta>
               <profile value="http://nictiz.nl/fhir/StructureDefinition/nl-core-PharmaceuticalProduct"/>
            </meta>
            <code>
               <coding>
                  <system value="urn:oid:2.16.840.1.113883.2.4.4.10"/>
                  <code value="92789"/>
                  <display value="Cetomacrogolcreme met vaseline 10%"/>
                  <userSelected value="true"/>
               </coding>
               <coding>
                  <system value="urn:oid:2.16.840.1.113883.2.4.4.1"/>
                  <code value="133329"/>
                  <display value="Cetomacrogolcreme met vaseline 10%"/>
               </coding>
               <text value="Cetomacrogolcreme met vaseline 10%"/>
            </code>
         </Medication>
      </resource>
      <request>
         <method value="POST"/>
         <url value="Medication"/>
      </request>
   </entry>
   <entry>
<<<<<<< HEAD:ada_2_fhir-r4/mp/9.2.0/beschikbaarstellen_medicatiegegevens/fhir_instance/mg-mgrp-999900602-ALL.xml
      <fullUrl value="urn:uuid:c33f1e14-6a95-11ec-0000-020000000000"/>
=======
      <fullUrl value="urn:uuid:c33f1e3c-6a95-11ec-0000-020000000000"/>
>>>>>>> origin/master:ada_2_fhir-r4/mp/9.2.0/beschikbaarstellen_medicatiegegevens/fhir_instance/mg-mgrp-999900936-ALL.xml
      <resource>
         <Medication>
            <meta>
               <profile value="http://nictiz.nl/fhir/StructureDefinition/nl-core-PharmaceuticalProduct"/>
            </meta>
            <code>
               <coding>
                  <system value="urn:oid:2.16.840.1.113883.2.4.4.7"/>
                  <code value="1205943"/>
                  <display value="CETOMACROGOLCREME MET 10% VASELINE FAGRON"/>
                  <userSelected value="true"/>
               </coding>
               <coding>
                  <system value="urn:oid:2.16.840.1.113883.2.4.4.10"/>
                  <code value="92789"/>
                  <display value="Cetomacrogolcreme met vaseline 10%"/>
               </coding>
               <coding>
                  <system value="urn:oid:2.16.840.1.113883.2.4.4.1"/>
                  <code value="133329"/>
                  <display value="Cetomacrogolcreme met vaseline 10%"/>
               </coding>
               <text value="CETOMACROGOLCREME MET 10% VASELINE FAGRON"/>
            </code>
         </Medication>
      </resource>
      <request>
         <method value="POST"/>
         <url value="Medication"/>
      </request>
   </entry>
   <entry>
<<<<<<< HEAD:ada_2_fhir-r4/mp/9.2.0/beschikbaarstellen_medicatiegegevens/fhir_instance/mg-mgrp-999900602-ALL.xml
      <fullUrl value="urn:uuid:c33f1e32-6a95-11ec-0000-020000000000"/>
=======
      <fullUrl value="urn:uuid:c33f1e5a-6a95-11ec-0000-020000000000"/>
>>>>>>> origin/master:ada_2_fhir-r4/mp/9.2.0/beschikbaarstellen_medicatiegegevens/fhir_instance/mg-mgrp-999900936-ALL.xml
      <resource>
         <Medication>
            <meta>
               <profile value="http://nictiz.nl/fhir/StructureDefinition/nl-core-PharmaceuticalProduct"/>
            </meta>
            <code>
               <coding>
                  <system value="urn:oid:2.16.840.1.113883.2.4.4.10"/>
                  <code value="20850"/>
                  <display value="NAPROXEN 500MG TABLET"/>
                  <userSelected value="true"/>
               </coding>
               <coding>
                  <system value="urn:oid:2.16.840.1.113883.2.4.4.1"/>
                  <code value="51233"/>
                  <display value="NAPROXEN 500MG TABLET"/>
               </coding>
               <text value="NAPROXEN 500MG TABLET"/>
            </code>
         </Medication>
      </resource>
      <request>
         <method value="POST"/>
         <url value="Medication"/>
      </request>
   </entry>
   <entry>
<<<<<<< HEAD:ada_2_fhir-r4/mp/9.2.0/beschikbaarstellen_medicatiegegevens/fhir_instance/mg-mgrp-999900602-ALL.xml
      <fullUrl value="urn:uuid:c33f1e50-6a95-11ec-0000-020000000000"/>
=======
      <fullUrl value="urn:uuid:c33f1e78-6a95-11ec-0000-020000000000"/>
>>>>>>> origin/master:ada_2_fhir-r4/mp/9.2.0/beschikbaarstellen_medicatiegegevens/fhir_instance/mg-mgrp-999900936-ALL.xml
      <resource>
         <Medication>
            <meta>
               <profile value="http://nictiz.nl/fhir/StructureDefinition/nl-core-PharmaceuticalProduct"/>
            </meta>
            <code>
               <coding>
                  <system value="urn:oid:2.16.840.1.113883.2.4.4.7"/>
                  <code value="1137778"/>
                  <display value="NAPROXEN APOTEX TABLET 500MG"/>
                  <userSelected value="true"/>
               </coding>
               <coding>
                  <system value="urn:oid:2.16.840.1.113883.2.4.4.10"/>
                  <code value="20850"/>
                  <display value="NAPROXEN 500MG TABLET"/>
               </coding>
               <coding>
                  <system value="urn:oid:2.16.840.1.113883.2.4.4.1"/>
                  <code value="51233"/>
                  <display value="NAPROXEN 500MG TABLET"/>
               </coding>
               <text value="NAPROXEN APOTEX TABLET 500MG"/>
            </code>
         </Medication>
      </resource>
      <request>
         <method value="POST"/>
         <url value="Medication"/>
      </request>
   </entry>
   <entry>
<<<<<<< HEAD:ada_2_fhir-r4/mp/9.2.0/beschikbaarstellen_medicatiegegevens/fhir_instance/mg-mgrp-999900602-ALL.xml
      <fullUrl value="urn:uuid:c33f1e6e-6a95-11ec-0000-020000000000"/>
=======
      <fullUrl value="urn:uuid:c33f1e96-6a95-11ec-0000-020000000000"/>
>>>>>>> origin/master:ada_2_fhir-r4/mp/9.2.0/beschikbaarstellen_medicatiegegevens/fhir_instance/mg-mgrp-999900936-ALL.xml
      <resource>
         <Medication>
            <meta>
               <profile value="http://nictiz.nl/fhir/StructureDefinition/nl-core-PharmaceuticalProduct"/>
            </meta>
            <code>
               <coding>
                  <system value="urn:oid:2.16.840.1.113883.2.4.4.10"/>
                  <code value="72664"/>
                  <display value="WATERSTOFPEROXIDE CONC VOOR MONDSPOELING 30MG/ML"/>
                  <userSelected value="true"/>
               </coding>
               <coding>
                  <system value="urn:oid:2.16.840.1.113883.2.4.4.1"/>
                  <code value="119903"/>
                  <display value="WATERSTOFPEROXIDE CONC VOOR MONDSPOELING 30MG/ML"/>
               </coding>
               <text value="WATERSTOFPEROXIDE CONC VOOR MONDSPOELING 30MG/ML"/>
            </code>
         </Medication>
      </resource>
      <request>
         <method value="POST"/>
         <url value="Medication"/>
      </request>
   </entry>
   <entry>
<<<<<<< HEAD:ada_2_fhir-r4/mp/9.2.0/beschikbaarstellen_medicatiegegevens/fhir_instance/mg-mgrp-999900602-ALL.xml
      <fullUrl value="urn:uuid:c33f1e8c-6a95-11ec-0000-020000000000"/>
=======
      <fullUrl value="urn:uuid:c33f1eb4-6a95-11ec-0000-020000000000"/>
>>>>>>> origin/master:ada_2_fhir-r4/mp/9.2.0/beschikbaarstellen_medicatiegegevens/fhir_instance/mg-mgrp-999900936-ALL.xml
      <resource>
         <Medication>
            <meta>
               <profile value="http://nictiz.nl/fhir/StructureDefinition/nl-core-PharmaceuticalProduct"/>
            </meta>
            <code>
               <coding>
                  <system value="urn:oid:2.16.840.1.113883.2.4.4.7"/>
                  <code value="261815"/>
                  <display value="WATERSTOFPEROXIDE 3% CONC VOOR MONDSP FNA MR"/>
                  <userSelected value="true"/>
               </coding>
               <coding>
                  <system value="urn:oid:2.16.840.1.113883.2.4.4.10"/>
                  <code value="72994"/>
                  <display value="WATERSTOFPEROXIDE CONC VOOR MONDSPOELING 30MG/ML"/>
               </coding>
               <coding>
                  <system value="urn:oid:2.16.840.1.113883.2.4.4.1"/>
                  <code value="119903"/>
                  <display value="WATERSTOFPEROXIDE CONC VOOR MONDSPOELING 30MG/ML"/>
               </coding>
               <text value="WATERSTOFPEROXIDE 3% CONC VOOR MONDSP FNA MR"/>
            </code>
         </Medication>
      </resource>
      <request>
         <method value="POST"/>
         <url value="Medication"/>
      </request>
   </entry>
   <entry>
<<<<<<< HEAD:ada_2_fhir-r4/mp/9.2.0/beschikbaarstellen_medicatiegegevens/fhir_instance/mg-mgrp-999900602-ALL.xml
      <fullUrl value="urn:uuid:c33f1eaa-6a95-11ec-0000-020000000000"/>
=======
      <fullUrl value="urn:uuid:c33f1ed2-6a95-11ec-0000-020000000000"/>
>>>>>>> origin/master:ada_2_fhir-r4/mp/9.2.0/beschikbaarstellen_medicatiegegevens/fhir_instance/mg-mgrp-999900936-ALL.xml
      <resource>
         <Medication>
            <meta>
               <profile value="http://nictiz.nl/fhir/StructureDefinition/nl-core-PharmaceuticalProduct"/>
            </meta>
            <code>
               <coding>
                  <system value="urn:oid:2.16.840.1.113883.2.4.4.10"/>
                  <code value="1090"/>
                  <display value="METFORMINE 500MG TABLET"/>
                  <userSelected value="true"/>
               </coding>
               <coding>
                  <system value="urn:oid:2.16.840.1.113883.2.4.4.1"/>
                  <code value="3816"/>
                  <display value="METFORMINE 500MG TABLET"/>
               </coding>
               <text value="METFORMINE 500MG TABLET"/>
            </code>
         </Medication>
      </resource>
      <request>
         <method value="POST"/>
         <url value="Medication"/>
      </request>
   </entry>
   <entry>
<<<<<<< HEAD:ada_2_fhir-r4/mp/9.2.0/beschikbaarstellen_medicatiegegevens/fhir_instance/mg-mgrp-999900602-ALL.xml
      <fullUrl value="urn:uuid:c33f1ec8-6a95-11ec-0000-020000000000"/>
=======
      <fullUrl value="urn:uuid:c33f1ef0-6a95-11ec-0000-020000000000"/>
>>>>>>> origin/master:ada_2_fhir-r4/mp/9.2.0/beschikbaarstellen_medicatiegegevens/fhir_instance/mg-mgrp-999900936-ALL.xml
      <resource>
         <Medication>
            <meta>
               <profile value="http://nictiz.nl/fhir/StructureDefinition/nl-core-PharmaceuticalProduct"/>
            </meta>
            <code>
               <coding>
                  <system value="urn:oid:2.16.840.1.113883.2.4.4.7"/>
                  <code value="693332"/>
                  <display value="METFORMINE HCL PCH TABLET 500MG"/>
                  <userSelected value="true"/>
               </coding>
               <coding>
                  <system value="urn:oid:2.16.840.1.113883.2.4.4.10"/>
                  <code value="1090"/>
                  <display value="METFORMINE 500MG TABLET"/>
               </coding>
               <coding>
                  <system value="urn:oid:2.16.840.1.113883.2.4.4.1"/>
                  <code value="3816"/>
                  <display value="METFORMINE 500MG TABLET"/>
               </coding>
               <text value="METFORMINE HCL PCH TABLET 500MG"/>
            </code>
         </Medication>
      </resource>
      <request>
         <method value="POST"/>
         <url value="Medication"/>
      </request>
   </entry>
   <entry>
<<<<<<< HEAD:ada_2_fhir-r4/mp/9.2.0/beschikbaarstellen_medicatiegegevens/fhir_instance/mg-mgrp-999900602-ALL.xml
      <fullUrl value="urn:uuid:c33f1ee6-6a95-11ec-0000-020000000000"/>
=======
      <fullUrl value="urn:uuid:c33f1f0e-6a95-11ec-0000-020000000000"/>
>>>>>>> origin/master:ada_2_fhir-r4/mp/9.2.0/beschikbaarstellen_medicatiegegevens/fhir_instance/mg-mgrp-999900936-ALL.xml
      <resource>
         <Medication>
            <meta>
               <profile value="http://nictiz.nl/fhir/StructureDefinition/nl-core-PharmaceuticalProduct"/>
            </meta>
            <code>
               <coding>
                  <system value="urn:oid:2.16.840.1.113883.2.4.4.10"/>
                  <code value="55050"/>
                  <display value="IMIQUIMOD 50MG/G CREME"/>
                  <userSelected value="true"/>
               </coding>
               <coding>
                  <system value="urn:oid:2.16.840.1.113883.2.4.4.1"/>
                  <code value="109398"/>
                  <display value="IMIQUIMOD 50MG/G CREME"/>
               </coding>
               <text value="IMIQUIMOD 50MG/G CREME"/>
            </code>
         </Medication>
      </resource>
      <request>
         <method value="POST"/>
         <url value="Medication"/>
      </request>
   </entry>
   <entry>
<<<<<<< HEAD:ada_2_fhir-r4/mp/9.2.0/beschikbaarstellen_medicatiegegevens/fhir_instance/mg-mgrp-999900602-ALL.xml
      <fullUrl value="urn:uuid:c33f1f04-6a95-11ec-0000-020000000000"/>
=======
      <fullUrl value="urn:uuid:c33f1f2c-6a95-11ec-0000-020000000000"/>
>>>>>>> origin/master:ada_2_fhir-r4/mp/9.2.0/beschikbaarstellen_medicatiegegevens/fhir_instance/mg-mgrp-999900936-ALL.xml
      <resource>
         <Medication>
            <meta>
               <profile value="http://nictiz.nl/fhir/StructureDefinition/nl-core-PharmaceuticalProduct"/>
            </meta>
            <code>
               <coding>
                  <system value="urn:oid:2.16.840.1.113883.2.4.4.7"/>
                  <code value="1198521"/>
                  <display value="ALDARA CREME 50MG/G IN SACHET"/>
                  <userSelected value="true"/>
               </coding>
               <coding>
                  <system value="urn:oid:2.16.840.1.113883.2.4.4.10"/>
                  <code value="55050"/>
                  <display value="IMIQUIMOD 50MG/G CREME"/>
               </coding>
               <coding>
                  <system value="urn:oid:2.16.840.1.113883.2.4.4.1"/>
                  <code value="109398"/>
                  <display value="IMIQUIMOD 50MG/G CREME"/>
               </coding>
               <text value="ALDARA CREME 50MG/G IN SACHET"/>
            </code>
         </Medication>
      </resource>
      <request>
         <method value="POST"/>
         <url value="Medication"/>
      </request>
   </entry>
   <entry>
<<<<<<< HEAD:ada_2_fhir-r4/mp/9.2.0/beschikbaarstellen_medicatiegegevens/fhir_instance/mg-mgrp-999900602-ALL.xml
      <fullUrl value="urn:uuid:c33f1f22-6a95-11ec-0000-020000000000"/>
=======
      <fullUrl value="urn:uuid:c33f1f4a-6a95-11ec-0000-020000000000"/>
>>>>>>> origin/master:ada_2_fhir-r4/mp/9.2.0/beschikbaarstellen_medicatiegegevens/fhir_instance/mg-mgrp-999900936-ALL.xml
      <resource>
         <Medication>
            <meta>
               <profile value="http://nictiz.nl/fhir/StructureDefinition/nl-core-PharmaceuticalProduct"/>
            </meta>
            <code>
               <coding>
                  <system value="urn:oid:2.16.840.1.113883.2.4.4.10"/>
                  <code value="77038"/>
                  <display value="EZETIMIB/SIMVASTATINE 10/20"/>
                  <userSelected value="true"/>
               </coding>
               <coding>
                  <system value="urn:oid:2.16.840.1.113883.2.4.4.1"/>
                  <code value="123129"/>
                  <display value="EZETIMIB/SIMVASTATINE 10/20"/>
               </coding>
               <text value="EZETIMIB/SIMVASTATINE 10/20"/>
            </code>
         </Medication>
      </resource>
      <request>
         <method value="POST"/>
         <url value="Medication"/>
      </request>
   </entry>
   <entry>
<<<<<<< HEAD:ada_2_fhir-r4/mp/9.2.0/beschikbaarstellen_medicatiegegevens/fhir_instance/mg-mgrp-999900602-ALL.xml
      <fullUrl value="urn:uuid:c33f1f40-6a95-11ec-0000-020000000000"/>
=======
      <fullUrl value="urn:uuid:c33f1f68-6a95-11ec-0000-020000000000"/>
>>>>>>> origin/master:ada_2_fhir-r4/mp/9.2.0/beschikbaarstellen_medicatiegegevens/fhir_instance/mg-mgrp-999900936-ALL.xml
      <resource>
         <Medication>
            <meta>
               <profile value="http://nictiz.nl/fhir/StructureDefinition/nl-core-PharmaceuticalProduct"/>
            </meta>
            <code>
               <coding>
                  <system value="urn:oid:2.16.840.1.113883.2.4.4.7"/>
                  <code value="1719785"/>
                  <display value="INEGY TABLET 10/20MG"/>
                  <userSelected value="true"/>
               </coding>
               <coding>
                  <system value="urn:oid:2.16.840.1.113883.2.4.4.10"/>
                  <code value="77038"/>
                  <display value="EZETIMIB/SIMVASTATINE 10/20"/>
               </coding>
               <coding>
                  <system value="urn:oid:2.16.840.1.113883.2.4.4.1"/>
                  <code value="123129"/>
                  <display value="EZETIMIB/SIMVASTATINE 10/20"/>
               </coding>
               <text value="INEGY TABLET 10/20MG"/>
            </code>
         </Medication>
      </resource>
      <request>
         <method value="POST"/>
         <url value="Medication"/>
      </request>
   </entry>
   <entry>
<<<<<<< HEAD:ada_2_fhir-r4/mp/9.2.0/beschikbaarstellen_medicatiegegevens/fhir_instance/mg-mgrp-999900602-ALL.xml
      <fullUrl value="urn:uuid:c33f1f5e-6a95-11ec-0000-020000000000"/>
=======
      <fullUrl value="urn:uuid:c33f1f86-6a95-11ec-0000-020000000000"/>
>>>>>>> origin/master:ada_2_fhir-r4/mp/9.2.0/beschikbaarstellen_medicatiegegevens/fhir_instance/mg-mgrp-999900936-ALL.xml
      <resource>
         <Medication>
            <meta>
               <profile value="http://nictiz.nl/fhir/StructureDefinition/nl-core-PharmaceuticalProduct"/>
            </meta>
            <code>
               <coding>
                  <system value="urn:oid:2.16.840.1.113883.2.4.4.10"/>
                  <code value="16292"/>
                  <display value="ETHINYLESTRADIOL/DESOGESTREL TABLET 30/150UG"/>
                  <userSelected value="true"/>
               </coding>
               <coding>
                  <system value="urn:oid:2.16.840.1.113883.2.4.4.1"/>
                  <code value="39578"/>
                  <display value="ETHINYLESTRADIOL/DESOGESTREL TABLET 30/150UG"/>
               </coding>
               <text value="ETHINYLESTRADIOL/DESOGESTREL TABLET 30/150UG"/>
            </code>
         </Medication>
      </resource>
      <request>
         <method value="POST"/>
         <url value="Medication"/>
      </request>
   </entry>
   <entry>
<<<<<<< HEAD:ada_2_fhir-r4/mp/9.2.0/beschikbaarstellen_medicatiegegevens/fhir_instance/mg-mgrp-999900602-ALL.xml
      <fullUrl value="urn:uuid:c33f1f7c-6a95-11ec-0000-020000000000"/>
=======
      <fullUrl value="urn:uuid:c33f1fa4-6a95-11ec-0000-020000000000"/>
>>>>>>> origin/master:ada_2_fhir-r4/mp/9.2.0/beschikbaarstellen_medicatiegegevens/fhir_instance/mg-mgrp-999900936-ALL.xml
      <resource>
         <Medication>
            <meta>
               <profile value="http://nictiz.nl/fhir/StructureDefinition/nl-core-PharmaceuticalProduct"/>
            </meta>
            <code>
               <coding>
                  <system value="urn:oid:2.16.840.1.113883.2.4.4.10"/>
                  <code value="16705"/>
                  <display value="Fusidinezuur creme 20mg/g"/>
                  <userSelected value="true"/>
               </coding>
               <coding>
                  <system value="urn:oid:2.16.840.1.113883.2.4.4.1"/>
                  <code value="73466"/>
                  <display value="Fusidinezuur creme 20mg/g"/>
               </coding>
               <text value="Fusidinezuur creme 20mg/g"/>
            </code>
         </Medication>
      </resource>
      <request>
         <method value="POST"/>
         <url value="Medication"/>
      </request>
   </entry>
   <entry>
<<<<<<< HEAD:ada_2_fhir-r4/mp/9.2.0/beschikbaarstellen_medicatiegegevens/fhir_instance/mg-mgrp-999900602-ALL.xml
      <fullUrl value="urn:uuid:c33f1f9a-6a95-11ec-0000-020000000000"/>
=======
      <fullUrl value="urn:uuid:c33f1fc2-6a95-11ec-0000-020000000000"/>
>>>>>>> origin/master:ada_2_fhir-r4/mp/9.2.0/beschikbaarstellen_medicatiegegevens/fhir_instance/mg-mgrp-999900936-ALL.xml
      <resource>
         <Medication>
            <meta>
               <profile value="http://nictiz.nl/fhir/StructureDefinition/nl-core-PharmaceuticalProduct"/>
            </meta>
            <code>
               <coding>
                  <system value="urn:oid:2.16.840.1.113883.2.4.4.7"/>
                  <code value="2292556"/>
                  <display value="AFFUSINE CREME 20MG/G"/>
                  <userSelected value="true"/>
               </coding>
               <coding>
                  <system value="urn:oid:2.16.840.1.113883.2.4.4.10"/>
                  <code value="16705"/>
                  <display value="Fusidinezuur creme 20mg/g"/>
               </coding>
               <coding>
                  <system value="urn:oid:2.16.840.1.113883.2.4.4.1"/>
                  <code value="73466"/>
                  <display value="Fusidinezuur creme 20mg/g"/>
               </coding>
               <text value="AFFUSINE CREME 20MG/G"/>
            </code>
         </Medication>
      </resource>
      <request>
         <method value="POST"/>
         <url value="Medication"/>
      </request>
   </entry>
   <entry>
<<<<<<< HEAD:ada_2_fhir-r4/mp/9.2.0/beschikbaarstellen_medicatiegegevens/fhir_instance/mg-mgrp-999900602-ALL.xml
      <fullUrl value="urn:uuid:c33f1fb8-6a95-11ec-0000-020000000000"/>
=======
      <fullUrl value="urn:uuid:c33f1fe0-6a95-11ec-0000-020000000000"/>
>>>>>>> origin/master:ada_2_fhir-r4/mp/9.2.0/beschikbaarstellen_medicatiegegevens/fhir_instance/mg-mgrp-999900936-ALL.xml
      <resource>
         <Medication>
            <meta>
               <profile value="http://nictiz.nl/fhir/StructureDefinition/nl-core-PharmaceuticalProduct"/>
            </meta>
            <code>
               <coding>
                  <system value="urn:oid:2.16.840.1.113883.2.4.4.10"/>
                  <code value="42773"/>
                  <display value="CODEINE TABLET 10MG (FOSFAAT)"/>
                  <userSelected value="true"/>
               </coding>
               <coding>
                  <system value="urn:oid:2.16.840.1.113883.2.4.4.1"/>
                  <code value="23086"/>
                  <display value="CODEINE TABLET 10MG (FOSFAAT)"/>
               </coding>
               <text value="CODEINE TABLET 10MG (FOSFAAT)"/>
            </code>
         </Medication>
      </resource>
      <request>
         <method value="POST"/>
         <url value="Medication"/>
      </request>
   </entry>
   <entry>
<<<<<<< HEAD:ada_2_fhir-r4/mp/9.2.0/beschikbaarstellen_medicatiegegevens/fhir_instance/mg-mgrp-999900602-ALL.xml
      <fullUrl value="urn:uuid:c33f1fd6-6a95-11ec-0000-020000000000"/>
=======
      <fullUrl value="urn:uuid:c33f1ffe-6a95-11ec-0000-020000000000"/>
>>>>>>> origin/master:ada_2_fhir-r4/mp/9.2.0/beschikbaarstellen_medicatiegegevens/fhir_instance/mg-mgrp-999900936-ALL.xml
      <resource>
         <Medication>
            <meta>
               <profile value="http://nictiz.nl/fhir/StructureDefinition/nl-core-PharmaceuticalProduct"/>
            </meta>
            <code>
               <coding>
                  <system value="urn:oid:2.16.840.1.113883.2.4.4.7"/>
                  <code value="874965"/>
                  <display value="CODEINEFOSFAAT PCH TABLET 10MG"/>
                  <userSelected value="true"/>
               </coding>
               <coding>
                  <system value="urn:oid:2.16.840.1.113883.2.4.4.10"/>
                  <code value="42773"/>
                  <display value="CODEINE TABLET 10MG (FOSFAAT)"/>
               </coding>
               <coding>
                  <system value="urn:oid:2.16.840.1.113883.2.4.4.1"/>
                  <code value="23086"/>
                  <display value="CODEINE TABLET 10MG (FOSFAAT)"/>
               </coding>
               <text value="CODEINEFOSFAAT PCH TABLET 10MG"/>
            </code>
         </Medication>
      </resource>
      <request>
         <method value="POST"/>
         <url value="Medication"/>
      </request>
   </entry>
   <entry>
<<<<<<< HEAD:ada_2_fhir-r4/mp/9.2.0/beschikbaarstellen_medicatiegegevens/fhir_instance/mg-mgrp-999900602-ALL.xml
      <fullUrl value="urn:uuid:c33f1ff4-6a95-11ec-0000-020000000000"/>
=======
      <fullUrl value="urn:uuid:c33f201c-6a95-11ec-0000-020000000000"/>
>>>>>>> origin/master:ada_2_fhir-r4/mp/9.2.0/beschikbaarstellen_medicatiegegevens/fhir_instance/mg-mgrp-999900936-ALL.xml
      <resource>
         <Medication>
            <meta>
               <profile value="http://nictiz.nl/fhir/StructureDefinition/nl-core-PharmaceuticalProduct"/>
            </meta>
            <code>
               <coding>
                  <system value="urn:oid:2.16.840.1.113883.2.4.4.10"/>
                  <code value="94692"/>
                  <display value="MORFINE INFVLST 5MG/ML CAS 100ML"/>
                  <userSelected value="true"/>
               </coding>
               <coding>
                  <system value="urn:oid:2.16.840.1.113883.2.4.4.1"/>
                  <code value="134538"/>
                  <display value="MORFINE INFVLST 5MG/ML CAS 100ML"/>
               </coding>
               <text value="MORFINE INFVLST 5MG/ML CAS 100ML"/>
            </code>
         </Medication>
      </resource>
      <request>
         <method value="POST"/>
         <url value="Medication"/>
      </request>
   </entry>
   <entry>
<<<<<<< HEAD:ada_2_fhir-r4/mp/9.2.0/beschikbaarstellen_medicatiegegevens/fhir_instance/mg-mgrp-999900602-ALL.xml
      <fullUrl value="urn:uuid:c33f2012-6a95-11ec-0000-020000000000"/>
=======
      <fullUrl value="urn:uuid:c33f203a-6a95-11ec-0000-020000000000"/>
>>>>>>> origin/master:ada_2_fhir-r4/mp/9.2.0/beschikbaarstellen_medicatiegegevens/fhir_instance/mg-mgrp-999900936-ALL.xml
      <resource>
         <Medication>
            <meta>
               <profile value="http://nictiz.nl/fhir/StructureDefinition/nl-core-PharmaceuticalProduct"/>
            </meta>
            <code>
               <coding>
                  <system value="urn:oid:2.16.840.1.113883.2.4.4.7"/>
                  <code value="779288"/>
                  <display value="MORFINEHYDROCHLORIDE 1ML= 5MG EPI CAS 100ML FNA MR"/>
                  <userSelected value="true"/>
               </coding>
               <coding>
                  <system value="urn:oid:2.16.840.1.113883.2.4.4.10"/>
                  <code value="94692"/>
                  <display value="MORFINE INFVLST 5MG/ML CAS 100ML"/>
               </coding>
               <coding>
                  <system value="urn:oid:2.16.840.1.113883.2.4.4.1"/>
                  <code value="134538"/>
                  <display value="MORFINE INFVLST 5MG/ML CAS 100ML"/>
               </coding>
               <text value="MORFINEHYDROCHLORIDE 1ML= 5MG EPI CAS 100ML FNA MR"/>
            </code>
         </Medication>
      </resource>
      <request>
         <method value="POST"/>
         <url value="Medication"/>
      </request>
   </entry>
   <entry>
<<<<<<< HEAD:ada_2_fhir-r4/mp/9.2.0/beschikbaarstellen_medicatiegegevens/fhir_instance/mg-mgrp-999900602-ALL.xml
      <fullUrl value="urn:uuid:c33f2030-6a95-11ec-0000-020000000000"/>
=======
      <fullUrl value="urn:uuid:c33f2058-6a95-11ec-0000-020000000000"/>
>>>>>>> origin/master:ada_2_fhir-r4/mp/9.2.0/beschikbaarstellen_medicatiegegevens/fhir_instance/mg-mgrp-999900936-ALL.xml
      <resource>
         <Medication>
            <meta>
               <profile value="http://nictiz.nl/fhir/StructureDefinition/nl-core-PharmaceuticalProduct"/>
            </meta>
            <code>
               <coding>
                  <system value="urn:oid:2.16.840.1.113883.2.4.4.10"/>
                  <code value="44520"/>
                  <display value="NITROGLYCERINE PLEISTER 5MG/24UUR (DEPONIT T)"/>
                  <userSelected value="true"/>
               </coding>
               <coding>
                  <system value="urn:oid:2.16.840.1.113883.2.4.4.1"/>
                  <code value="98477"/>
                  <display value="NITROGLYCERINE PLEISTER 5MG/24UUR (DEPONIT T)"/>
               </coding>
               <text value="NITROGLYCERINE PLEISTER 5MG/24UUR (DEPONIT T)"/>
            </code>
         </Medication>
      </resource>
      <request>
         <method value="POST"/>
         <url value="Medication"/>
      </request>
   </entry>
   <entry>
<<<<<<< HEAD:ada_2_fhir-r4/mp/9.2.0/beschikbaarstellen_medicatiegegevens/fhir_instance/mg-mgrp-999900602-ALL.xml
      <fullUrl value="urn:uuid:c33f204e-6a95-11ec-0000-020000000000"/>
=======
      <fullUrl value="urn:uuid:c33f2076-6a95-11ec-0000-020000000000"/>
>>>>>>> origin/master:ada_2_fhir-r4/mp/9.2.0/beschikbaarstellen_medicatiegegevens/fhir_instance/mg-mgrp-999900936-ALL.xml
      <resource>
         <Medication>
            <meta>
               <profile value="http://nictiz.nl/fhir/StructureDefinition/nl-core-PharmaceuticalProduct"/>
            </meta>
            <code>
               <coding>
                  <system value="urn:oid:2.16.840.1.113883.2.4.4.7"/>
                  <code value="1013602"/>
                  <display value="DEPONIT T 5 PLEISTER TRANSDERMAAL 18,7MG"/>
                  <userSelected value="true"/>
               </coding>
               <coding>
                  <system value="urn:oid:2.16.840.1.113883.2.4.4.10"/>
                  <code value="44520"/>
                  <display value="NITROGLYCERINE PLEISTER 5MG/24UUR (DEPONIT T)"/>
               </coding>
               <coding>
                  <system value="urn:oid:2.16.840.1.113883.2.4.4.1"/>
                  <code value="98477"/>
                  <display value="NITROGLYCERINE PLEISTER 5MG/24UUR (DEPONIT T)"/>
               </coding>
               <text value="DEPONIT T 5 PLEISTER TRANSDERMAAL 18,7MG"/>
            </code>
         </Medication>
      </resource>
      <request>
         <method value="POST"/>
         <url value="Medication"/>
      </request>
   </entry>
   <entry>
<<<<<<< HEAD:ada_2_fhir-r4/mp/9.2.0/beschikbaarstellen_medicatiegegevens/fhir_instance/mg-mgrp-999900602-ALL.xml
      <fullUrl value="urn:uuid:c33f206c-6a95-11ec-0000-020000000000"/>
=======
      <fullUrl value="urn:uuid:c33f2094-6a95-11ec-0000-020000000000"/>
>>>>>>> origin/master:ada_2_fhir-r4/mp/9.2.0/beschikbaarstellen_medicatiegegevens/fhir_instance/mg-mgrp-999900936-ALL.xml
      <resource>
         <Medication>
            <meta>
               <profile value="http://nictiz.nl/fhir/StructureDefinition/nl-core-PharmaceuticalProduct"/>
            </meta>
            <code>
               <coding>
                  <system value="urn:oid:2.16.840.1.113883.2.4.4.10"/>
                  <code value="3956"/>
                  <display value="ACETYLSALICYLZUUR 100MG TAB"/>
                  <userSelected value="true"/>
               </coding>
               <coding>
                  <system value="urn:oid:2.16.840.1.113883.2.4.4.1"/>
                  <code value="12548"/>
                  <display value="ACETYLSALICYLZUUR TABLET 100MG"/>
               </coding>
               <text value="ACETYLSALICYLZUUR 100MG TAB"/>
            </code>
         </Medication>
      </resource>
      <request>
         <method value="POST"/>
         <url value="Medication"/>
      </request>
   </entry>
   <entry>
<<<<<<< HEAD:ada_2_fhir-r4/mp/9.2.0/beschikbaarstellen_medicatiegegevens/fhir_instance/mg-mgrp-999900602-ALL.xml
      <fullUrl value="urn:uuid:c33f208a-6a95-11ec-0000-020000000000"/>
=======
      <fullUrl value="urn:uuid:c33f20b2-6a95-11ec-0000-020000000000"/>
>>>>>>> origin/master:ada_2_fhir-r4/mp/9.2.0/beschikbaarstellen_medicatiegegevens/fhir_instance/mg-mgrp-999900936-ALL.xml
      <resource>
         <Medication>
            <meta>
               <profile value="http://nictiz.nl/fhir/StructureDefinition/nl-core-PharmaceuticalProduct"/>
            </meta>
            <code>
               <coding>
                  <system value="urn:oid:2.16.840.1.113883.2.4.4.7"/>
                  <code value="202681"/>
                  <display value="ASPIRINE TABLET 100MG"/>
                  <userSelected value="true"/>
               </coding>
               <coding>
                  <system value="urn:oid:2.16.840.1.113883.2.4.4.10"/>
                  <code value="3956"/>
                  <display value="ACETYLSALICYLZUUR 100MG TAB"/>
               </coding>
               <coding>
                  <system value="urn:oid:2.16.840.1.113883.2.4.4.1"/>
                  <code value="12548"/>
                  <display value="ACETYLSALICYLZUUR TABLET 100MG"/>
               </coding>
               <text value="ASPIRINE TABLET 100MG"/>
            </code>
         </Medication>
      </resource>
      <request>
         <method value="POST"/>
         <url value="Medication"/>
      </request>
   </entry>
</Bundle>
