<Bundle xmlns="http://hl7.org/fhir">
   <id value="mg-mgrp-999900468-ALL"/>
   <type value="transaction"/>
   <entry>
<<<<<<< HEAD:ada_2_fhir-r4/mp/9.2.0/beschikbaarstellen_medicatiegegevens/fhir_instance/mg-mgrp-999900419-ALL.xml
      <fullUrl value="urn:uuid:c33f1d10-6a95-11ec-0000-020000000000"/>
      <resource>
         <MedicationRequest>
            <id value="mp-MedAgr-mp9-21684011138832431199977160760051-MBH200starteindMA"/>
=======
      <fullUrl value="urn:uuid:c33f038e-6a95-11ec-0000-020000000000"/>
      <resource>
         <MedicationRequest>
>>>>>>> origin/master:ada_2_fhir-r4/mp/9.2.0/beschikbaarstellen_medicatiegegevens/fhir_instance/mg-mgrp-999900468-ALL.xml
            <meta>
               <profile value="http://nictiz.nl/fhir/StructureDefinition/mp-MedicationAgreement"/>
            </meta>
            <extension url="http://nictiz.nl/fhir/StructureDefinition/ext-RenderedDosageInstruction">
               <valueString value="Vanaf T - 10 dagen, tot en met T - 5 dagen, 1 maal per dag 1 stuk, oraal"/>
            </extension>
            <extension url="http://nictiz.nl/fhir/StructureDefinition/ext-TimeInterval.Period">
               <valuePeriod>
                  <extension url="http://nictiz.nl/fhir/StructureDefinition/ext-MedicationAgreement.PeriodOfUse.Condition">
                     <valueString value="3 dagen voor opname stoppen"/>
                  </extension>
                  <start value="${DATE, T, D, -10}T00:00:00+02:00"/>
                  <end value="${DATE, T, D, -5}T23:59:59+02:00"/>
               </valuePeriod>
            </extension>
            <extension url="http://nictiz.nl/fhir/StructureDefinition/ext-PharmaceuticalTreatment.Identifier">
               <valueIdentifier>
                  <system value="urn:oid:2.16.840.1.113883.2.4.3.11.999.77.1.1"/>
                  <value value="MBH_200_start_eind"/>
               </valueIdentifier>
            </extension>
            <identifier>
               <system value="urn:oid:2.16.840.1.113883.2.4.3.11.999.77.16076005.1"/>
               <value value="MBH_200_start_eind_MA"/>
            </identifier>
            <status value="unknown"/>
            <intent value="order"/>
            <category>
               <coding>
                  <system value="http://snomed.info/sct"/>
                  <code value="33633005"/>
                  <display value="voorschrijven van geneesmiddel"/>
               </coding>
            </category>
            <medicationReference>
<<<<<<< HEAD:ada_2_fhir-r4/mp/9.2.0/beschikbaarstellen_medicatiegegevens/fhir_instance/mg-mgrp-999900419-ALL.xml
               <reference value="urn:uuid:c33f1eb4-6a95-11ec-0000-020000000000"/>
=======
               <reference value="urn:uuid:c33f0532-6a95-11ec-0000-020000000000"/>
>>>>>>> origin/master:ada_2_fhir-r4/mp/9.2.0/beschikbaarstellen_medicatiegegevens/fhir_instance/mg-mgrp-999900468-ALL.xml
               <type value="Medication"/>
               <display value="METOCLOPRAMIDE TABLET 10MG"/>
            </medicationReference>
            <subject>
<<<<<<< HEAD:ada_2_fhir-r4/mp/9.2.0/beschikbaarstellen_medicatiegegevens/fhir_instance/mg-mgrp-999900419-ALL.xml
               <reference value="urn:uuid:c33f1c20-6a95-11ec-0000-020000000000"/>
=======
               <reference value="urn:uuid:c33f0334-6a95-11ec-0000-020000000000"/>
>>>>>>> origin/master:ada_2_fhir-r4/mp/9.2.0/beschikbaarstellen_medicatiegegevens/fhir_instance/mg-mgrp-999900468-ALL.xml
               <type value="Patient"/>
               <display value="Patient, D. XXX_Dijks"/>
            </subject>
            <authoredOn value="${DATE, T, D, -10}T11:20:00+02:00"/>
            <requester>
<<<<<<< HEAD:ada_2_fhir-r4/mp/9.2.0/beschikbaarstellen_medicatiegegevens/fhir_instance/mg-mgrp-999900419-ALL.xml
               <reference value="urn:uuid:c33f1c48-6a95-11ec-0000-020000000000"/>
=======
               <reference value="urn:uuid:c33f0352-6a95-11ec-0000-020000000000"/>
>>>>>>> origin/master:ada_2_fhir-r4/mp/9.2.0/beschikbaarstellen_medicatiegegevens/fhir_instance/mg-mgrp-999900468-ALL.xml
               <type value="PractitionerRole"/>
               <display value="Healthcare professional (role), Peter van Pulver, Huisartsen, niet nader gespecificeerd, Huisartsenpraktijk Pulver &amp; Partners"/>
            </requester>
            <dosageInstruction>
               <timing>
                  <repeat>
                     <frequency value="1"/>
                     <period value="1"/>
                     <periodUnit value="d"/>
                  </repeat>
               </timing>
               <route>
                  <coding>
                     <system value="urn:oid:2.16.840.1.113883.2.4.4.9"/>
                     <code value="9"/>
                     <display value="oraal"/>
                  </coding>
               </route>
               <doseAndRate>
                  <doseQuantity>
                     <extension url="http://hl7.org/fhir/StructureDefinition/iso21090-PQ-translation">
                        <valueQuantity>
                           <value value="1"/>
                           <unit value="stuk"/>
                           <system value="urn:oid:2.16.840.1.113883.2.4.4.1.900.2"/>
                           <code value="245"/>
                        </valueQuantity>
                     </extension>
                     <value value="1"/>
                     <unit value="stuk"/>
                     <system value="http://unitsofmeasure.org"/>
                     <code value="1"/>
                  </doseQuantity>
               </doseAndRate>
            </dosageInstruction>
         </MedicationRequest>
      </resource>
      <request>
         <method value="POST"/>
         <url value="MedicationRequest"/>
      </request>
   </entry>
   <entry>
<<<<<<< HEAD:ada_2_fhir-r4/mp/9.2.0/beschikbaarstellen_medicatiegegevens/fhir_instance/mg-mgrp-999900419-ALL.xml
      <fullUrl value="urn:uuid:c33f1d2e-6a95-11ec-0000-020000000000"/>
      <resource>
         <MedicationRequest>
            <id value="mp-MedAgr-mp9-21684011138832431199977160760051-MBH200startduurMA"/>
=======
      <fullUrl value="urn:uuid:c33f03ac-6a95-11ec-0000-020000000000"/>
      <resource>
         <MedicationRequest>
>>>>>>> origin/master:ada_2_fhir-r4/mp/9.2.0/beschikbaarstellen_medicatiegegevens/fhir_instance/mg-mgrp-999900468-ALL.xml
            <meta>
               <profile value="http://nictiz.nl/fhir/StructureDefinition/mp-MedicationAgreement"/>
            </meta>
            <extension url="http://nictiz.nl/fhir/StructureDefinition/ext-RenderedDosageInstruction">
               <valueString value="Vanaf T - 20 dagen, gedurende 3 weken, 1 maal per dag 1 stuk, oraal"/>
            </extension>
            <extension url="http://nictiz.nl/fhir/StructureDefinition/ext-TimeInterval.Period">
               <valuePeriod>
                  <extension url="http://nictiz.nl/fhir/StructureDefinition/ext-TimeInterval.Duration">
                     <valueDuration>
                        <value value="3"/>
                        <unit value="week"/>
                        <system value="http://unitsofmeasure.org"/>
                        <code value="wk"/>
                     </valueDuration>
                  </extension>
                  <start value="${DATE, T, D, -20}T00:00:00+02:00"/>
               </valuePeriod>
            </extension>
            <extension url="http://nictiz.nl/fhir/StructureDefinition/ext-PharmaceuticalTreatment.Identifier">
               <valueIdentifier>
                  <system value="urn:oid:2.16.840.1.113883.2.4.3.11.999.77.1.1"/>
                  <value value="MBH_200_start_duur"/>
               </valueIdentifier>
            </extension>
            <identifier>
               <system value="urn:oid:2.16.840.1.113883.2.4.3.11.999.77.16076005.1"/>
               <value value="MBH_200_start_duur_MA"/>
            </identifier>
            <status value="unknown"/>
            <intent value="order"/>
            <category>
               <coding>
                  <system value="http://snomed.info/sct"/>
                  <code value="33633005"/>
                  <display value="voorschrijven van geneesmiddel"/>
               </coding>
            </category>
            <medicationReference>
<<<<<<< HEAD:ada_2_fhir-r4/mp/9.2.0/beschikbaarstellen_medicatiegegevens/fhir_instance/mg-mgrp-999900419-ALL.xml
               <reference value="urn:uuid:c33f1ef0-6a95-11ec-0000-020000000000"/>
=======
               <reference value="urn:uuid:c33f056e-6a95-11ec-0000-020000000000"/>
>>>>>>> origin/master:ada_2_fhir-r4/mp/9.2.0/beschikbaarstellen_medicatiegegevens/fhir_instance/mg-mgrp-999900468-ALL.xml
               <type value="Medication"/>
               <display value="LISINOPRIL 10MG TABLET"/>
            </medicationReference>
            <subject>
<<<<<<< HEAD:ada_2_fhir-r4/mp/9.2.0/beschikbaarstellen_medicatiegegevens/fhir_instance/mg-mgrp-999900419-ALL.xml
               <reference value="urn:uuid:c33f1c20-6a95-11ec-0000-020000000000"/>
=======
               <reference value="urn:uuid:c33f0334-6a95-11ec-0000-020000000000"/>
>>>>>>> origin/master:ada_2_fhir-r4/mp/9.2.0/beschikbaarstellen_medicatiegegevens/fhir_instance/mg-mgrp-999900468-ALL.xml
               <type value="Patient"/>
               <display value="Patient, D. XXX_Dijks"/>
            </subject>
            <authoredOn value="${DATE, T, D, -20}T11:30:00+02:00"/>
            <requester>
<<<<<<< HEAD:ada_2_fhir-r4/mp/9.2.0/beschikbaarstellen_medicatiegegevens/fhir_instance/mg-mgrp-999900419-ALL.xml
               <reference value="urn:uuid:c33f1c48-6a95-11ec-0000-020000000000"/>
=======
               <reference value="urn:uuid:c33f0352-6a95-11ec-0000-020000000000"/>
>>>>>>> origin/master:ada_2_fhir-r4/mp/9.2.0/beschikbaarstellen_medicatiegegevens/fhir_instance/mg-mgrp-999900468-ALL.xml
               <type value="PractitionerRole"/>
               <display value="Healthcare professional (role), Peter van Pulver, Huisartsen, niet nader gespecificeerd, Huisartsenpraktijk Pulver &amp; Partners"/>
            </requester>
            <dosageInstruction>
               <timing>
                  <repeat>
                     <frequency value="1"/>
                     <period value="1"/>
                     <periodUnit value="d"/>
                  </repeat>
               </timing>
               <route>
                  <coding>
                     <system value="urn:oid:2.16.840.1.113883.2.4.4.9"/>
                     <code value="9"/>
                     <display value="oraal"/>
                  </coding>
               </route>
               <doseAndRate>
                  <doseQuantity>
                     <extension url="http://hl7.org/fhir/StructureDefinition/iso21090-PQ-translation">
                        <valueQuantity>
                           <value value="1"/>
                           <unit value="stuk"/>
                           <system value="urn:oid:2.16.840.1.113883.2.4.4.1.900.2"/>
                           <code value="245"/>
                        </valueQuantity>
                     </extension>
                     <value value="1"/>
                     <unit value="stuk"/>
                     <system value="http://unitsofmeasure.org"/>
                     <code value="1"/>
                  </doseQuantity>
               </doseAndRate>
            </dosageInstruction>
         </MedicationRequest>
      </resource>
      <request>
         <method value="POST"/>
         <url value="MedicationRequest"/>
      </request>
   </entry>
   <entry>
<<<<<<< HEAD:ada_2_fhir-r4/mp/9.2.0/beschikbaarstellen_medicatiegegevens/fhir_instance/mg-mgrp-999900419-ALL.xml
      <fullUrl value="urn:uuid:c33f1d4c-6a95-11ec-0000-020000000000"/>
      <resource>
         <MedicationRequest>
            <id value="mp-MedAgr-mp9-21684011138832431199977160760051-MBH200chronischMA"/>
=======
      <fullUrl value="urn:uuid:c33f03ca-6a95-11ec-0000-020000000000"/>
      <resource>
         <MedicationRequest>
>>>>>>> origin/master:ada_2_fhir-r4/mp/9.2.0/beschikbaarstellen_medicatiegegevens/fhir_instance/mg-mgrp-999900468-ALL.xml
            <meta>
               <profile value="http://nictiz.nl/fhir/StructureDefinition/mp-MedicationAgreement"/>
            </meta>
            <extension url="http://nictiz.nl/fhir/StructureDefinition/ext-RenderedDosageInstruction">
               <valueString value="Vanaf T - 30 dagen, 1 maal per dag 1 stuk, oraal"/>
            </extension>
            <extension url="http://nictiz.nl/fhir/StructureDefinition/ext-TimeInterval.Period">
               <valuePeriod>
                  <start value="${DATE, T, D, -30}T00:00:00+02:00"/>
               </valuePeriod>
            </extension>
            <extension url="http://nictiz.nl/fhir/StructureDefinition/ext-PharmaceuticalTreatment.Identifier">
               <valueIdentifier>
                  <system value="urn:oid:2.16.840.1.113883.2.4.3.11.999.77.1.1"/>
                  <value value="MBH_200_chronisch"/>
               </valueIdentifier>
            </extension>
            <identifier>
               <system value="urn:oid:2.16.840.1.113883.2.4.3.11.999.77.16076005.1"/>
               <value value="MBH_200_chronisch_MA"/>
            </identifier>
            <status value="unknown"/>
            <intent value="order"/>
            <category>
               <coding>
                  <system value="http://snomed.info/sct"/>
                  <code value="33633005"/>
                  <display value="voorschrijven van geneesmiddel"/>
               </coding>
            </category>
            <medicationReference>
<<<<<<< HEAD:ada_2_fhir-r4/mp/9.2.0/beschikbaarstellen_medicatiegegevens/fhir_instance/mg-mgrp-999900419-ALL.xml
               <reference value="urn:uuid:c33f1f2c-6a95-11ec-0000-020000000000"/>
=======
               <reference value="urn:uuid:c33f05aa-6a95-11ec-0000-020000000000"/>
>>>>>>> origin/master:ada_2_fhir-r4/mp/9.2.0/beschikbaarstellen_medicatiegegevens/fhir_instance/mg-mgrp-999900468-ALL.xml
               <type value="Medication"/>
               <display value="ACETYLSALICYLZUUR/PARACETAMOL/COF TAB 250/250/50MG"/>
            </medicationReference>
            <subject>
<<<<<<< HEAD:ada_2_fhir-r4/mp/9.2.0/beschikbaarstellen_medicatiegegevens/fhir_instance/mg-mgrp-999900419-ALL.xml
               <reference value="urn:uuid:c33f1c20-6a95-11ec-0000-020000000000"/>
=======
               <reference value="urn:uuid:c33f0334-6a95-11ec-0000-020000000000"/>
>>>>>>> origin/master:ada_2_fhir-r4/mp/9.2.0/beschikbaarstellen_medicatiegegevens/fhir_instance/mg-mgrp-999900468-ALL.xml
               <type value="Patient"/>
               <display value="Patient, D. XXX_Dijks"/>
            </subject>
            <authoredOn value="${DATE, T, D, -30}T11:32:00+02:00"/>
            <requester>
<<<<<<< HEAD:ada_2_fhir-r4/mp/9.2.0/beschikbaarstellen_medicatiegegevens/fhir_instance/mg-mgrp-999900419-ALL.xml
               <reference value="urn:uuid:c33f1c48-6a95-11ec-0000-020000000000"/>
=======
               <reference value="urn:uuid:c33f0352-6a95-11ec-0000-020000000000"/>
>>>>>>> origin/master:ada_2_fhir-r4/mp/9.2.0/beschikbaarstellen_medicatiegegevens/fhir_instance/mg-mgrp-999900468-ALL.xml
               <type value="PractitionerRole"/>
               <display value="Healthcare professional (role), Peter van Pulver, Huisartsen, niet nader gespecificeerd, Huisartsenpraktijk Pulver &amp; Partners"/>
            </requester>
            <dosageInstruction>
               <timing>
                  <repeat>
                     <frequency value="1"/>
                     <period value="1"/>
                     <periodUnit value="d"/>
                  </repeat>
               </timing>
               <route>
                  <coding>
                     <system value="urn:oid:2.16.840.1.113883.2.4.4.9"/>
                     <code value="9"/>
                     <display value="oraal"/>
                  </coding>
               </route>
               <doseAndRate>
                  <doseQuantity>
                     <extension url="http://hl7.org/fhir/StructureDefinition/iso21090-PQ-translation">
                        <valueQuantity>
                           <value value="1"/>
                           <unit value="stuk"/>
                           <system value="urn:oid:2.16.840.1.113883.2.4.4.1.900.2"/>
                           <code value="245"/>
                        </valueQuantity>
                     </extension>
                     <value value="1"/>
                     <unit value="stuk"/>
                     <system value="http://unitsofmeasure.org"/>
                     <code value="1"/>
                  </doseQuantity>
               </doseAndRate>
            </dosageInstruction>
         </MedicationRequest>
      </resource>
      <request>
         <method value="POST"/>
         <url value="MedicationRequest"/>
      </request>
   </entry>
   <entry>
<<<<<<< HEAD:ada_2_fhir-r4/mp/9.2.0/beschikbaarstellen_medicatiegegevens/fhir_instance/mg-mgrp-999900419-ALL.xml
      <fullUrl value="urn:uuid:c33f1d6a-6a95-11ec-0000-020000000000"/>
      <resource>
         <MedicationRequest>
            <id value="p-MedAgr-mp9-21684011138832431199977160760051-MBH200startduur2MA"/>
=======
      <fullUrl value="urn:uuid:c33f03e8-6a95-11ec-0000-020000000000"/>
      <resource>
         <MedicationRequest>
>>>>>>> origin/master:ada_2_fhir-r4/mp/9.2.0/beschikbaarstellen_medicatiegegevens/fhir_instance/mg-mgrp-999900468-ALL.xml
            <meta>
               <profile value="http://nictiz.nl/fhir/StructureDefinition/mp-MedicationAgreement"/>
            </meta>
            <extension url="http://nictiz.nl/fhir/StructureDefinition/ext-RenderedDosageInstruction">
               <valueString value="Vanaf T - 60 dagen, gedurende 28 dagen, 1 maal per dag 1 stuk, oraal"/>
            </extension>
            <extension url="http://nictiz.nl/fhir/StructureDefinition/ext-TimeInterval.Period">
               <valuePeriod>
                  <extension url="http://nictiz.nl/fhir/StructureDefinition/ext-TimeInterval.Duration">
                     <valueDuration>
                        <value value="28"/>
                        <unit value="dag"/>
                        <system value="http://unitsofmeasure.org"/>
                        <code value="d"/>
                     </valueDuration>
                  </extension>
                  <start value="${DATE, T, D, -60}T00:00:00+02:00"/>
               </valuePeriod>
            </extension>
            <extension url="http://nictiz.nl/fhir/StructureDefinition/ext-PharmaceuticalTreatment.Identifier">
               <valueIdentifier>
                  <system value="urn:oid:2.16.840.1.113883.2.4.3.11.999.77.1.1"/>
                  <value value="MBH_200_start_duur2"/>
               </valueIdentifier>
            </extension>
            <identifier>
               <system value="urn:oid:2.16.840.1.113883.2.4.3.11.999.77.16076005.1"/>
               <value value="MBH_200_start_duur2_MA"/>
            </identifier>
            <status value="unknown"/>
            <intent value="order"/>
            <category>
               <coding>
                  <system value="http://snomed.info/sct"/>
                  <code value="33633005"/>
                  <display value="voorschrijven van geneesmiddel"/>
               </coding>
            </category>
            <medicationReference>
<<<<<<< HEAD:ada_2_fhir-r4/mp/9.2.0/beschikbaarstellen_medicatiegegevens/fhir_instance/mg-mgrp-999900419-ALL.xml
               <reference value="urn:uuid:c33f1f68-6a95-11ec-0000-020000000000"/>
=======
               <reference value="urn:uuid:c33f05e6-6a95-11ec-0000-020000000000"/>
>>>>>>> origin/master:ada_2_fhir-r4/mp/9.2.0/beschikbaarstellen_medicatiegegevens/fhir_instance/mg-mgrp-999900468-ALL.xml
               <type value="Medication"/>
               <display value="PANTOPRAZOL TABLET MSR 20MG"/>
            </medicationReference>
            <subject>
<<<<<<< HEAD:ada_2_fhir-r4/mp/9.2.0/beschikbaarstellen_medicatiegegevens/fhir_instance/mg-mgrp-999900419-ALL.xml
               <reference value="urn:uuid:c33f1c20-6a95-11ec-0000-020000000000"/>
=======
               <reference value="urn:uuid:c33f0334-6a95-11ec-0000-020000000000"/>
>>>>>>> origin/master:ada_2_fhir-r4/mp/9.2.0/beschikbaarstellen_medicatiegegevens/fhir_instance/mg-mgrp-999900468-ALL.xml
               <type value="Patient"/>
               <display value="Patient, D. XXX_Dijks"/>
            </subject>
            <authoredOn value="${DATE, T, D, -60}T11:30:00+02:00"/>
            <requester>
<<<<<<< HEAD:ada_2_fhir-r4/mp/9.2.0/beschikbaarstellen_medicatiegegevens/fhir_instance/mg-mgrp-999900419-ALL.xml
               <reference value="urn:uuid:c33f1c48-6a95-11ec-0000-020000000000"/>
=======
               <reference value="urn:uuid:c33f0352-6a95-11ec-0000-020000000000"/>
>>>>>>> origin/master:ada_2_fhir-r4/mp/9.2.0/beschikbaarstellen_medicatiegegevens/fhir_instance/mg-mgrp-999900468-ALL.xml
               <type value="PractitionerRole"/>
               <display value="Healthcare professional (role), Peter van Pulver, Huisartsen, niet nader gespecificeerd, Huisartsenpraktijk Pulver &amp; Partners"/>
            </requester>
            <dosageInstruction>
               <timing>
                  <repeat>
                     <frequency value="1"/>
                     <period value="1"/>
                     <periodUnit value="d"/>
                  </repeat>
               </timing>
               <route>
                  <coding>
                     <system value="urn:oid:2.16.840.1.113883.2.4.4.9"/>
                     <code value="9"/>
                     <display value="oraal"/>
                  </coding>
               </route>
               <doseAndRate>
                  <doseQuantity>
                     <extension url="http://hl7.org/fhir/StructureDefinition/iso21090-PQ-translation">
                        <valueQuantity>
                           <value value="1"/>
                           <unit value="stuk"/>
                           <system value="urn:oid:2.16.840.1.113883.2.4.4.1.900.2"/>
                           <code value="245"/>
                        </valueQuantity>
                     </extension>
                     <value value="1"/>
                     <unit value="stuk"/>
                     <system value="http://unitsofmeasure.org"/>
                     <code value="1"/>
                  </doseQuantity>
               </doseAndRate>
            </dosageInstruction>
         </MedicationRequest>
      </resource>
      <request>
         <method value="POST"/>
         <url value="MedicationRequest"/>
      </request>
   </entry>
   <entry>
<<<<<<< HEAD:ada_2_fhir-r4/mp/9.2.0/beschikbaarstellen_medicatiegegevens/fhir_instance/mg-mgrp-999900419-ALL.xml
      <fullUrl value="urn:uuid:c33f1d88-6a95-11ec-0000-020000000000"/>
      <resource>
         <MedicationRequest>
            <id value="p-MedAgr-mp9-21684011138832431199977160760051-MBH200dosisstuksMA"/>
=======
      <fullUrl value="urn:uuid:c33f0406-6a95-11ec-0000-020000000000"/>
      <resource>
         <MedicationRequest>
>>>>>>> origin/master:ada_2_fhir-r4/mp/9.2.0/beschikbaarstellen_medicatiegegevens/fhir_instance/mg-mgrp-999900468-ALL.xml
            <meta>
               <profile value="http://nictiz.nl/fhir/StructureDefinition/mp-MedicationAgreement"/>
            </meta>
            <extension url="http://nictiz.nl/fhir/StructureDefinition/ext-RenderedDosageInstruction">
               <valueString value="Vanaf T - 130 dagen, tot en met T - 101 dagen, 2 maal per dag 1 dosis, inhalatie"/>
            </extension>
            <extension url="http://nictiz.nl/fhir/StructureDefinition/ext-TimeInterval.Period">
               <valuePeriod>
                  <start value="${DATE, T, D, -130}T00:00:00+02:00"/>
                  <end value="${DATE, T, D, -101}T23:59:59+02:00"/>
               </valuePeriod>
            </extension>
            <extension url="http://nictiz.nl/fhir/StructureDefinition/ext-PharmaceuticalTreatment.Identifier">
               <valueIdentifier>
                  <system value="urn:oid:2.16.840.1.113883.2.4.3.11.999.77.1.1"/>
                  <value value="MBH_200_dosis_stuks"/>
               </valueIdentifier>
            </extension>
            <identifier>
               <system value="urn:oid:2.16.840.1.113883.2.4.3.11.999.77.16076005.1"/>
               <value value="MBH_200_dosis_stuks_MA"/>
            </identifier>
            <status value="unknown"/>
            <intent value="order"/>
            <category>
               <coding>
                  <system value="http://snomed.info/sct"/>
                  <code value="33633005"/>
                  <display value="voorschrijven van geneesmiddel"/>
               </coding>
            </category>
            <medicationReference>
<<<<<<< HEAD:ada_2_fhir-r4/mp/9.2.0/beschikbaarstellen_medicatiegegevens/fhir_instance/mg-mgrp-999900419-ALL.xml
               <reference value="urn:uuid:c33f1fa4-6a95-11ec-0000-020000000000"/>
=======
               <reference value="urn:uuid:c33f0622-6a95-11ec-0000-020000000000"/>
>>>>>>> origin/master:ada_2_fhir-r4/mp/9.2.0/beschikbaarstellen_medicatiegegevens/fhir_instance/mg-mgrp-999900468-ALL.xml
               <type value="Medication"/>
               <display value="FLUTICASON INHALATIEPOEDER 100UG/DO 60DO DISKUS"/>
            </medicationReference>
            <subject>
<<<<<<< HEAD:ada_2_fhir-r4/mp/9.2.0/beschikbaarstellen_medicatiegegevens/fhir_instance/mg-mgrp-999900419-ALL.xml
               <reference value="urn:uuid:c33f1c20-6a95-11ec-0000-020000000000"/>
=======
               <reference value="urn:uuid:c33f0334-6a95-11ec-0000-020000000000"/>
>>>>>>> origin/master:ada_2_fhir-r4/mp/9.2.0/beschikbaarstellen_medicatiegegevens/fhir_instance/mg-mgrp-999900468-ALL.xml
               <type value="Patient"/>
               <display value="Patient, D. XXX_Dijks"/>
            </subject>
            <authoredOn value="${DATE, T, D, -130}T11:35:00+02:00"/>
            <requester>
<<<<<<< HEAD:ada_2_fhir-r4/mp/9.2.0/beschikbaarstellen_medicatiegegevens/fhir_instance/mg-mgrp-999900419-ALL.xml
               <reference value="urn:uuid:c33f1c48-6a95-11ec-0000-020000000000"/>
=======
               <reference value="urn:uuid:c33f0352-6a95-11ec-0000-020000000000"/>
>>>>>>> origin/master:ada_2_fhir-r4/mp/9.2.0/beschikbaarstellen_medicatiegegevens/fhir_instance/mg-mgrp-999900468-ALL.xml
               <type value="PractitionerRole"/>
               <display value="Healthcare professional (role), Peter van Pulver, Huisartsen, niet nader gespecificeerd, Huisartsenpraktijk Pulver &amp; Partners"/>
            </requester>
            <dosageInstruction>
               <timing>
                  <repeat>
                     <frequency value="2"/>
                     <period value="1"/>
                     <periodUnit value="d"/>
                  </repeat>
               </timing>
               <route>
                  <coding>
                     <system value="urn:oid:2.16.840.1.113883.2.4.4.9"/>
                     <code value="62"/>
                     <display value="inhalatie"/>
                  </coding>
               </route>
               <doseAndRate>
                  <doseQuantity>
                     <extension url="http://hl7.org/fhir/StructureDefinition/iso21090-PQ-translation">
                        <valueQuantity>
                           <value value="1"/>
                           <unit value="dosis"/>
                           <system value="urn:oid:2.16.840.1.113883.2.4.4.1.900.2"/>
                           <code value="208"/>
                        </valueQuantity>
                     </extension>
                     <value value="1"/>
                     <unit value="dosis"/>
                     <system value="http://unitsofmeasure.org"/>
                     <code value="1"/>
                  </doseQuantity>
               </doseAndRate>
            </dosageInstruction>
         </MedicationRequest>
      </resource>
      <request>
         <method value="POST"/>
         <url value="MedicationRequest"/>
      </request>
   </entry>
   <entry>
<<<<<<< HEAD:ada_2_fhir-r4/mp/9.2.0/beschikbaarstellen_medicatiegegevens/fhir_instance/mg-mgrp-999900419-ALL.xml
      <fullUrl value="urn:uuid:c33f1e3c-6a95-11ec-0000-020000000000"/>
      <resource>
         <MedicationRequest>
            <id value="Req-mp9-21684011138832431199977527110001461081-MBH200chronischVV"/>
=======
      <fullUrl value="urn:uuid:c33f04ba-6a95-11ec-0000-020000000000"/>
      <resource>
         <MedicationRequest>
>>>>>>> origin/master:ada_2_fhir-r4/mp/9.2.0/beschikbaarstellen_medicatiegegevens/fhir_instance/mg-mgrp-999900468-ALL.xml
            <meta>
               <profile value="http://nictiz.nl/fhir/StructureDefinition/mp-DispenseRequest"/>
            </meta>
            <extension url="http://nictiz.nl/fhir/StructureDefinition/ext-PharmaceuticalTreatment.Identifier">
               <valueIdentifier>
                  <system value="urn:oid:2.16.840.1.113883.2.4.3.11.999.77.1.1"/>
                  <value value="MBH_200_chronisch"/>
               </valueIdentifier>
            </extension>
            <identifier>
               <system value="urn:oid:2.16.840.1.113883.2.4.3.11.999.77.52711000146108.1"/>
               <value value="MBH_200_chronisch_VV"/>
            </identifier>
            <status value="unknown"/>
            <intent value="order"/>
            <category>
               <coding>
                  <system value="http://snomed.info/sct"/>
                  <code value="52711000146108"/>
                  <display value="verstrekkingsverzoek"/>
               </coding>
            </category>
            <medicationReference>
<<<<<<< HEAD:ada_2_fhir-r4/mp/9.2.0/beschikbaarstellen_medicatiegegevens/fhir_instance/mg-mgrp-999900419-ALL.xml
               <reference value="urn:uuid:c33f1f2c-6a95-11ec-0000-020000000000"/>
=======
               <reference value="urn:uuid:c33f05aa-6a95-11ec-0000-020000000000"/>
>>>>>>> origin/master:ada_2_fhir-r4/mp/9.2.0/beschikbaarstellen_medicatiegegevens/fhir_instance/mg-mgrp-999900468-ALL.xml
               <type value="Medication"/>
               <display value="ACETYLSALICYLZUUR/PARACETAMOL/COF TAB 250/250/50MG"/>
            </medicationReference>
            <subject>
<<<<<<< HEAD:ada_2_fhir-r4/mp/9.2.0/beschikbaarstellen_medicatiegegevens/fhir_instance/mg-mgrp-999900419-ALL.xml
               <reference value="urn:uuid:c33f1c20-6a95-11ec-0000-020000000000"/>
=======
               <reference value="urn:uuid:c33f0334-6a95-11ec-0000-020000000000"/>
>>>>>>> origin/master:ada_2_fhir-r4/mp/9.2.0/beschikbaarstellen_medicatiegegevens/fhir_instance/mg-mgrp-999900468-ALL.xml
               <type value="Patient"/>
               <display value="Patient, D. XXX_Dijks"/>
            </subject>
            <authoredOn value="${DATE, T, D, -30}T11:32:00+02:00"/>
            <requester>
<<<<<<< HEAD:ada_2_fhir-r4/mp/9.2.0/beschikbaarstellen_medicatiegegevens/fhir_instance/mg-mgrp-999900419-ALL.xml
               <reference value="urn:uuid:c33f1c48-6a95-11ec-0000-020000000000"/>
=======
               <reference value="urn:uuid:c33f0352-6a95-11ec-0000-020000000000"/>
>>>>>>> origin/master:ada_2_fhir-r4/mp/9.2.0/beschikbaarstellen_medicatiegegevens/fhir_instance/mg-mgrp-999900468-ALL.xml
               <type value="PractitionerRole"/>
               <display value="Healthcare professional (role), Peter van Pulver, Huisartsen, niet nader gespecificeerd, Huisartsenpraktijk Pulver &amp; Partners"/>
            </requester>
            <performer>
<<<<<<< HEAD:ada_2_fhir-r4/mp/9.2.0/beschikbaarstellen_medicatiegegevens/fhir_instance/mg-mgrp-999900419-ALL.xml
               <reference value="urn:uuid:c33f1cd4-6a95-11ec-0000-020000000000"/>
=======
               <reference value="urn:uuid:c33f069a-6a95-11ec-0000-020000000000"/>
>>>>>>> origin/master:ada_2_fhir-r4/mp/9.2.0/beschikbaarstellen_medicatiegegevens/fhir_instance/mg-mgrp-999900468-ALL.xml
               <type value="Organization"/>
               <display value="Healthcare provider (organization), Apotheek De Gulle Gaper"/>
            </performer>
            <basedOn>
               <type value="MedicationRequest"/>
               <identifier>
                  <system value="urn:oid:2.16.840.1.113883.2.4.3.11.999.77.16076005.1"/>
                  <value value="MBH_200_chronisch_MA"/>
               </identifier>
               <display value="relatie naar medicatieafspraak  met identificatie: MBH_200_chronisch_MA || 2.16.840.1.113883.2.4.3.11.999.77.16076005.1"/>
            </basedOn>
            <dispenseRequest>
               <quantity>
                  <extension url="http://hl7.org/fhir/StructureDefinition/iso21090-PQ-translation">
                     <valueQuantity>
                        <value value="21"/>
                        <unit value="stuk"/>
                        <system value="urn:oid:2.16.840.1.113883.2.4.4.1.900.2"/>
                        <code value="245"/>
                     </valueQuantity>
                  </extension>
                  <value value="21"/>
                  <unit value="stuk"/>
                  <system value="http://unitsofmeasure.org"/>
                  <code value="1"/>
               </quantity>
            </dispenseRequest>
         </MedicationRequest>
      </resource>
      <request>
         <method value="POST"/>
         <url value="MedicationRequest"/>
      </request>
   </entry>
   <entry>
<<<<<<< HEAD:ada_2_fhir-r4/mp/9.2.0/beschikbaarstellen_medicatiegegevens/fhir_instance/mg-mgrp-999900419-ALL.xml
      <fullUrl value="urn:uuid:c33f1e5a-6a95-11ec-0000-020000000000"/>
      <resource>
         <MedicationRequest>
            <id value="mp-DspReq-mp9-c33f1bfc-6a95-11ec-0000-020000000000"/>
=======
      <fullUrl value="urn:uuid:c33f04d8-6a95-11ec-0000-020000000000"/>
      <resource>
         <MedicationRequest>
>>>>>>> origin/master:ada_2_fhir-r4/mp/9.2.0/beschikbaarstellen_medicatiegegevens/fhir_instance/mg-mgrp-999900468-ALL.xml
            <meta>
               <profile value="http://nictiz.nl/fhir/StructureDefinition/mp-DispenseRequest"/>
            </meta>
            <extension url="http://nictiz.nl/fhir/StructureDefinition/ext-PharmaceuticalTreatment.Identifier">
               <valueIdentifier>
                  <system value="urn:oid:2.16.840.1.113883.2.4.3.11.999.77.1.1"/>
                  <value value="MBH_200_chronisch"/>
               </valueIdentifier>
            </extension>
            <identifier>
               <system value="urn:oid:2.16.840.1.113883.2.4.3.11.999.77.52711000146108.1"/>
               <value value="MBH_200_chronisch_VV_extraVVbestaandeMA"/>
            </identifier>
            <status value="unknown"/>
            <intent value="order"/>
            <category>
               <coding>
                  <system value="http://snomed.info/sct"/>
                  <code value="52711000146108"/>
                  <display value="verstrekkingsverzoek"/>
               </coding>
            </category>
            <medicationReference>
<<<<<<< HEAD:ada_2_fhir-r4/mp/9.2.0/beschikbaarstellen_medicatiegegevens/fhir_instance/mg-mgrp-999900419-ALL.xml
               <reference value="urn:uuid:c33f1f2c-6a95-11ec-0000-020000000000"/>
=======
               <reference value="urn:uuid:c33f05aa-6a95-11ec-0000-020000000000"/>
>>>>>>> origin/master:ada_2_fhir-r4/mp/9.2.0/beschikbaarstellen_medicatiegegevens/fhir_instance/mg-mgrp-999900468-ALL.xml
               <type value="Medication"/>
               <display value="ACETYLSALICYLZUUR/PARACETAMOL/COF TAB 250/250/50MG"/>
            </medicationReference>
            <subject>
<<<<<<< HEAD:ada_2_fhir-r4/mp/9.2.0/beschikbaarstellen_medicatiegegevens/fhir_instance/mg-mgrp-999900419-ALL.xml
               <reference value="urn:uuid:c33f1c20-6a95-11ec-0000-020000000000"/>
=======
               <reference value="urn:uuid:c33f0334-6a95-11ec-0000-020000000000"/>
>>>>>>> origin/master:ada_2_fhir-r4/mp/9.2.0/beschikbaarstellen_medicatiegegevens/fhir_instance/mg-mgrp-999900468-ALL.xml
               <type value="Patient"/>
               <display value="Patient, D. XXX_Dijks"/>
            </subject>
            <authoredOn value="${DATE, T, D, -10}T11:35:00+02:00"/>
            <requester>
<<<<<<< HEAD:ada_2_fhir-r4/mp/9.2.0/beschikbaarstellen_medicatiegegevens/fhir_instance/mg-mgrp-999900419-ALL.xml
               <reference value="urn:uuid:c33f1c48-6a95-11ec-0000-020000000000"/>
=======
               <reference value="urn:uuid:c33f0352-6a95-11ec-0000-020000000000"/>
>>>>>>> origin/master:ada_2_fhir-r4/mp/9.2.0/beschikbaarstellen_medicatiegegevens/fhir_instance/mg-mgrp-999900468-ALL.xml
               <type value="PractitionerRole"/>
               <display value="Healthcare professional (role), Peter van Pulver, Huisartsen, niet nader gespecificeerd, Huisartsenpraktijk Pulver &amp; Partners"/>
            </requester>
            <performer>
<<<<<<< HEAD:ada_2_fhir-r4/mp/9.2.0/beschikbaarstellen_medicatiegegevens/fhir_instance/mg-mgrp-999900419-ALL.xml
               <reference value="urn:uuid:c33f1cd4-6a95-11ec-0000-020000000000"/>
=======
               <reference value="urn:uuid:c33f069a-6a95-11ec-0000-020000000000"/>
>>>>>>> origin/master:ada_2_fhir-r4/mp/9.2.0/beschikbaarstellen_medicatiegegevens/fhir_instance/mg-mgrp-999900468-ALL.xml
               <type value="Organization"/>
               <display value="Healthcare provider (organization), Apotheek De Gulle Gaper"/>
            </performer>
            <basedOn>
               <type value="MedicationRequest"/>
               <identifier>
                  <system value="urn:oid:2.16.840.1.113883.2.4.3.11.999.77.16076005.1"/>
                  <value value="MBH_200_chronisch_MA"/>
               </identifier>
               <display value="relatie naar medicatieafspraak  met identificatie: MBH_200_chronisch_MA || 2.16.840.1.113883.2.4.3.11.999.77.16076005.1"/>
            </basedOn>
            <dispenseRequest>
               <quantity>
                  <extension url="http://hl7.org/fhir/StructureDefinition/iso21090-PQ-translation">
                     <valueQuantity>
                        <value value="90"/>
                        <unit value="stuk"/>
                        <system value="urn:oid:2.16.840.1.113883.2.4.4.1.900.2"/>
                        <code value="245"/>
                     </valueQuantity>
                  </extension>
                  <value value="90"/>
                  <unit value="stuk"/>
                  <system value="http://unitsofmeasure.org"/>
                  <code value="1"/>
               </quantity>
            </dispenseRequest>
         </MedicationRequest>
      </resource>
      <request>
         <method value="POST"/>
         <url value="MedicationRequest"/>
      </request>
   </entry>
   <entry>
<<<<<<< HEAD:ada_2_fhir-r4/mp/9.2.0/beschikbaarstellen_medicatiegegevens/fhir_instance/mg-mgrp-999900419-ALL.xml
      <fullUrl value="urn:uuid:c33f1da6-6a95-11ec-0000-020000000000"/>
      <resource>
         <MedicationDispense>
            <id value="p-AdmAgr-mp9-216840111388324311999774220370091-MBH200starteindTA"/>
=======
      <fullUrl value="urn:uuid:c33f0424-6a95-11ec-0000-020000000000"/>
      <resource>
         <MedicationDispense>
>>>>>>> origin/master:ada_2_fhir-r4/mp/9.2.0/beschikbaarstellen_medicatiegegevens/fhir_instance/mg-mgrp-999900468-ALL.xml
            <meta>
               <profile value="http://nictiz.nl/fhir/StructureDefinition/mp-AdministrationAgreement"/>
            </meta>
            <extension url="http://nictiz.nl/fhir/StructureDefinition/ext-AdministrationAgreement.AdministrationAgreementDateTime">
               <valueDateTime value="${DATE, T, D, -10}T12:20:00+02:00"/>
            </extension>
            <extension url="http://nictiz.nl/fhir/StructureDefinition/ext-RenderedDosageInstruction">
               <valueString value="Vanaf T - 10 dagen, tot en met T - 5 dagen, 1 maal per dag 1 stuk, Oraal"/>
            </extension>
            <extension url="http://nictiz.nl/fhir/StructureDefinition/ext-TimeInterval.Period">
               <valuePeriod>
                  <start value="${DATE, T, D, -10}T00:00:00+02:00"/>
                  <end value="${DATE, T, D, -5}T23:59:59+02:00"/>
               </valuePeriod>
            </extension>
            <extension url="http://nictiz.nl/fhir/StructureDefinition/ext-PharmaceuticalTreatment.Identifier">
               <valueIdentifier>
                  <system value="urn:oid:2.16.840.1.113883.2.4.3.11.999.77.1.1"/>
                  <value value="MBH_200_start_eind"/>
               </valueIdentifier>
            </extension>
            <identifier>
               <system value="urn:oid:2.16.840.1.113883.2.4.3.11.999.77.422037009.1"/>
               <value value="MBH_200_start_eind_TA"/>
            </identifier>
            <status value="unknown"/>
            <category>
               <coding>
                  <system value="http://snomed.info/sct"/>
                  <code value="422037009"/>
                  <display value="toedieningsafspraak"/>
               </coding>
            </category>
            <medicationReference>
<<<<<<< HEAD:ada_2_fhir-r4/mp/9.2.0/beschikbaarstellen_medicatiegegevens/fhir_instance/mg-mgrp-999900419-ALL.xml
               <reference value="urn:uuid:c33f1ed2-6a95-11ec-0000-020000000000"/>
=======
               <reference value="urn:uuid:c33f0550-6a95-11ec-0000-020000000000"/>
>>>>>>> origin/master:ada_2_fhir-r4/mp/9.2.0/beschikbaarstellen_medicatiegegevens/fhir_instance/mg-mgrp-999900468-ALL.xml
               <type value="Medication"/>
               <display value="METOCLOPRAMIDE HCL PCH TABLET 10MG"/>
            </medicationReference>
            <subject>
<<<<<<< HEAD:ada_2_fhir-r4/mp/9.2.0/beschikbaarstellen_medicatiegegevens/fhir_instance/mg-mgrp-999900419-ALL.xml
               <reference value="urn:uuid:c33f1c20-6a95-11ec-0000-020000000000"/>
=======
               <reference value="urn:uuid:c33f0334-6a95-11ec-0000-020000000000"/>
>>>>>>> origin/master:ada_2_fhir-r4/mp/9.2.0/beschikbaarstellen_medicatiegegevens/fhir_instance/mg-mgrp-999900468-ALL.xml
               <type value="Patient"/>
               <display value="Patient, D. XXX_Dijks"/>
            </subject>
            <performer>
               <actor>
<<<<<<< HEAD:ada_2_fhir-r4/mp/9.2.0/beschikbaarstellen_medicatiegegevens/fhir_instance/mg-mgrp-999900419-ALL.xml
                  <reference value="urn:uuid:c33f1cd4-6a95-11ec-0000-020000000000"/>
=======
                  <reference value="urn:uuid:c33f069a-6a95-11ec-0000-020000000000"/>
>>>>>>> origin/master:ada_2_fhir-r4/mp/9.2.0/beschikbaarstellen_medicatiegegevens/fhir_instance/mg-mgrp-999900468-ALL.xml
                  <type value="Organization"/>
                  <display value="Healthcare provider (organization), Apotheek De Gulle Gaper"/>
               </actor>
            </performer>
            <authorizingPrescription>
               <type value="MedicationRequest"/>
               <identifier>
                  <system value="urn:oid:2.16.840.1.113883.2.4.3.11.999.77.16076005.1"/>
                  <value value="MBH_200_start_eind_MA"/>
               </identifier>
               <display value="relatie naar medicatieafspraak met identificatie: MBH_200_start_eind_MA || 2.16.840.1.113883.2.4.3.11.999.77.16076005.1"/>
            </authorizingPrescription>
            <dosageInstruction>
               <timing>
                  <repeat>
                     <frequency value="1"/>
                     <period value="1"/>
                     <periodUnit value="d"/>
                  </repeat>
               </timing>
               <route>
                  <coding>
                     <system value="urn:oid:2.16.840.1.113883.2.4.4.9"/>
                     <code value="9"/>
                     <display value="Oraal"/>
                  </coding>
               </route>
               <doseAndRate>
                  <doseQuantity>
                     <extension url="http://hl7.org/fhir/StructureDefinition/iso21090-PQ-translation">
                        <valueQuantity>
                           <value value="1"/>
                           <unit value="stuk"/>
                           <system value="urn:oid:2.16.840.1.113883.2.4.4.1.900.2"/>
                           <code value="245"/>
                        </valueQuantity>
                     </extension>
                     <value value="1"/>
                     <unit value="stuk"/>
                     <system value="http://unitsofmeasure.org"/>
                     <code value="1"/>
                  </doseQuantity>
               </doseAndRate>
            </dosageInstruction>
         </MedicationDispense>
      </resource>
      <request>
         <method value="POST"/>
         <url value="MedicationDispense"/>
      </request>
   </entry>
   <entry>
<<<<<<< HEAD:ada_2_fhir-r4/mp/9.2.0/beschikbaarstellen_medicatiegegevens/fhir_instance/mg-mgrp-999900419-ALL.xml
      <fullUrl value="urn:uuid:c33f1dc4-6a95-11ec-0000-020000000000"/>
      <resource>
         <MedicationDispense>
            <id value="p-AdmAgr-mp9-216840111388324311999774220370091-MBH200startduurTA"/>
=======
      <fullUrl value="urn:uuid:c33f0442-6a95-11ec-0000-020000000000"/>
      <resource>
         <MedicationDispense>
>>>>>>> origin/master:ada_2_fhir-r4/mp/9.2.0/beschikbaarstellen_medicatiegegevens/fhir_instance/mg-mgrp-999900468-ALL.xml
            <meta>
               <profile value="http://nictiz.nl/fhir/StructureDefinition/mp-AdministrationAgreement"/>
            </meta>
            <extension url="http://nictiz.nl/fhir/StructureDefinition/ext-AdministrationAgreement.AdministrationAgreementDateTime">
               <valueDateTime value="${DATE, T, D, -20}T12:30:00+02:00"/>
            </extension>
            <extension url="http://nictiz.nl/fhir/StructureDefinition/ext-RenderedDosageInstruction">
               <valueString value="Vanaf T - 20 dagen, gedurende 3 weken, 1 maal per dag 1 stuk, oraal"/>
            </extension>
            <extension url="http://nictiz.nl/fhir/StructureDefinition/ext-TimeInterval.Period">
               <valuePeriod>
                  <extension url="http://nictiz.nl/fhir/StructureDefinition/ext-TimeInterval.Duration">
                     <valueDuration>
                        <value value="3"/>
                        <unit value="week"/>
                        <system value="http://unitsofmeasure.org"/>
                        <code value="wk"/>
                     </valueDuration>
                  </extension>
                  <start value="${DATE, T, D, -20}T00:00:00+02:00"/>
               </valuePeriod>
            </extension>
            <extension url="http://nictiz.nl/fhir/StructureDefinition/ext-PharmaceuticalTreatment.Identifier">
               <valueIdentifier>
                  <system value="urn:oid:2.16.840.1.113883.2.4.3.11.999.77.1.1"/>
                  <value value="MBH_200_start_duur"/>
               </valueIdentifier>
            </extension>
            <identifier>
               <system value="urn:oid:2.16.840.1.113883.2.4.3.11.999.77.422037009.1"/>
               <value value="MBH_200_start_duur_TA"/>
            </identifier>
            <status value="unknown"/>
            <category>
               <coding>
                  <system value="http://snomed.info/sct"/>
                  <code value="422037009"/>
                  <display value="toedieningsafspraak"/>
               </coding>
            </category>
            <medicationReference>
<<<<<<< HEAD:ada_2_fhir-r4/mp/9.2.0/beschikbaarstellen_medicatiegegevens/fhir_instance/mg-mgrp-999900419-ALL.xml
               <reference value="urn:uuid:c33f1f0e-6a95-11ec-0000-020000000000"/>
=======
               <reference value="urn:uuid:c33f058c-6a95-11ec-0000-020000000000"/>
>>>>>>> origin/master:ada_2_fhir-r4/mp/9.2.0/beschikbaarstellen_medicatiegegevens/fhir_instance/mg-mgrp-999900468-ALL.xml
               <type value="Medication"/>
               <display value="LISINOPRIL SANDOZ TABLET 10MG"/>
            </medicationReference>
            <subject>
<<<<<<< HEAD:ada_2_fhir-r4/mp/9.2.0/beschikbaarstellen_medicatiegegevens/fhir_instance/mg-mgrp-999900419-ALL.xml
               <reference value="urn:uuid:c33f1c20-6a95-11ec-0000-020000000000"/>
=======
               <reference value="urn:uuid:c33f0334-6a95-11ec-0000-020000000000"/>
>>>>>>> origin/master:ada_2_fhir-r4/mp/9.2.0/beschikbaarstellen_medicatiegegevens/fhir_instance/mg-mgrp-999900468-ALL.xml
               <type value="Patient"/>
               <display value="Patient, D. XXX_Dijks"/>
            </subject>
            <performer>
               <actor>
<<<<<<< HEAD:ada_2_fhir-r4/mp/9.2.0/beschikbaarstellen_medicatiegegevens/fhir_instance/mg-mgrp-999900419-ALL.xml
                  <reference value="urn:uuid:c33f1cd4-6a95-11ec-0000-020000000000"/>
=======
                  <reference value="urn:uuid:c33f069a-6a95-11ec-0000-020000000000"/>
>>>>>>> origin/master:ada_2_fhir-r4/mp/9.2.0/beschikbaarstellen_medicatiegegevens/fhir_instance/mg-mgrp-999900468-ALL.xml
                  <type value="Organization"/>
                  <display value="Healthcare provider (organization), Apotheek De Gulle Gaper"/>
               </actor>
            </performer>
            <authorizingPrescription>
               <type value="MedicationRequest"/>
               <identifier>
                  <system value="urn:oid:2.16.840.1.113883.2.4.3.11.999.77.16076005.1"/>
                  <value value="MBH_200_start_duur_MA"/>
               </identifier>
               <display value="relatie naar medicatieafspraak met identificatie: MBH_200_start_duur_MA || 2.16.840.1.113883.2.4.3.11.999.77.16076005.1"/>
            </authorizingPrescription>
            <dosageInstruction>
               <timing>
                  <repeat>
                     <frequency value="1"/>
                     <period value="1"/>
                     <periodUnit value="d"/>
                  </repeat>
               </timing>
               <route>
                  <coding>
                     <system value="urn:oid:2.16.840.1.113883.2.4.4.9"/>
                     <code value="9"/>
                     <display value="oraal"/>
                  </coding>
               </route>
               <doseAndRate>
                  <doseQuantity>
                     <extension url="http://hl7.org/fhir/StructureDefinition/iso21090-PQ-translation">
                        <valueQuantity>
                           <value value="1"/>
                           <unit value="stuk"/>
                           <system value="urn:oid:2.16.840.1.113883.2.4.4.1.900.2"/>
                           <code value="245"/>
                        </valueQuantity>
                     </extension>
                     <value value="1"/>
                     <unit value="stuk"/>
                     <system value="http://unitsofmeasure.org"/>
                     <code value="1"/>
                  </doseQuantity>
               </doseAndRate>
            </dosageInstruction>
         </MedicationDispense>
      </resource>
      <request>
         <method value="POST"/>
         <url value="MedicationDispense"/>
      </request>
   </entry>
   <entry>
<<<<<<< HEAD:ada_2_fhir-r4/mp/9.2.0/beschikbaarstellen_medicatiegegevens/fhir_instance/mg-mgrp-999900419-ALL.xml
      <fullUrl value="urn:uuid:c33f1de2-6a95-11ec-0000-020000000000"/>
      <resource>
         <MedicationDispense>
            <id value="p-AdmAgr-mp9-216840111388324311999774220370091-MBH200chronischTA"/>
=======
      <fullUrl value="urn:uuid:c33f0460-6a95-11ec-0000-020000000000"/>
      <resource>
         <MedicationDispense>
>>>>>>> origin/master:ada_2_fhir-r4/mp/9.2.0/beschikbaarstellen_medicatiegegevens/fhir_instance/mg-mgrp-999900468-ALL.xml
            <meta>
               <profile value="http://nictiz.nl/fhir/StructureDefinition/mp-AdministrationAgreement"/>
            </meta>
            <extension url="http://nictiz.nl/fhir/StructureDefinition/ext-AdministrationAgreement.AdministrationAgreementDateTime">
               <valueDateTime value="${DATE, T, D, -30}T12:32:00+02:00"/>
            </extension>
            <extension url="http://nictiz.nl/fhir/StructureDefinition/ext-RenderedDosageInstruction">
               <valueString value="Vanaf T - 30 dagen, 1 maal per dag 1 stuk, oraal"/>
            </extension>
            <extension url="http://nictiz.nl/fhir/StructureDefinition/ext-TimeInterval.Period">
               <valuePeriod>
                  <start value="${DATE, T, D, -30}T00:00:00+02:00"/>
               </valuePeriod>
            </extension>
            <extension url="http://nictiz.nl/fhir/StructureDefinition/ext-PharmaceuticalTreatment.Identifier">
               <valueIdentifier>
                  <system value="urn:oid:2.16.840.1.113883.2.4.3.11.999.77.1.1"/>
                  <value value="MBH_200_chronisch"/>
               </valueIdentifier>
            </extension>
            <identifier>
               <system value="urn:oid:2.16.840.1.113883.2.4.3.11.999.77.422037009.1"/>
               <value value="MBH_200_chronisch_TA"/>
            </identifier>
            <status value="unknown"/>
            <category>
               <coding>
                  <system value="http://snomed.info/sct"/>
                  <code value="422037009"/>
                  <display value="toedieningsafspraak"/>
               </coding>
            </category>
            <medicationReference>
<<<<<<< HEAD:ada_2_fhir-r4/mp/9.2.0/beschikbaarstellen_medicatiegegevens/fhir_instance/mg-mgrp-999900419-ALL.xml
               <reference value="urn:uuid:c33f1f4a-6a95-11ec-0000-020000000000"/>
=======
               <reference value="urn:uuid:c33f05c8-6a95-11ec-0000-020000000000"/>
>>>>>>> origin/master:ada_2_fhir-r4/mp/9.2.0/beschikbaarstellen_medicatiegegevens/fhir_instance/mg-mgrp-999900468-ALL.xml
               <type value="Medication"/>
               <display value="ROTER APC TABLET"/>
            </medicationReference>
            <subject>
<<<<<<< HEAD:ada_2_fhir-r4/mp/9.2.0/beschikbaarstellen_medicatiegegevens/fhir_instance/mg-mgrp-999900419-ALL.xml
               <reference value="urn:uuid:c33f1c20-6a95-11ec-0000-020000000000"/>
=======
               <reference value="urn:uuid:c33f0334-6a95-11ec-0000-020000000000"/>
>>>>>>> origin/master:ada_2_fhir-r4/mp/9.2.0/beschikbaarstellen_medicatiegegevens/fhir_instance/mg-mgrp-999900468-ALL.xml
               <type value="Patient"/>
               <display value="Patient, D. XXX_Dijks"/>
            </subject>
            <performer>
               <actor>
<<<<<<< HEAD:ada_2_fhir-r4/mp/9.2.0/beschikbaarstellen_medicatiegegevens/fhir_instance/mg-mgrp-999900419-ALL.xml
                  <reference value="urn:uuid:c33f1cd4-6a95-11ec-0000-020000000000"/>
=======
                  <reference value="urn:uuid:c33f069a-6a95-11ec-0000-020000000000"/>
>>>>>>> origin/master:ada_2_fhir-r4/mp/9.2.0/beschikbaarstellen_medicatiegegevens/fhir_instance/mg-mgrp-999900468-ALL.xml
                  <type value="Organization"/>
                  <display value="Healthcare provider (organization), Apotheek De Gulle Gaper"/>
               </actor>
            </performer>
            <authorizingPrescription>
               <type value="MedicationRequest"/>
               <identifier>
                  <system value="urn:oid:2.16.840.1.113883.2.4.3.11.999.77.16076005.1"/>
                  <value value="MBH_200_chronisch_MA"/>
               </identifier>
               <display value="relatie naar medicatieafspraak met identificatie: MBH_200_chronisch_MA || 2.16.840.1.113883.2.4.3.11.999.77.16076005.1"/>
            </authorizingPrescription>
            <dosageInstruction>
               <timing>
                  <repeat>
                     <frequency value="1"/>
                     <period value="1"/>
                     <periodUnit value="d"/>
                  </repeat>
               </timing>
               <route>
                  <coding>
                     <system value="urn:oid:2.16.840.1.113883.2.4.4.9"/>
                     <code value="9"/>
                     <display value="oraal"/>
                  </coding>
               </route>
               <doseAndRate>
                  <doseQuantity>
                     <extension url="http://hl7.org/fhir/StructureDefinition/iso21090-PQ-translation">
                        <valueQuantity>
                           <value value="1"/>
                           <unit value="stuk"/>
                           <system value="urn:oid:2.16.840.1.113883.2.4.4.1.900.2"/>
                           <code value="245"/>
                        </valueQuantity>
                     </extension>
                     <value value="1"/>
                     <unit value="stuk"/>
                     <system value="http://unitsofmeasure.org"/>
                     <code value="1"/>
                  </doseQuantity>
               </doseAndRate>
            </dosageInstruction>
         </MedicationDispense>
      </resource>
      <request>
         <method value="POST"/>
         <url value="MedicationDispense"/>
      </request>
   </entry>
   <entry>
<<<<<<< HEAD:ada_2_fhir-r4/mp/9.2.0/beschikbaarstellen_medicatiegegevens/fhir_instance/mg-mgrp-999900419-ALL.xml
      <fullUrl value="urn:uuid:c33f1e00-6a95-11ec-0000-020000000000"/>
      <resource>
         <MedicationDispense>
            <id value="-AdmAgr-mp9-216840111388324311999774220370091-MBH200startduur2TA"/>
=======
      <fullUrl value="urn:uuid:c33f047e-6a95-11ec-0000-020000000000"/>
      <resource>
         <MedicationDispense>
>>>>>>> origin/master:ada_2_fhir-r4/mp/9.2.0/beschikbaarstellen_medicatiegegevens/fhir_instance/mg-mgrp-999900468-ALL.xml
            <meta>
               <profile value="http://nictiz.nl/fhir/StructureDefinition/mp-AdministrationAgreement"/>
            </meta>
            <extension url="http://nictiz.nl/fhir/StructureDefinition/ext-AdministrationAgreement.AdministrationAgreementDateTime">
               <valueDateTime value="${DATE, T, D, -60}T12:30:00+02:00"/>
            </extension>
            <extension url="http://nictiz.nl/fhir/StructureDefinition/ext-RenderedDosageInstruction">
               <valueString value="Vanaf T - 60 dagen, gedurende 28 dagen, 1 maal per dag 1 stuk, oraal"/>
            </extension>
            <extension url="http://nictiz.nl/fhir/StructureDefinition/ext-TimeInterval.Period">
               <valuePeriod>
                  <extension url="http://nictiz.nl/fhir/StructureDefinition/ext-TimeInterval.Duration">
                     <valueDuration>
                        <value value="28"/>
                        <unit value="dag"/>
                        <system value="http://unitsofmeasure.org"/>
                        <code value="d"/>
                     </valueDuration>
                  </extension>
                  <start value="${DATE, T, D, -60}T00:00:00+02:00"/>
               </valuePeriod>
            </extension>
            <extension url="http://nictiz.nl/fhir/StructureDefinition/ext-PharmaceuticalTreatment.Identifier">
               <valueIdentifier>
                  <system value="urn:oid:2.16.840.1.113883.2.4.3.11.999.77.1.1"/>
                  <value value="MBH_200_start_duur2"/>
               </valueIdentifier>
            </extension>
            <identifier>
               <system value="urn:oid:2.16.840.1.113883.2.4.3.11.999.77.422037009.1"/>
               <value value="MBH_200_start_duur2_TA"/>
            </identifier>
            <status value="unknown"/>
            <category>
               <coding>
                  <system value="http://snomed.info/sct"/>
                  <code value="422037009"/>
                  <display value="toedieningsafspraak"/>
               </coding>
            </category>
            <medicationReference>
<<<<<<< HEAD:ada_2_fhir-r4/mp/9.2.0/beschikbaarstellen_medicatiegegevens/fhir_instance/mg-mgrp-999900419-ALL.xml
               <reference value="urn:uuid:c33f1f86-6a95-11ec-0000-020000000000"/>
=======
               <reference value="urn:uuid:c33f0604-6a95-11ec-0000-020000000000"/>
>>>>>>> origin/master:ada_2_fhir-r4/mp/9.2.0/beschikbaarstellen_medicatiegegevens/fhir_instance/mg-mgrp-999900468-ALL.xml
               <type value="Medication"/>
               <display value="PANTOZOL TABLET MSR 20MG"/>
            </medicationReference>
            <subject>
<<<<<<< HEAD:ada_2_fhir-r4/mp/9.2.0/beschikbaarstellen_medicatiegegevens/fhir_instance/mg-mgrp-999900419-ALL.xml
               <reference value="urn:uuid:c33f1c20-6a95-11ec-0000-020000000000"/>
=======
               <reference value="urn:uuid:c33f0334-6a95-11ec-0000-020000000000"/>
>>>>>>> origin/master:ada_2_fhir-r4/mp/9.2.0/beschikbaarstellen_medicatiegegevens/fhir_instance/mg-mgrp-999900468-ALL.xml
               <type value="Patient"/>
               <display value="Patient, D. XXX_Dijks"/>
            </subject>
            <performer>
               <actor>
<<<<<<< HEAD:ada_2_fhir-r4/mp/9.2.0/beschikbaarstellen_medicatiegegevens/fhir_instance/mg-mgrp-999900419-ALL.xml
                  <reference value="urn:uuid:c33f1cd4-6a95-11ec-0000-020000000000"/>
=======
                  <reference value="urn:uuid:c33f069a-6a95-11ec-0000-020000000000"/>
>>>>>>> origin/master:ada_2_fhir-r4/mp/9.2.0/beschikbaarstellen_medicatiegegevens/fhir_instance/mg-mgrp-999900468-ALL.xml
                  <type value="Organization"/>
                  <display value="Healthcare provider (organization), Apotheek De Gulle Gaper"/>
               </actor>
            </performer>
            <authorizingPrescription>
               <type value="MedicationRequest"/>
               <identifier>
                  <system value="urn:oid:2.16.840.1.113883.2.4.3.11.999.77.16076005.1"/>
                  <value value="MBH_200_start_duur2_MA"/>
               </identifier>
               <display value="relatie naar medicatieafspraak met identificatie: MBH_200_start_duur2_MA || 2.16.840.1.113883.2.4.3.11.999.77.16076005.1"/>
            </authorizingPrescription>
            <dosageInstruction>
               <timing>
                  <repeat>
                     <frequency value="1"/>
                     <period value="1"/>
                     <periodUnit value="d"/>
                  </repeat>
               </timing>
               <route>
                  <coding>
                     <system value="urn:oid:2.16.840.1.113883.2.4.4.9"/>
                     <code value="9"/>
                     <display value="oraal"/>
                  </coding>
               </route>
               <doseAndRate>
                  <doseQuantity>
                     <extension url="http://hl7.org/fhir/StructureDefinition/iso21090-PQ-translation">
                        <valueQuantity>
                           <value value="1"/>
                           <unit value="stuk"/>
                           <system value="urn:oid:2.16.840.1.113883.2.4.4.1.900.2"/>
                           <code value="245"/>
                        </valueQuantity>
                     </extension>
                     <value value="1"/>
                     <unit value="stuk"/>
                     <system value="http://unitsofmeasure.org"/>
                     <code value="1"/>
                  </doseQuantity>
               </doseAndRate>
            </dosageInstruction>
         </MedicationDispense>
      </resource>
      <request>
         <method value="POST"/>
         <url value="MedicationDispense"/>
      </request>
   </entry>
   <entry>
<<<<<<< HEAD:ada_2_fhir-r4/mp/9.2.0/beschikbaarstellen_medicatiegegevens/fhir_instance/mg-mgrp-999900419-ALL.xml
      <fullUrl value="urn:uuid:c33f1e1e-6a95-11ec-0000-020000000000"/>
      <resource>
         <MedicationDispense>
            <id value="-AdmAgr-mp9-216840111388324311999774220370091-MBH200dosisstuksTA"/>
=======
      <fullUrl value="urn:uuid:c33f049c-6a95-11ec-0000-020000000000"/>
      <resource>
         <MedicationDispense>
>>>>>>> origin/master:ada_2_fhir-r4/mp/9.2.0/beschikbaarstellen_medicatiegegevens/fhir_instance/mg-mgrp-999900468-ALL.xml
            <meta>
               <profile value="http://nictiz.nl/fhir/StructureDefinition/mp-AdministrationAgreement"/>
            </meta>
            <extension url="http://nictiz.nl/fhir/StructureDefinition/ext-AdministrationAgreement.AdministrationAgreementDateTime">
               <valueDateTime value="${DATE, T, D, -130}T12:35:00+02:00"/>
            </extension>
            <extension url="http://nictiz.nl/fhir/StructureDefinition/ext-RenderedDosageInstruction">
               <valueString value="Vanaf T - 130 dagen, tot en met T - 101 dagen, 2 maal per dag 1 dosis, inhalatie"/>
            </extension>
            <extension url="http://nictiz.nl/fhir/StructureDefinition/ext-TimeInterval.Period">
               <valuePeriod>
                  <start value="${DATE, T, D, -130}T00:00:00+02:00"/>
                  <end value="${DATE, T, D, -101}T23:59:59+02:00"/>
               </valuePeriod>
            </extension>
            <extension url="http://nictiz.nl/fhir/StructureDefinition/ext-PharmaceuticalTreatment.Identifier">
               <valueIdentifier>
                  <system value="urn:oid:2.16.840.1.113883.2.4.3.11.999.77.1.1"/>
                  <value value="MBH_200_dosis_stuks"/>
               </valueIdentifier>
            </extension>
            <identifier>
               <system value="urn:oid:2.16.840.1.113883.2.4.3.11.999.77.422037009.1"/>
               <value value="MBH_200_dosis_stuks_TA"/>
            </identifier>
            <status value="unknown"/>
            <category>
               <coding>
                  <system value="http://snomed.info/sct"/>
                  <code value="422037009"/>
                  <display value="toedieningsafspraak"/>
               </coding>
            </category>
            <medicationReference>
<<<<<<< HEAD:ada_2_fhir-r4/mp/9.2.0/beschikbaarstellen_medicatiegegevens/fhir_instance/mg-mgrp-999900419-ALL.xml
               <reference value="urn:uuid:c33f1fc2-6a95-11ec-0000-020000000000"/>
=======
               <reference value="urn:uuid:c33f0640-6a95-11ec-0000-020000000000"/>
>>>>>>> origin/master:ada_2_fhir-r4/mp/9.2.0/beschikbaarstellen_medicatiegegevens/fhir_instance/mg-mgrp-999900468-ALL.xml
               <type value="Medication"/>
               <display value="FLIXOTIDE DISKUS INHPDR 100MCG 60DO"/>
            </medicationReference>
            <subject>
<<<<<<< HEAD:ada_2_fhir-r4/mp/9.2.0/beschikbaarstellen_medicatiegegevens/fhir_instance/mg-mgrp-999900419-ALL.xml
               <reference value="urn:uuid:c33f1c20-6a95-11ec-0000-020000000000"/>
=======
               <reference value="urn:uuid:c33f0334-6a95-11ec-0000-020000000000"/>
>>>>>>> origin/master:ada_2_fhir-r4/mp/9.2.0/beschikbaarstellen_medicatiegegevens/fhir_instance/mg-mgrp-999900468-ALL.xml
               <type value="Patient"/>
               <display value="Patient, D. XXX_Dijks"/>
            </subject>
            <performer>
               <actor>
<<<<<<< HEAD:ada_2_fhir-r4/mp/9.2.0/beschikbaarstellen_medicatiegegevens/fhir_instance/mg-mgrp-999900419-ALL.xml
                  <reference value="urn:uuid:c33f1cd4-6a95-11ec-0000-020000000000"/>
=======
                  <reference value="urn:uuid:c33f069a-6a95-11ec-0000-020000000000"/>
>>>>>>> origin/master:ada_2_fhir-r4/mp/9.2.0/beschikbaarstellen_medicatiegegevens/fhir_instance/mg-mgrp-999900468-ALL.xml
                  <type value="Organization"/>
                  <display value="Healthcare provider (organization), Apotheek De Gulle Gaper"/>
               </actor>
            </performer>
            <authorizingPrescription>
               <type value="MedicationRequest"/>
               <identifier>
                  <system value="urn:oid:2.16.840.1.113883.2.4.3.11.999.77.16076005.1"/>
                  <value value="MBH_200_dosis_stuks_MA"/>
               </identifier>
               <display value="relatie naar medicatieafspraak met identificatie: MBH_200_dosis_stuks_MA || 2.16.840.1.113883.2.4.3.11.999.77.16076005.1"/>
            </authorizingPrescription>
            <dosageInstruction>
               <timing>
                  <repeat>
                     <frequency value="2"/>
                     <period value="1"/>
                     <periodUnit value="d"/>
                  </repeat>
               </timing>
               <route>
                  <coding>
                     <system value="urn:oid:2.16.840.1.113883.2.4.4.9"/>
                     <code value="62"/>
                     <display value="inhalatie"/>
                  </coding>
               </route>
               <doseAndRate>
                  <doseQuantity>
                     <extension url="http://hl7.org/fhir/StructureDefinition/iso21090-PQ-translation">
                        <valueQuantity>
                           <value value="1"/>
                           <unit value="dosis"/>
                           <system value="urn:oid:2.16.840.1.113883.2.4.4.1.900.2"/>
                           <code value="208"/>
                        </valueQuantity>
                     </extension>
                     <value value="1"/>
                     <unit value="dosis"/>
                     <system value="http://unitsofmeasure.org"/>
                     <code value="1"/>
                  </doseQuantity>
               </doseAndRate>
            </dosageInstruction>
         </MedicationDispense>
      </resource>
      <request>
         <method value="POST"/>
         <url value="MedicationDispense"/>
      </request>
   </entry>
   <entry>
<<<<<<< HEAD:ada_2_fhir-r4/mp/9.2.0/beschikbaarstellen_medicatiegegevens/fhir_instance/mg-mgrp-999900419-ALL.xml
      <fullUrl value="urn:uuid:c33f1e78-6a95-11ec-0000-020000000000"/>
      <resource>
         <MedicationDispense>
            <id value="-MedDsp-mp9-216840111388324311999773737840051-MBH200chronischMVE"/>
=======
      <fullUrl value="urn:uuid:c33f04f6-6a95-11ec-0000-020000000000"/>
      <resource>
         <MedicationDispense>
>>>>>>> origin/master:ada_2_fhir-r4/mp/9.2.0/beschikbaarstellen_medicatiegegevens/fhir_instance/mg-mgrp-999900468-ALL.xml
            <meta>
               <profile value="http://nictiz.nl/fhir/StructureDefinition/mp-MedicationDispense"/>
            </meta>
            <extension url="http://nictiz.nl/fhir/StructureDefinition/ext-PharmaceuticalTreatment.Identifier">
               <valueIdentifier>
                  <system value="urn:oid:2.16.840.1.113883.2.4.3.11.999.77.1.1"/>
                  <value value="MBH_200_chronisch"/>
               </valueIdentifier>
            </extension>
            <identifier>
               <system value="urn:oid:2.16.840.1.113883.2.4.3.11.999.77.373784005.1"/>
               <value value="MBH_200_chronisch_MVE"/>
            </identifier>
            <status value="completed"/>
            <category>
               <coding>
                  <system value="http://snomed.info/sct"/>
                  <code value="373784005"/>
                  <display value="verstrekken van medicatie"/>
               </coding>
            </category>
            <medicationReference>
<<<<<<< HEAD:ada_2_fhir-r4/mp/9.2.0/beschikbaarstellen_medicatiegegevens/fhir_instance/mg-mgrp-999900419-ALL.xml
               <reference value="urn:uuid:c33f1f4a-6a95-11ec-0000-020000000000"/>
=======
               <reference value="urn:uuid:c33f05c8-6a95-11ec-0000-020000000000"/>
>>>>>>> origin/master:ada_2_fhir-r4/mp/9.2.0/beschikbaarstellen_medicatiegegevens/fhir_instance/mg-mgrp-999900468-ALL.xml
               <type value="Medication"/>
               <display value="ROTER APC TABLET"/>
            </medicationReference>
            <subject>
<<<<<<< HEAD:ada_2_fhir-r4/mp/9.2.0/beschikbaarstellen_medicatiegegevens/fhir_instance/mg-mgrp-999900419-ALL.xml
               <reference value="urn:uuid:c33f1c20-6a95-11ec-0000-020000000000"/>
=======
               <reference value="urn:uuid:c33f0334-6a95-11ec-0000-020000000000"/>
>>>>>>> origin/master:ada_2_fhir-r4/mp/9.2.0/beschikbaarstellen_medicatiegegevens/fhir_instance/mg-mgrp-999900468-ALL.xml
               <type value="Patient"/>
               <display value="Patient, D. XXX_Dijks"/>
            </subject>
            <performer>
               <actor>
<<<<<<< HEAD:ada_2_fhir-r4/mp/9.2.0/beschikbaarstellen_medicatiegegevens/fhir_instance/mg-mgrp-999900419-ALL.xml
                  <reference value="urn:uuid:c33f1cd4-6a95-11ec-0000-020000000000"/>
=======
                  <reference value="urn:uuid:c33f069a-6a95-11ec-0000-020000000000"/>
>>>>>>> origin/master:ada_2_fhir-r4/mp/9.2.0/beschikbaarstellen_medicatiegegevens/fhir_instance/mg-mgrp-999900468-ALL.xml
                  <type value="Organization"/>
                  <display value="Healthcare provider (organization), Apotheek De Gulle Gaper"/>
               </actor>
            </performer>
            <authorizingPrescription>
               <type value="MedicationRequest"/>
               <identifier>
                  <system value="urn:oid:2.16.840.1.113883.2.4.3.11.999.77.52711000146108.1"/>
                  <value value="MBH_200_chronisch_VV"/>
               </identifier>
               <display value="relatie naar verstrekkingsverzoek met identificatie: MBH_200_chronisch_VV || 2.16.840.1.113883.2.4.3.11.999.77.52711000146108.1"/>
            </authorizingPrescription>
            <quantity>
               <extension url="http://hl7.org/fhir/StructureDefinition/iso21090-PQ-translation">
                  <valueQuantity>
                     <value value="21"/>
                     <unit value="stuk"/>
                     <system value="urn:oid:2.16.840.1.113883.2.4.4.1.900.2"/>
                     <code value="245"/>
                  </valueQuantity>
               </extension>
               <value value="21"/>
               <unit value="stuk"/>
               <system value="http://unitsofmeasure.org"/>
               <code value="1"/>
            </quantity>
            <whenHandedOver value="${DATE, T, D, -30}T12:32:00+02:00"/>
         </MedicationDispense>
      </resource>
      <request>
         <method value="POST"/>
         <url value="MedicationDispense"/>
      </request>
   </entry>
   <entry>
<<<<<<< HEAD:ada_2_fhir-r4/mp/9.2.0/beschikbaarstellen_medicatiegegevens/fhir_instance/mg-mgrp-999900419-ALL.xml
      <fullUrl value="urn:uuid:c33f1e96-6a95-11ec-0000-020000000000"/>
      <resource>
         <MedicationDispense>
            <id value="mp-MedDsp-mp9-c33f1c2f-6a95-11ec-0000-020000000000"/>
=======
      <fullUrl value="urn:uuid:c33f0514-6a95-11ec-0000-020000000000"/>
      <resource>
         <MedicationDispense>
>>>>>>> origin/master:ada_2_fhir-r4/mp/9.2.0/beschikbaarstellen_medicatiegegevens/fhir_instance/mg-mgrp-999900468-ALL.xml
            <meta>
               <profile value="http://nictiz.nl/fhir/StructureDefinition/mp-MedicationDispense"/>
            </meta>
            <extension url="http://nictiz.nl/fhir/StructureDefinition/ext-PharmaceuticalTreatment.Identifier">
               <valueIdentifier>
                  <system value="urn:oid:2.16.840.1.113883.2.4.3.11.999.77.1.1"/>
                  <value value="MBH_200_chronisch"/>
               </valueIdentifier>
            </extension>
            <identifier>
               <system value="urn:oid:2.16.840.1.113883.2.4.3.11.999.77.373784005.1"/>
               <value value="MBH_200_chronisch_MVE_extraMVEbestaandeTA"/>
            </identifier>
            <status value="completed"/>
            <category>
               <coding>
                  <system value="http://snomed.info/sct"/>
                  <code value="373784005"/>
                  <display value="verstrekken van medicatie"/>
               </coding>
            </category>
            <medicationReference>
<<<<<<< HEAD:ada_2_fhir-r4/mp/9.2.0/beschikbaarstellen_medicatiegegevens/fhir_instance/mg-mgrp-999900419-ALL.xml
               <reference value="urn:uuid:c33f1f4a-6a95-11ec-0000-020000000000"/>
=======
               <reference value="urn:uuid:c33f05c8-6a95-11ec-0000-020000000000"/>
>>>>>>> origin/master:ada_2_fhir-r4/mp/9.2.0/beschikbaarstellen_medicatiegegevens/fhir_instance/mg-mgrp-999900468-ALL.xml
               <type value="Medication"/>
               <display value="ROTER APC TABLET"/>
            </medicationReference>
            <subject>
<<<<<<< HEAD:ada_2_fhir-r4/mp/9.2.0/beschikbaarstellen_medicatiegegevens/fhir_instance/mg-mgrp-999900419-ALL.xml
               <reference value="urn:uuid:c33f1c20-6a95-11ec-0000-020000000000"/>
=======
               <reference value="urn:uuid:c33f0334-6a95-11ec-0000-020000000000"/>
>>>>>>> origin/master:ada_2_fhir-r4/mp/9.2.0/beschikbaarstellen_medicatiegegevens/fhir_instance/mg-mgrp-999900468-ALL.xml
               <type value="Patient"/>
               <display value="Patient, D. XXX_Dijks"/>
            </subject>
            <performer>
               <actor>
<<<<<<< HEAD:ada_2_fhir-r4/mp/9.2.0/beschikbaarstellen_medicatiegegevens/fhir_instance/mg-mgrp-999900419-ALL.xml
                  <reference value="urn:uuid:c33f1cd4-6a95-11ec-0000-020000000000"/>
=======
                  <reference value="urn:uuid:c33f069a-6a95-11ec-0000-020000000000"/>
>>>>>>> origin/master:ada_2_fhir-r4/mp/9.2.0/beschikbaarstellen_medicatiegegevens/fhir_instance/mg-mgrp-999900468-ALL.xml
                  <type value="Organization"/>
                  <display value="Healthcare provider (organization), Apotheek De Gulle Gaper"/>
               </actor>
            </performer>
            <authorizingPrescription>
               <type value="MedicationRequest"/>
               <identifier>
                  <system value="urn:oid:2.16.840.1.113883.2.4.3.11.999.77.52711000146108.1"/>
                  <value value="MBH_200_chronisch_VV_extraVVbestaandeMA"/>
               </identifier>
               <display value="relatie naar verstrekkingsverzoek met identificatie: MBH_200_chronisch_VV_extraVVbestaandeMA || 2.16.840.1.113883.2.4.3.11.999.77.52711000146108.1"/>
            </authorizingPrescription>
            <quantity>
               <extension url="http://hl7.org/fhir/StructureDefinition/iso21090-PQ-translation">
                  <valueQuantity>
                     <value value="90"/>
                     <unit value="stuk"/>
                     <system value="urn:oid:2.16.840.1.113883.2.4.4.1.900.2"/>
                     <code value="245"/>
                  </valueQuantity>
               </extension>
               <value value="90"/>
               <unit value="stuk"/>
               <system value="http://unitsofmeasure.org"/>
               <code value="1"/>
            </quantity>
            <whenHandedOver value="${DATE, T, D, -10}T12:35:00+02:00"/>
         </MedicationDispense>
      </resource>
      <request>
         <method value="POST"/>
         <url value="MedicationDispense"/>
      </request>
   </entry>
   <entry>
<<<<<<< HEAD:ada_2_fhir-r4/mp/9.2.0/beschikbaarstellen_medicatiegegevens/fhir_instance/mg-mgrp-999900419-ALL.xml
      <fullUrl value="urn:uuid:c33f1c20-6a95-11ec-0000-020000000000"/>
=======
      <fullUrl value="urn:uuid:c33f0334-6a95-11ec-0000-020000000000"/>
>>>>>>> origin/master:ada_2_fhir-r4/mp/9.2.0/beschikbaarstellen_medicatiegegevens/fhir_instance/mg-mgrp-999900468-ALL.xml
      <resource>
         <Patient>
            <meta>
               <profile value="http://nictiz.nl/fhir/StructureDefinition/nl-core-Patient"/>
            </meta>
            <identifier>
               <system value="http://fhir.nl/fhir/NamingSystem/bsn"/>
               <value value="999900468"/>
            </identifier>
            <name>
               <extension url="http://hl7.org/fhir/StructureDefinition/humanname-assembly-order">
                  <valueCode value="NL1"/>
               </extension>
               <use value="official"/>
               <text value="D. XXX_Dijks"/>
               <family value="XXX_Dijks">
                  <extension url="http://hl7.org/fhir/StructureDefinition/humanname-own-name">
                     <valueString value="XXX_Dijks"/>
                  </extension>
               </family>
               <given value="D.">
                  <extension url="http://hl7.org/fhir/StructureDefinition/iso21090-EN-qualifier">
                     <valueCode value="IN"/>
                  </extension>
               </given>
            </name>
            <gender value="female">
               <extension url="http://nictiz.nl/fhir/StructureDefinition/ext-CodeSpecification">
                  <valueCodeableConcept>
                     <coding>
                        <system value="http://terminology.hl7.org/CodeSystem/v3-AdministrativeGender"/>
                        <code value="F"/>
                        <display value="Vrouw"/>
                     </coding>
                  </valueCodeableConcept>
               </extension>
            </gender>
            <birthDate value="1963-10-21"/>
         </Patient>
      </resource>
      <request>
         <method value="POST"/>
         <url value="Patient"/>
      </request>
   </entry>
   <entry>
<<<<<<< HEAD:ada_2_fhir-r4/mp/9.2.0/beschikbaarstellen_medicatiegegevens/fhir_instance/mg-mgrp-999900419-ALL.xml
      <fullUrl value="urn:uuid:c33f1c48-6a95-11ec-0000-020000000000"/>
      <resource>
         <PractitionerRole>
            <id value="nl-core-HPrf-PracRol-mp9-PrcRol-2165281100731-000001111"/>
=======
      <fullUrl value="urn:uuid:c33f0352-6a95-11ec-0000-020000000000"/>
      <resource>
         <PractitionerRole>
>>>>>>> origin/master:ada_2_fhir-r4/mp/9.2.0/beschikbaarstellen_medicatiegegevens/fhir_instance/mg-mgrp-999900468-ALL.xml
            <meta>
               <profile value="http://nictiz.nl/fhir/StructureDefinition/nl-core-HealthProfessional-PractitionerRole"/>
            </meta>
            <practitioner>
<<<<<<< HEAD:ada_2_fhir-r4/mp/9.2.0/beschikbaarstellen_medicatiegegevens/fhir_instance/mg-mgrp-999900419-ALL.xml
               <reference value="urn:uuid:c33f1c70-6a95-11ec-0000-020000000000"/>
=======
               <reference value="urn:uuid:c33f0370-6a95-11ec-0000-020000000000"/>
>>>>>>> origin/master:ada_2_fhir-r4/mp/9.2.0/beschikbaarstellen_medicatiegegevens/fhir_instance/mg-mgrp-999900468-ALL.xml
               <type value="Practitioner"/>
               <display value="Healthcare professional (person), Peter van Pulver"/>
            </practitioner>
            <organization>
<<<<<<< HEAD:ada_2_fhir-r4/mp/9.2.0/beschikbaarstellen_medicatiegegevens/fhir_instance/mg-mgrp-999900419-ALL.xml
               <reference value="urn:uuid:c33f1c98-6a95-11ec-0000-020000000000"/>
=======
               <reference value="urn:uuid:c33f065e-6a95-11ec-0000-020000000000"/>
>>>>>>> origin/master:ada_2_fhir-r4/mp/9.2.0/beschikbaarstellen_medicatiegegevens/fhir_instance/mg-mgrp-999900468-ALL.xml
               <type value="Organization"/>
               <display value="Healthcare provider (organization), Huisartsenpraktijk Pulver &amp; Partners"/>
            </organization>
            <specialty>
               <coding>
                  <system value="urn:oid:2.16.840.1.113883.2.4.6.7"/>
                  <version value="2020-10-23T00:00:00"/>
                  <code value="0100"/>
                  <display value="Huisartsen, niet nader gespecificeerd"/>
               </coding>
            </specialty>
         </PractitionerRole>
      </resource>
      <request>
         <method value="POST"/>
         <url value="PractitionerRole"/>
      </request>
   </entry>
   <entry>
<<<<<<< HEAD:ada_2_fhir-r4/mp/9.2.0/beschikbaarstellen_medicatiegegevens/fhir_instance/mg-mgrp-999900419-ALL.xml
      <fullUrl value="urn:uuid:c33f1c70-6a95-11ec-0000-020000000000"/>
=======
      <fullUrl value="urn:uuid:c33f0370-6a95-11ec-0000-020000000000"/>
>>>>>>> origin/master:ada_2_fhir-r4/mp/9.2.0/beschikbaarstellen_medicatiegegevens/fhir_instance/mg-mgrp-999900468-ALL.xml
      <resource>
         <Practitioner>
            <meta>
               <profile value="http://nictiz.nl/fhir/StructureDefinition/nl-core-HealthProfessional-Practitioner"/>
            </meta>
            <identifier>
               <system value="http://fhir.nl/fhir/NamingSystem/uzi-nr-pers"/>
               <value value="000001111"/>
            </identifier>
            <name>
               <use value="official"/>
               <text value="Peter van Pulver"/>
               <family value="van Pulver">
                  <extension url="http://hl7.org/fhir/StructureDefinition/humanname-own-prefix">
                     <valueString value="van"/>
                  </extension>
                  <extension url="http://hl7.org/fhir/StructureDefinition/humanname-own-name">
                     <valueString value="Pulver"/>
                  </extension>
               </family>
               <given value="Peter">
                  <extension url="http://hl7.org/fhir/StructureDefinition/iso21090-EN-qualifier">
                     <valueCode value="BR"/>
                  </extension>
               </given>
            </name>
         </Practitioner>
      </resource>
      <request>
         <method value="POST"/>
         <url value="Practitioner"/>
      </request>
   </entry>
   <entry>
<<<<<<< HEAD:ada_2_fhir-r4/mp/9.2.0/beschikbaarstellen_medicatiegegevens/fhir_instance/mg-mgrp-999900419-ALL.xml
      <fullUrl value="urn:uuid:c33f1c98-6a95-11ec-0000-020000000000"/>
      <resource>
         <Organization>
            <id value="nl-core-HPrv-Org-mp9-Org-2165281100733-00001111"/>
=======
      <fullUrl value="urn:uuid:c33f065e-6a95-11ec-0000-020000000000"/>
      <resource>
         <Organization>
>>>>>>> origin/master:ada_2_fhir-r4/mp/9.2.0/beschikbaarstellen_medicatiegegevens/fhir_instance/mg-mgrp-999900468-ALL.xml
            <meta>
               <profile value="http://nictiz.nl/fhir/StructureDefinition/nl-core-HealthcareProvider-Organization"/>
            </meta>
            <identifier>
               <system value="http://fhir.nl/fhir/NamingSystem/ura"/>
               <value value="00001111"/>
            </identifier>
            <name value="Huisartsenpraktijk Pulver &amp; Partners"/>
            <address>
               <extension url="http://nictiz.nl/fhir/StructureDefinition/ext-AddressInformation.AddressType">
                  <valueCodeableConcept>
                     <coding>
                        <system value="http://terminology.hl7.org/CodeSystem/v3-AddressUse"/>
                        <code value="WP"/>
                        <display value="Werkadres"/>
                     </coding>
                  </valueCodeableConcept>
               </extension>
               <use value="work"/>
               <line value="Dorpsstraat 1">
                  <extension url="http://hl7.org/fhir/StructureDefinition/iso21090-ADXP-streetName">
                     <valueString value="Dorpsstraat"/>
                  </extension>
                  <extension url="http://hl7.org/fhir/StructureDefinition/iso21090-ADXP-houseNumber">
                     <valueString value="1"/>
                  </extension>
               </line>
               <city value="Ons Dorp"/>
               <postalCode value="1234AA"/>
            </address>
         </Organization>
      </resource>
      <request>
         <method value="POST"/>
         <url value="Organization"/>
      </request>
   </entry>
   <entry>
<<<<<<< HEAD:ada_2_fhir-r4/mp/9.2.0/beschikbaarstellen_medicatiegegevens/fhir_instance/mg-mgrp-999900419-ALL.xml
      <fullUrl value="urn:uuid:c33f1cd4-6a95-11ec-0000-020000000000"/>
      <resource>
         <Organization>
            <id value="nl-core-HPrv-Org-mp9-Org-2165281100733-01236578"/>
=======
      <fullUrl value="urn:uuid:c33f069a-6a95-11ec-0000-020000000000"/>
      <resource>
         <Organization>
>>>>>>> origin/master:ada_2_fhir-r4/mp/9.2.0/beschikbaarstellen_medicatiegegevens/fhir_instance/mg-mgrp-999900468-ALL.xml
            <meta>
               <profile value="http://nictiz.nl/fhir/StructureDefinition/nl-core-HealthcareProvider-Organization"/>
            </meta>
            <identifier>
               <system value="http://fhir.nl/fhir/NamingSystem/ura"/>
               <value value="01236578"/>
            </identifier>
            <name value="Apotheek De Gulle Gaper"/>
         </Organization>
      </resource>
      <request>
         <method value="POST"/>
         <url value="Organization"/>
      </request>
   </entry>
   <entry>
<<<<<<< HEAD:ada_2_fhir-r4/mp/9.2.0/beschikbaarstellen_medicatiegegevens/fhir_instance/mg-mgrp-999900419-ALL.xml
      <fullUrl value="urn:uuid:c33f1eb4-6a95-11ec-0000-020000000000"/>
=======
      <fullUrl value="urn:uuid:c33f0532-6a95-11ec-0000-020000000000"/>
>>>>>>> origin/master:ada_2_fhir-r4/mp/9.2.0/beschikbaarstellen_medicatiegegevens/fhir_instance/mg-mgrp-999900468-ALL.xml
      <resource>
         <Medication>
            <meta>
               <profile value="http://nictiz.nl/fhir/StructureDefinition/nl-core-PharmaceuticalProduct"/>
            </meta>
            <code>
               <coding>
                  <system value="urn:oid:2.16.840.1.113883.2.4.4.10"/>
                  <code value="6947"/>
                  <display value="METOCLOPRAMIDE TABLET 10MG"/>
                  <userSelected value="true"/>
               </coding>
               <coding>
                  <system value="urn:oid:2.16.840.1.113883.2.4.4.1"/>
                  <code value="19429"/>
                  <display value="METOCLOPRAMIDE TABLET 10MG"/>
               </coding>
               <text value="METOCLOPRAMIDE TABLET 10MG"/>
            </code>
         </Medication>
      </resource>
      <request>
         <method value="POST"/>
         <url value="Medication"/>
      </request>
   </entry>
   <entry>
<<<<<<< HEAD:ada_2_fhir-r4/mp/9.2.0/beschikbaarstellen_medicatiegegevens/fhir_instance/mg-mgrp-999900419-ALL.xml
      <fullUrl value="urn:uuid:c33f1ed2-6a95-11ec-0000-020000000000"/>
=======
      <fullUrl value="urn:uuid:c33f0550-6a95-11ec-0000-020000000000"/>
>>>>>>> origin/master:ada_2_fhir-r4/mp/9.2.0/beschikbaarstellen_medicatiegegevens/fhir_instance/mg-mgrp-999900468-ALL.xml
      <resource>
         <Medication>
            <meta>
               <profile value="http://nictiz.nl/fhir/StructureDefinition/nl-core-PharmaceuticalProduct"/>
            </meta>
            <code>
               <coding>
                  <system value="urn:oid:2.16.840.1.113883.2.4.4.7"/>
                  <code value="560308"/>
                  <display value="METOCLOPRAMIDE HCL PCH TABLET 10MG"/>
                  <userSelected value="true"/>
               </coding>
               <coding>
                  <system value="urn:oid:2.16.840.1.113883.2.4.4.10"/>
                  <code value="6947"/>
                  <display value="METOCLOPRAMIDE TABLET 10MG"/>
               </coding>
               <coding>
                  <system value="urn:oid:2.16.840.1.113883.2.4.4.1"/>
                  <code value="19429"/>
                  <display value="METOCLOPRAMIDE TABLET 10MG"/>
               </coding>
               <text value="METOCLOPRAMIDE HCL PCH TABLET 10MG"/>
            </code>
         </Medication>
      </resource>
      <request>
         <method value="POST"/>
         <url value="Medication"/>
      </request>
   </entry>
   <entry>
<<<<<<< HEAD:ada_2_fhir-r4/mp/9.2.0/beschikbaarstellen_medicatiegegevens/fhir_instance/mg-mgrp-999900419-ALL.xml
      <fullUrl value="urn:uuid:c33f1ef0-6a95-11ec-0000-020000000000"/>
=======
      <fullUrl value="urn:uuid:c33f056e-6a95-11ec-0000-020000000000"/>
>>>>>>> origin/master:ada_2_fhir-r4/mp/9.2.0/beschikbaarstellen_medicatiegegevens/fhir_instance/mg-mgrp-999900468-ALL.xml
      <resource>
         <Medication>
            <meta>
               <profile value="http://nictiz.nl/fhir/StructureDefinition/nl-core-PharmaceuticalProduct"/>
            </meta>
            <code>
               <coding>
                  <system value="urn:oid:2.16.840.1.113883.2.4.4.10"/>
                  <code value="26638"/>
                  <display value="LISINOPRIL 10MG TABLET"/>
                  <userSelected value="true"/>
               </coding>
               <coding>
                  <system value="urn:oid:2.16.840.1.113883.2.4.4.1"/>
                  <code value="71587"/>
                  <display value="LISINOPRIL 10MG TABLET"/>
               </coding>
               <text value="LISINOPRIL 10MG TABLET"/>
            </code>
         </Medication>
      </resource>
      <request>
         <method value="POST"/>
         <url value="Medication"/>
      </request>
   </entry>
   <entry>
<<<<<<< HEAD:ada_2_fhir-r4/mp/9.2.0/beschikbaarstellen_medicatiegegevens/fhir_instance/mg-mgrp-999900419-ALL.xml
      <fullUrl value="urn:uuid:c33f1f0e-6a95-11ec-0000-020000000000"/>
=======
      <fullUrl value="urn:uuid:c33f058c-6a95-11ec-0000-020000000000"/>
>>>>>>> origin/master:ada_2_fhir-r4/mp/9.2.0/beschikbaarstellen_medicatiegegevens/fhir_instance/mg-mgrp-999900468-ALL.xml
      <resource>
         <Medication>
            <meta>
               <profile value="http://nictiz.nl/fhir/StructureDefinition/nl-core-PharmaceuticalProduct"/>
            </meta>
            <code>
               <coding>
                  <system value="urn:oid:2.16.840.1.113883.2.4.4.7"/>
                  <code value="1506773"/>
                  <display value="LISINOPRIL SANDOZ TABLET 10MG"/>
                  <userSelected value="true"/>
               </coding>
               <coding>
                  <system value="urn:oid:2.16.840.1.113883.2.4.4.10"/>
                  <code value="26638"/>
                  <display value="LISINOPRIL 10MG TABLET"/>
               </coding>
               <coding>
                  <system value="urn:oid:2.16.840.1.113883.2.4.4.1"/>
                  <code value="71587"/>
                  <display value="LISINOPRIL 10MG TABLET"/>
               </coding>
               <text value="LISINOPRIL SANDOZ TABLET 10MG"/>
            </code>
         </Medication>
      </resource>
      <request>
         <method value="POST"/>
         <url value="Medication"/>
      </request>
   </entry>
   <entry>
<<<<<<< HEAD:ada_2_fhir-r4/mp/9.2.0/beschikbaarstellen_medicatiegegevens/fhir_instance/mg-mgrp-999900419-ALL.xml
      <fullUrl value="urn:uuid:c33f1f2c-6a95-11ec-0000-020000000000"/>
=======
      <fullUrl value="urn:uuid:c33f05aa-6a95-11ec-0000-020000000000"/>
>>>>>>> origin/master:ada_2_fhir-r4/mp/9.2.0/beschikbaarstellen_medicatiegegevens/fhir_instance/mg-mgrp-999900468-ALL.xml
      <resource>
         <Medication>
            <meta>
               <profile value="http://nictiz.nl/fhir/StructureDefinition/nl-core-PharmaceuticalProduct"/>
            </meta>
            <code>
               <coding>
                  <system value="urn:oid:2.16.840.1.113883.2.4.4.10"/>
                  <code value="3891"/>
                  <display value="ACETYLSALICYLZUUR/PARACETAMOL/COF TAB 250/250/50MG"/>
                  <userSelected value="true"/>
               </coding>
               <coding>
                  <system value="urn:oid:2.16.840.1.113883.2.4.4.1"/>
                  <code value="61433"/>
                  <display value="ACETYLSALICYLZUUR/PARACETAMOL/COF TAB 250/250/50MG"/>
               </coding>
               <text value="ACETYLSALICYLZUUR/PARACETAMOL/COF TAB 250/250/50MG"/>
            </code>
         </Medication>
      </resource>
      <request>
         <method value="POST"/>
         <url value="Medication"/>
      </request>
   </entry>
   <entry>
<<<<<<< HEAD:ada_2_fhir-r4/mp/9.2.0/beschikbaarstellen_medicatiegegevens/fhir_instance/mg-mgrp-999900419-ALL.xml
      <fullUrl value="urn:uuid:c33f1f4a-6a95-11ec-0000-020000000000"/>
=======
      <fullUrl value="urn:uuid:c33f05c8-6a95-11ec-0000-020000000000"/>
>>>>>>> origin/master:ada_2_fhir-r4/mp/9.2.0/beschikbaarstellen_medicatiegegevens/fhir_instance/mg-mgrp-999900468-ALL.xml
      <resource>
         <Medication>
            <meta>
               <profile value="http://nictiz.nl/fhir/StructureDefinition/nl-core-PharmaceuticalProduct"/>
            </meta>
            <code>
               <coding>
                  <system value="urn:oid:2.16.840.1.113883.2.4.4.7"/>
                  <code value="202185"/>
                  <display value="ROTER APC TABLET"/>
                  <userSelected value="true"/>
               </coding>
               <coding>
                  <system value="urn:oid:2.16.840.1.113883.2.4.4.10"/>
                  <code value="3891"/>
                  <display value="ACETYLSALICYLZUUR/PARACETAMOL/COF TAB 250/250/50MG"/>
               </coding>
               <coding>
                  <system value="urn:oid:2.16.840.1.113883.2.4.4.1"/>
                  <code value="61433"/>
                  <display value="ACETYLSALICYLZUUR/PARACETAMOL/COF TAB 250/250/50MG"/>
               </coding>
               <text value="ROTER APC TABLET"/>
            </code>
         </Medication>
      </resource>
      <request>
         <method value="POST"/>
         <url value="Medication"/>
      </request>
   </entry>
   <entry>
<<<<<<< HEAD:ada_2_fhir-r4/mp/9.2.0/beschikbaarstellen_medicatiegegevens/fhir_instance/mg-mgrp-999900419-ALL.xml
      <fullUrl value="urn:uuid:c33f1f68-6a95-11ec-0000-020000000000"/>
=======
      <fullUrl value="urn:uuid:c33f05e6-6a95-11ec-0000-020000000000"/>
>>>>>>> origin/master:ada_2_fhir-r4/mp/9.2.0/beschikbaarstellen_medicatiegegevens/fhir_instance/mg-mgrp-999900468-ALL.xml
      <resource>
         <Medication>
            <meta>
               <profile value="http://nictiz.nl/fhir/StructureDefinition/nl-core-PharmaceuticalProduct"/>
            </meta>
            <code>
               <coding>
                  <system value="urn:oid:2.16.840.1.113883.2.4.4.10"/>
                  <code value="52272"/>
                  <display value="PANTOPRAZOL TABLET MSR 20MG"/>
                  <userSelected value="true"/>
               </coding>
               <coding>
                  <system value="urn:oid:2.16.840.1.113883.2.4.4.1"/>
                  <code value="106275"/>
                  <display value="PANTOPRAZOL TABLET MSR 20MG"/>
               </coding>
               <text value="PANTOPRAZOL TABLET MSR 20MG"/>
            </code>
         </Medication>
      </resource>
      <request>
         <method value="POST"/>
         <url value="Medication"/>
      </request>
   </entry>
   <entry>
<<<<<<< HEAD:ada_2_fhir-r4/mp/9.2.0/beschikbaarstellen_medicatiegegevens/fhir_instance/mg-mgrp-999900419-ALL.xml
      <fullUrl value="urn:uuid:c33f1f86-6a95-11ec-0000-020000000000"/>
=======
      <fullUrl value="urn:uuid:c33f0604-6a95-11ec-0000-020000000000"/>
>>>>>>> origin/master:ada_2_fhir-r4/mp/9.2.0/beschikbaarstellen_medicatiegegevens/fhir_instance/mg-mgrp-999900468-ALL.xml
      <resource>
         <Medication>
            <meta>
               <profile value="http://nictiz.nl/fhir/StructureDefinition/nl-core-PharmaceuticalProduct"/>
            </meta>
            <code>
               <coding>
                  <system value="urn:oid:2.16.840.1.113883.2.4.4.7"/>
                  <code value="1163094"/>
                  <display value="PANTOZOL TABLET MSR 20MG"/>
                  <userSelected value="true"/>
               </coding>
               <coding>
                  <system value="urn:oid:2.16.840.1.113883.2.4.4.10"/>
                  <code value="52272"/>
                  <display value="PANTOPRAZOL TABLET MSR 20MG"/>
               </coding>
               <coding>
                  <system value="urn:oid:2.16.840.1.113883.2.4.4.1"/>
                  <code value="106275"/>
                  <display value="PANTOPRAZOL TABLET MSR 20MG"/>
               </coding>
               <text value="PANTOZOL TABLET MSR 20MG"/>
            </code>
         </Medication>
      </resource>
      <request>
         <method value="POST"/>
         <url value="Medication"/>
      </request>
   </entry>
   <entry>
<<<<<<< HEAD:ada_2_fhir-r4/mp/9.2.0/beschikbaarstellen_medicatiegegevens/fhir_instance/mg-mgrp-999900419-ALL.xml
      <fullUrl value="urn:uuid:c33f1fa4-6a95-11ec-0000-020000000000"/>
=======
      <fullUrl value="urn:uuid:c33f0622-6a95-11ec-0000-020000000000"/>
>>>>>>> origin/master:ada_2_fhir-r4/mp/9.2.0/beschikbaarstellen_medicatiegegevens/fhir_instance/mg-mgrp-999900468-ALL.xml
      <resource>
         <Medication>
            <meta>
               <profile value="http://nictiz.nl/fhir/StructureDefinition/nl-core-PharmaceuticalProduct"/>
            </meta>
            <code>
               <coding>
                  <system value="urn:oid:2.16.840.1.113883.2.4.4.10"/>
                  <code value="45624"/>
                  <display value="FLUTICASON INHALATIEPOEDER 100UG/DO 60DO DISKUS"/>
                  <userSelected value="true"/>
               </coding>
               <coding>
                  <system value="urn:oid:2.16.840.1.113883.2.4.4.1"/>
                  <code value="92487"/>
                  <display value="FLUTICASON INHALATIEPOEDER 100UG/DO"/>
               </coding>
               <text value="FLUTICASON INHALATIEPOEDER 100UG/DO 60DO DISKUS"/>
            </code>
         </Medication>
      </resource>
      <request>
         <method value="POST"/>
         <url value="Medication"/>
      </request>
   </entry>
   <entry>
<<<<<<< HEAD:ada_2_fhir-r4/mp/9.2.0/beschikbaarstellen_medicatiegegevens/fhir_instance/mg-mgrp-999900419-ALL.xml
      <fullUrl value="urn:uuid:c33f1fc2-6a95-11ec-0000-020000000000"/>
=======
      <fullUrl value="urn:uuid:c33f0640-6a95-11ec-0000-020000000000"/>
>>>>>>> origin/master:ada_2_fhir-r4/mp/9.2.0/beschikbaarstellen_medicatiegegevens/fhir_instance/mg-mgrp-999900468-ALL.xml
      <resource>
         <Medication>
            <meta>
               <profile value="http://nictiz.nl/fhir/StructureDefinition/nl-core-PharmaceuticalProduct"/>
            </meta>
            <code>
               <coding>
                  <system value="urn:oid:2.16.840.1.113883.2.4.4.7"/>
                  <code value="1029754"/>
                  <display value="FLIXOTIDE DISKUS INHPDR 100MCG 60DO"/>
                  <userSelected value="true"/>
               </coding>
               <coding>
                  <system value="urn:oid:2.16.840.1.113883.2.4.4.10"/>
                  <code value="45624"/>
                  <display value="FLUTICASON INHALATIEPOEDER 100UG/DO 60DO DISKUS"/>
               </coding>
               <coding>
                  <system value="urn:oid:2.16.840.1.113883.2.4.4.1"/>
                  <code value="92487"/>
                  <display value="FLUTICASON INHALATIEPOEDER 100UG/DO"/>
               </coding>
               <text value="FLIXOTIDE DISKUS INHPDR 100MCG 60DO"/>
            </code>
         </Medication>
      </resource>
      <request>
         <method value="POST"/>
         <url value="Medication"/>
      </request>
   </entry>
</Bundle>
