<?xml-model href="http://hl7.org/fhir/R4/bundle.sch" type="application/xml" schematypens="http://purl.oclc.org/dsdl/schematron"?><Bundle xmlns="http://hl7.org/fhir"
        xmlns:xsi="http://www.w3.org/2001/XMLSchema-instance"
        xsi:schemaLocation="http://hl7.org/fhir https://hl7.org/fhir/R4/bundle.xsd">
   <id value="ca2e7076-2dd4-11ec-1511-020000000000"/>
   <type value="searchset"/>
   <total value="6"/>
   <entry>
      <fullUrl value="urn:uuid:ca2e821d-2dd4-11ec-1511-020000000000"/>
      <resource>
         <MedicationRequest>
            <meta>
               <profile value="http://nictiz.nl/fhir/StructureDefinition/nl-core-MedicationAgreement"/>
            </meta>
            <extension url="http://nictiz.nl/fhir/StructureDefinition/ext-RenderedDosageInstruction">
               <valueString value="Vanaf &lt;T-20D{00:00:00}&gt;t/m &lt;T+9D{23:59:59}&gt;, 2 maal per dag 1 stuk, oraal"/>
            </extension>
            <extension url="http://nictiz.nl/fhir/StructureDefinition/ext-TimeInterval-Period">
               <valuePeriod>
                  <start value="${DATE, T, D, -20}T00:00:00+02:00"/>
                  <end value="${DATE, T, D, +9}T23:59:59+02:00"/>
               </valuePeriod>
            </extension>
            <status value="unknown"/>
            <intent value="order"/>
            <category>
               <coding>
                  <system value="http://snomed.info/sct"/>
                  <code value="16076005"/>
                  <display value="voorschrijven"/>
               </coding>
            </category>
            <medicationReference>
               <reference value="urn:uuid:ca2e7128-2dd4-11ec-1511-020000000000"/>
               <type value="Medication"/>
               <display value="IBUPROFEN TABLET 600MG"/>
            </medicationReference>
            <subject>
               <reference value="urn:uuid:ca2e70ba-2dd4-11ec-1511-020000000000"/>
               <type value="Patient"/>
               <display value="Patient, B. XXX_Blik"/>
            </subject>
            <authoredOn value="${DATE, T, D, -20}T08:00:00+02:00"/>
            <requester>
               <reference value="urn:uuid:ca2e70e2-2dd4-11ec-1511-020000000000"/>
               <type value="PractitionerRole"/>
               <display value="zorgverlener"/>
            </requester>
            <dosageInstruction>
               <timing>
                  <repeat>
                     <period value="1"/>
                     <periodUnit value="d"/>
                  </repeat>
               </timing>
               <route>
                  <coding>
                     <system value="urn:oid:2.16.840.1.113883.2.4.4.9"/>
                     <code value="9"/>
                     <display value="oraal"/>
                  </coding>
               </route>
               <doseAndRate>
                  <doseQuantity>
                     <extension url="http://hl7.org/fhir/StructureDefinition/iso21090-PQ-translation">
                        <valueQuantity>
                           <value value="1"/>
                           <unit value="stuk"/>
                           <system value="urn:oid:2.16.840.1.113883.2.4.4.1.900.2"/>
                           <code value="245"/>
                        </valueQuantity>
                     </extension>
                     <value value="1"/>
                     <unit value="stuk"/>
                     <system value="http://unitsofmeasure.org"/>
                     <code value="1"/>
                  </doseQuantity>
               </doseAndRate>
            </dosageInstruction>
         </MedicationRequest>
      </resource>
      <search>
         <mode value="match"/>
      </search>
   </entry>
   <entry>
      <fullUrl value="urn:uuid:ca2e8238-2dd4-11ec-1511-020000000000"/>
      <resource>
         <MedicationRequest>
            <meta>
               <profile value="http://nictiz.nl/fhir/StructureDefinition/nl-core-MedicationAgreement"/>
            </meta>
            <extension url="http://nictiz.nl/fhir/StructureDefinition/ext-RenderedDosageInstruction">
               <valueString value="Vanaf &lt;T-100D{00:00:00}&gt; t/m T-72D{23:59:59}, 1 maal per dag 10 ml"/>
            </extension>
            <extension url="http://nictiz.nl/fhir/StructureDefinition/ext-TimeInterval-Period">
               <valuePeriod>
                  <start value="${DATE, T, D, -100}T00:00:00+02:00"/>
                  <end value="${DATE, T, D, -72}T23:59:59+02:00"/>
               </valuePeriod>
            </extension>
            <status value="unknown"/>
            <intent value="order"/>
            <category>
               <coding>
                  <system value="http://snomed.info/sct"/>
                  <code value="16076005"/>
                  <display value="voorschrijven"/>
               </coding>
            </category>
            <medicationReference>
               <reference value="urn:uuid:ca2e7146-2dd4-11ec-1511-020000000000"/>
               <type value="Medication"/>
               <display value="SENNOSIDEN A+B STROOP 2MG/ML"/>
            </medicationReference>
            <subject>
               <reference value="urn:uuid:ca2e70ba-2dd4-11ec-1511-020000000000"/>
               <type value="Patient"/>
               <display value="Patient, B. XXX_Blik"/>
            </subject>
            <authoredOn value="${DATE, T, D, -100}T08:04:00+02:00"/>
            <requester>
               <reference value="urn:uuid:ca2e70e2-2dd4-11ec-1511-020000000000"/>
               <type value="PractitionerRole"/>
               <display value="zorgverlener"/>
            </requester>
            <dosageInstruction>
               <timing>
                  <repeat>
                     <period value="1"/>
                     <periodUnit value="d"/>
                  </repeat>
               </timing>
               <route>
                  <coding>
                     <system value="urn:oid:2.16.840.1.113883.2.4.4.9"/>
                     <code value="9"/>
                     <display value="oraal"/>
                  </coding>
               </route>
               <doseAndRate>
                  <doseQuantity>
                     <extension url="http://hl7.org/fhir/StructureDefinition/iso21090-PQ-translation">
                        <valueQuantity>
                           <value value="10"/>
                           <unit value="milliliter"/>
                           <system value="urn:oid:2.16.840.1.113883.2.4.4.1.900.2"/>
                           <code value="233"/>
                        </valueQuantity>
                     </extension>
                     <value value="10"/>
                     <unit value="milliliter"/>
                     <system value="http://unitsofmeasure.org"/>
                     <code value="ml"/>
                  </doseQuantity>
               </doseAndRate>
            </dosageInstruction>
         </MedicationRequest>
      </resource>
      <search>
         <mode value="match"/>
      </search>
   </entry>
   <entry>
      <fullUrl value="urn:uuid:ca2e8253-2dd4-11ec-1511-020000000000"/>
      <resource>
         <MedicationRequest>
            <meta>
               <profile value="http://nictiz.nl/fhir/StructureDefinition/nl-core-MedicationAgreement"/>
            </meta>
            <extension url="http://nictiz.nl/fhir/StructureDefinition/ext-RenderedDosageInstruction">
               <valueString value="Vanaf &lt;T-50D{00:00:00}&gt;t/m &lt;T-11D{23:59:59}&gt;, 2 maal per dag 50 ml, oraal"/>
            </extension>
            <extension url="http://nictiz.nl/fhir/StructureDefinition/ext-TimeInterval-Period">
               <valuePeriod>
                  <start value="${DATE, T, D, -50}T00:00:00+02:00"/>
                  <end value="${DATE, T, D, -11}T23:59:59+02:00"/>
               </valuePeriod>
            </extension>
            <status value="unknown"/>
            <intent value="order"/>
            <category>
               <coding>
                  <system value="http://snomed.info/sct"/>
                  <code value="16076005"/>
                  <display value="voorschrijven"/>
               </coding>
            </category>
            <medicationReference>
               <reference value="urn:uuid:ca2e7164-2dd4-11ec-1511-020000000000"/>
               <type value="Medication"/>
               <display value="VLOEIBARE VOEDING MET O.A. VITAMINE K"/>
            </medicationReference>
            <subject>
               <reference value="urn:uuid:ca2e70ba-2dd4-11ec-1511-020000000000"/>
               <type value="Patient"/>
               <display value="Patient, B. XXX_Blik"/>
            </subject>
            <authoredOn value="${DATE, T, D, -50}T08:10:00+02:00"/>
            <requester>
               <reference value="urn:uuid:ca2e70e2-2dd4-11ec-1511-020000000000"/>
               <type value="PractitionerRole"/>
               <display value="zorgverlener"/>
            </requester>
            <dosageInstruction>
               <timing>
                  <repeat>
                     <period value="1"/>
                     <periodUnit value="d"/>
                  </repeat>
               </timing>
               <route>
                  <coding>
                     <system value="urn:oid:2.16.840.1.113883.2.4.4.9"/>
                     <code value="9"/>
                     <display value="oraal"/>
                  </coding>
               </route>
               <doseAndRate>
                  <doseQuantity>
                     <extension url="http://hl7.org/fhir/StructureDefinition/iso21090-PQ-translation">
                        <valueQuantity>
                           <value value="50"/>
                           <unit value="milliliter"/>
                           <system value="urn:oid:2.16.840.1.113883.2.4.4.1.900.2"/>
                           <code value="233"/>
                        </valueQuantity>
                     </extension>
                     <value value="50"/>
                     <unit value="milliliter"/>
                     <system value="http://unitsofmeasure.org"/>
                     <code value="ml"/>
                  </doseQuantity>
               </doseAndRate>
            </dosageInstruction>
         </MedicationRequest>
      </resource>
      <search>
         <mode value="match"/>
      </search>
   </entry>
   <entry>
      <fullUrl value="urn:uuid:ca2e6ee7-2dd4-11ec-1511-020000000000"/>
      <resource>
         <MedicationRequest>
            <meta>
               <profile value="http://nictiz.nl/fhir/StructureDefinition/nl-core-MedicationAgreement"/>
            </meta>
            <extension url="http://nictiz.nl/fhir/StructureDefinition/ext-RenderedDosageInstruction">
               <valueString value="Vanaf &lt;T-10D{00:00:00}&gt; t/m &lt;T+19D{23:59:59}&gt;, 1 keer per dag 1 stuk, oraal"/>
            </extension>
            <extension url="http://nictiz.nl/fhir/StructureDefinition/ext-TimeInterval-Period">
               <valuePeriod>
                  <start value="${DATE, T, D, -10}T00:00:00+02:00"/>
                  <end value="${DATE, T, D, +19}T23:59:59+02:00"/>
               </valuePeriod>
            </extension>
            <status value="unknown"/>
            <intent value="order"/>
            <category>
               <coding>
                  <system value="http://snomed.info/sct"/>
                  <code value="16076005"/>
                  <display value="voorschrijven"/>
               </coding>
            </category>
            <medicationReference>
               <reference value="urn:uuid:ca2e7182-2dd4-11ec-1511-020000000000"/>
               <type value="Medication"/>
               <display value="ACETYLSALICYLZUUR TABLET 100MG"/>
            </medicationReference>
            <subject>
               <reference value="urn:uuid:ca2e70ba-2dd4-11ec-1511-020000000000"/>
               <type value="Patient"/>
               <display value="Patient, B. XXX_Blik"/>
            </subject>
            <authoredOn value="${DATE, T, D, -10}T08:12:00+02:00"/>
            <requester>
               <reference value="urn:uuid:ca2e70e2-2dd4-11ec-1511-020000000000"/>
               <type value="PractitionerRole"/>
               <display value="zorgverlener"/>
            </requester>
            <dosageInstruction>
               <timing>
                  <repeat>
                     <period value="1"/>
                     <periodUnit value="d"/>
                  </repeat>
               </timing>
               <route>
                  <coding>
                     <system value="urn:oid:2.16.840.1.113883.2.4.4.9"/>
                     <code value="9"/>
                     <display value="oraal"/>
                  </coding>
               </route>
               <doseAndRate>
                  <doseQuantity>
                     <extension url="http://hl7.org/fhir/StructureDefinition/iso21090-PQ-translation">
                        <valueQuantity>
                           <value value="1"/>
                           <unit value="stuk"/>
                           <system value="urn:oid:2.16.840.1.113883.2.4.4.1.900.2"/>
                           <code value="245"/>
                        </valueQuantity>
                     </extension>
                     <value value="1"/>
                     <unit value="stuk"/>
                     <system value="http://unitsofmeasure.org"/>
                     <code value="1"/>
                  </doseQuantity>
               </doseAndRate>
            </dosageInstruction>
         </MedicationRequest>
      </resource>
      <search>
         <mode value="match"/>
      </search>
   </entry>
   <entry>
      <fullUrl value="urn:uuid:ca2e6f02-2dd4-11ec-1511-020000000000"/>
      <resource>
         <MedicationRequest>
            <meta>
               <profile value="http://nictiz.nl/fhir/StructureDefinition/nl-core-MedicationAgreement"/>
            </meta>
            <extension url="http://nictiz.nl/fhir/StructureDefinition/ext-RenderedDosageInstruction">
               <valueString value="Vanaf &lt;T-50D{00:00:00}&gt;, gedurende 7 dagen, 4 maal per dag 3 stuks"/>
            </extension>
            <extension url="http://nictiz.nl/fhir/StructureDefinition/ext-TimeInterval-Period">
               <valuePeriod>
                  <start value="${DATE, T, D, -50}T00:00:00+02:00"/>
               </valuePeriod>
            </extension>
            <status value="active"/>
            <intent value="order"/>
            <category>
               <coding>
                  <system value="http://snomed.info/sct"/>
                  <code value="16076005"/>
                  <display value="voorschrijven"/>
               </coding>
            </category>
            <medicationReference>
               <reference value="urn:uuid:ca2e71a0-2dd4-11ec-1511-020000000000"/>
               <type value="Medication"/>
               <display value="PARACETAMOL 500MG TABLET"/>
            </medicationReference>
            <subject>
               <reference value="urn:uuid:ca2e70ba-2dd4-11ec-1511-020000000000"/>
               <type value="Patient"/>
               <display value="Patient, B. XXX_Blik"/>
            </subject>
            <authoredOn value="${DATE, T, D, -50}T08:15:00+02:00"/>
            <requester>
               <reference value="urn:uuid:ca2e70e2-2dd4-11ec-1511-020000000000"/>
               <type value="PractitionerRole"/>
               <display value="zorgverlener"/>
            </requester>
            <dosageInstruction>
               <timing>
                  <repeat>
                     <period value="1"/>
                     <periodUnit value="d"/>
                  </repeat>
               </timing>
               <route>
                  <coding>
                     <system value="urn:oid:2.16.840.1.113883.2.4.4.9"/>
                     <code value="9"/>
                     <display value="oraal"/>
                  </coding>
               </route>
               <doseAndRate>
                  <doseQuantity>
                     <extension url="http://hl7.org/fhir/StructureDefinition/iso21090-PQ-translation">
                        <valueQuantity>
                           <value value="2"/>
                           <unit value="stuk"/>
                           <system value="urn:oid:2.16.840.1.113883.2.4.4.1.900.2"/>
                           <code value="245"/>
                        </valueQuantity>
                     </extension>
                     <value value="2"/>
                     <unit value="stuk"/>
                     <system value="http://unitsofmeasure.org"/>
                     <code value="1"/>
                  </doseQuantity>
               </doseAndRate>
            </dosageInstruction>
         </MedicationRequest>
      </resource>
      <search>
         <mode value="match"/>
      </search>
   </entry>
   <entry>
      <fullUrl value="urn:uuid:ca2e6f1d-2dd4-11ec-1511-020000000000"/>
      <resource>
         <MedicationRequest>
            <meta>
               <profile value="http://nictiz.nl/fhir/StructureDefinition/nl-core-MedicationAgreement"/>
            </meta>
            <extension url="http://nictiz.nl/fhir/StructureDefinition/ext-RenderedDosageInstruction">
               <valueString value="Vanaf &lt;T-5D{00:00:00}&gt; t/m &lt;T+1D{23:59:59}&gt;, 3 maal per dag 1 stuk"/>
            </extension>
            <extension url="http://nictiz.nl/fhir/StructureDefinition/ext-TimeInterval-Period">
               <valuePeriod>
                  <start value="${DATE, T, D, -5}T00:00:00+02:00"/>
                  <end value="${DATE, T, D, +1}T23:59:59+02:00"/>
               </valuePeriod>
            </extension>
            <status value="unknown"/>
            <intent value="order"/>
            <category>
               <coding>
                  <system value="http://snomed.info/sct"/>
                  <code value="16076005"/>
                  <display value="voorschrijven"/>
               </coding>
            </category>
            <medicationReference>
               <reference value="urn:uuid:ca2e71be-2dd4-11ec-1511-020000000000"/>
               <type value="Medication"/>
               <display value="OXAZEPAM TABLET 10MG"/>
            </medicationReference>
            <subject>
               <reference value="urn:uuid:ca2e70ba-2dd4-11ec-1511-020000000000"/>
               <type value="Patient"/>
               <display value="Patient, B. XXX_Blik"/>
            </subject>
            <authoredOn value="${DATE, T, D, -5}T08:18:00+02:00"/>
            <requester>
               <reference value="urn:uuid:ca2e70e2-2dd4-11ec-1511-020000000000"/>
               <type value="PractitionerRole"/>
               <display value="zorgverlener"/>
            </requester>
            <dosageInstruction>
               <timing>
                  <repeat>
                     <period value="1"/>
                     <periodUnit value="d"/>
                  </repeat>
               </timing>
               <route>
                  <coding>
                     <system value="urn:oid:2.16.840.1.113883.2.4.4.9"/>
                     <code value="9"/>
                     <display value="oraal"/>
                  </coding>
               </route>
               <doseAndRate>
                  <doseQuantity>
                     <extension url="http://hl7.org/fhir/StructureDefinition/iso21090-PQ-translation">
                        <valueQuantity>
                           <value value="1"/>
                           <unit value="stuk"/>
                           <system value="urn:oid:2.16.840.1.113883.2.4.4.1.900.2"/>
                           <code value="245"/>
                        </valueQuantity>
                     </extension>
                     <value value="1"/>
                     <unit value="stuk"/>
                     <system value="http://unitsofmeasure.org"/>
                     <code value="1"/>
                  </doseQuantity>
               </doseAndRate>
            </dosageInstruction>
         </MedicationRequest>
      </resource>
      <search>
         <mode value="match"/>
      </search>
   </entry>
   <entry>
      <fullUrl value="urn:uuid:ca2e70ba-2dd4-11ec-1511-020000000000"/>
      <resource>
         <Patient>
            <id value="B-XXX-BLIK"/>
            <meta>
               <profile value="http://nictiz.nl/fhir/StructureDefinition/nl-core-Patient"/>
            </meta>
            <identifier>
               <system value="http://fhir.nl/fhir/NamingSystem/bsn"/>
               <value>
                  <extension url="http://hl7.org/fhir/StructureDefinition/data-absent-reason">
                     <valueCode value="masked"/>
                  </extension>
               </value>
            </identifier>
            <name><!--Processing zib-NameInformation is paused until https://github.com/Nictiz/Nictiz-R4-zib2020/issues/82 is resolved.-->
               <text value="TODO"/>
            </name>
            <gender value="female">
               <extension url="http://nictiz.nl/fhir/StructureDefinition/ext-CodeSpecification">
                  <valueCodeableConcept>
                     <coding>
                        <system value="http://terminology.hl7.org/CodeSystem/v3-AdministrativeGender"/>
                        <code value="F"/>
                        <display value="Vrouw"/>
                     </coding>
                  </valueCodeableConcept>
               </extension>
            </gender>
            <birthDate value="1963-10-13"/>
         </Patient>
      </resource>
   </entry>
   <entry>
      <fullUrl value="urn:uuid:ca2e70e2-2dd4-11ec-1511-020000000000"/>
      <resource>
         <PractitionerRole>
            <id value="ca2e70d8-2dd4-11ec-1511-020000000000"/>
            <meta>
               <profile value="http://nictiz.nl/fhir/StructureDefinition/nl-core-HealthProfessional-PractitionerRole"/>
            </meta>
            <practitioner>
               <reference value="urn:uuid:ca2e710a-2dd4-11ec-1511-020000000000"/>
               <type value="Practitioner"/>
               <display value="zorgverlener"/>
            </practitioner>
            <organization>
               <reference value="urn:uuid:ca2e720e-2dd4-11ec-1511-020000000000"/>
               <type value="Location"/>
               <display value="Huisartsenpraktijk Pulver &amp; Partners"/>
            </organization>
            <specialty>
               <coding>
                  <system value="urn:oid:2.16.840.1.113883.2.4.6.7"/>
                  <version value="2020-10-23T00:00:00"/>
                  <code value="0100"/>
                  <display value="Huisartsen, niet nader gespecificeerd"/>
               </coding>
            </specialty>
         </PractitionerRole>
      </resource>
   </entry>
   <entry>
      <fullUrl value="urn:uuid:ca2e710a-2dd4-11ec-1511-020000000000"/>
      <resource>
         <Practitioner>
            <id value="ca2e7100-2dd4-11ec-1511-020000000000"/>
            <meta>
               <profile value="http://nictiz.nl/fhir/StructureDefinition/nl-core-HealthProfessional-Practitioner"/>
            </meta>
            <identifier>
               <system value="http://fhir.nl/fhir/NamingSystem/uzi-nr-pers"/>
               <value value="000001111"/>
            </identifier>
            <name><!--Processing zib-NameInformation is paused until https://github.com/Nictiz/Nictiz-R4-zib2020/issues/82 is resolved.-->
               <text value="TODO"/>
            </name>
         </Practitioner>
      </resource>
   </entry>
   <entry>
      <fullUrl value="urn:uuid:ca2e71e6-2dd4-11ec-1511-020000000000"/>
      <resource>
         <Organization>
            <id value="ca2e71dc-2dd4-11ec-1511-020000000000"/>
            <meta>
               <profile value="http://nictiz.nl/fhir/StructureDefinition/nl-core-HealthcareProvider-Organization"/>
            </meta>
            <identifier>
               <system value="http://fhir.nl/fhir/NamingSystem/ura"/>
               <value value="00001111"/>
            </identifier>
            <name value="Huisartsenpraktijk Pulver &amp; Partners"/>
            <address>
               <extension url="http://nictiz.nl/fhir/StructureDefinition/ext-AddressInformation.AddressType">
                  <valueCodeableConcept>
                     <coding>
                        <system value="http://terminology.hl7.org/CodeSystem/v3-AddressUse"/>
                        <code value="WP"/>
                        <display value="Werkadres"/>
                     </coding>
                  </valueCodeableConcept>
               </extension>
               <use value="work"/>
               <line value="Dorpsstraat 1">
                  <extension url="http://hl7.org/fhir/StructureDefinition/iso21090-ADXP-streetName">
                     <valueString value="Dorpsstraat"/>
                  </extension>
                  <extension url="http://hl7.org/fhir/StructureDefinition/iso21090-ADXP-houseNumber">
                     <valueString value="1"/>
                  </extension>
               </line>
               <city value="Ons Dorp"/>
               <postalCode value="1234AA"/>
            </address>
         </Organization>
      </resource>
   </entry>
</Bundle>
