<Bundle xmlns="http://hl7.org/fhir">
   <id value="mg-mgrp-999900948-ALL"/>
   <type value="transaction"/>
   <entry>
<<<<<<< HEAD:ada_2_fhir-r4/mp/9.2.0/beschikbaarstellen_medicatiegegevens/fhir_instance/mg-mgrp-999900614-ALL.xml
      <fullUrl value="urn:uuid:c33f191e-6a95-11ec-0000-020000000000"/>
      <resource>
         <MedicationRequest>
            <id value="mp-MedAgr-mp9-c33f026c-6a95-11ec-0000-020000000000"/>
=======
      <fullUrl value="urn:uuid:c33f1874-6a95-11ec-0000-020000000000"/>
      <resource>
         <MedicationRequest>
>>>>>>> origin/master:ada_2_fhir-r4/mp/9.2.0/beschikbaarstellen_medicatiegegevens/fhir_instance/mg-mgrp-999900948-ALL.xml
            <meta>
               <profile value="http://nictiz.nl/fhir/StructureDefinition/mp-MedicationAgreement"/>
            </meta>
            <extension url="http://nictiz.nl/fhir/StructureDefinition/ext-RenderedDosageInstruction">
               <valueString value="Vanaf T, tot en met T + 31 dagen, Zo nodig, cutaan"/>
            </extension>
            <extension url="http://nictiz.nl/fhir/StructureDefinition/ext-TimeInterval.Period">
               <valuePeriod>
                  <start value="${DATE, T, D, +0}T00:00:00+02:00"/>
                  <end value="${DATE, T, D, +31}T23:59:59+02:00"/>
               </valuePeriod>
            </extension>
            <extension url="http://nictiz.nl/fhir/StructureDefinition/ext-PharmaceuticalTreatment.Identifier">
               <valueIdentifier>
                  <system value="urn:oid:2.16.840.1.113883.2.4.3.11.999.77.1.1"/>
                  <value value="MBH_200_magistraalalleingredienten"/>
               </valueIdentifier>
            </extension>
            <identifier>
               <system value="urn:oid:2.16.840.1.113883.2.4.3.11.999.77.16076005.1"/>
               <value value="MBH_200_magistraalalleingredienten_MA"/>
            </identifier>
            <status value="unknown"/>
            <intent value="order"/>
            <category>
               <coding>
                  <system value="http://snomed.info/sct"/>
                  <code value="33633005"/>
                  <display value="voorschrijven van geneesmiddel"/>
               </coding>
            </category>
            <medicationReference>
<<<<<<< HEAD:ada_2_fhir-r4/mp/9.2.0/beschikbaarstellen_medicatiegegevens/fhir_instance/mg-mgrp-999900614-ALL.xml
               <reference value="urn:uuid:c33f1a86-6a95-11ec-0000-020000000000"/>
=======
               <reference value="urn:uuid:c33f19dc-6a95-11ec-0000-020000000000"/>
>>>>>>> origin/master:ada_2_fhir-r4/mp/9.2.0/beschikbaarstellen_medicatiegegevens/fhir_instance/mg-mgrp-999900948-ALL.xml
               <type value="Medication"/>
               <display value="overig"/>
            </medicationReference>
            <subject>
<<<<<<< HEAD:ada_2_fhir-r4/mp/9.2.0/beschikbaarstellen_medicatiegegevens/fhir_instance/mg-mgrp-999900614-ALL.xml
               <reference value="urn:uuid:c33f182e-6a95-11ec-0000-020000000000"/>
=======
               <reference value="urn:uuid:c33f181a-6a95-11ec-0000-020000000000"/>
>>>>>>> origin/master:ada_2_fhir-r4/mp/9.2.0/beschikbaarstellen_medicatiegegevens/fhir_instance/mg-mgrp-999900948-ALL.xml
               <type value="Patient"/>
               <display value="Patient, M. van de XXX_Rambaran Mishre"/>
            </subject>
            <authoredOn value="${DATE, T, D, +0}T12:00:00+02:00"/>
            <requester>
<<<<<<< HEAD:ada_2_fhir-r4/mp/9.2.0/beschikbaarstellen_medicatiegegevens/fhir_instance/mg-mgrp-999900614-ALL.xml
               <reference value="urn:uuid:c33f1856-6a95-11ec-0000-020000000000"/>
=======
               <reference value="urn:uuid:c33f1838-6a95-11ec-0000-020000000000"/>
>>>>>>> origin/master:ada_2_fhir-r4/mp/9.2.0/beschikbaarstellen_medicatiegegevens/fhir_instance/mg-mgrp-999900948-ALL.xml
               <type value="PractitionerRole"/>
               <display value="Healthcare professional (role), Peter van Pulver, Huisartsen, niet nader gespecificeerd, Huisartsenpraktijk Pulver &amp; Partners"/>
            </requester>
            <dosageInstruction>
               <asNeededCodeableConcept>
                  <coding>
                     <system value="https://referentiemodel.nhg.org/tabellen/nhg-tabel-25-gebruiksvoorschrift#aanvullend-numeriek"/>
                     <code value="1137"/>
                     <display value="Zo nodig"/>
                  </coding>
               </asNeededCodeableConcept>
               <route>
                  <coding>
                     <system value="urn:oid:2.16.840.1.113883.2.4.4.9"/>
                     <code value="53"/>
                     <display value="cutaan"/>
                  </coding>
               </route>
            </dosageInstruction>
         </MedicationRequest>
      </resource>
      <request>
         <method value="POST"/>
         <url value="MedicationRequest"/>
      </request>
   </entry>
   <entry>
<<<<<<< HEAD:ada_2_fhir-r4/mp/9.2.0/beschikbaarstellen_medicatiegegevens/fhir_instance/mg-mgrp-999900614-ALL.xml
      <fullUrl value="urn:uuid:c33f193c-6a95-11ec-0000-020000000000"/>
      <resource>
         <MedicationRequest>
            <id value="mp-MedAgr-mp9-c33f02af-6a95-11ec-0000-020000000000"/>
=======
      <fullUrl value="urn:uuid:c33f1892-6a95-11ec-0000-020000000000"/>
      <resource>
         <MedicationRequest>
>>>>>>> origin/master:ada_2_fhir-r4/mp/9.2.0/beschikbaarstellen_medicatiegegevens/fhir_instance/mg-mgrp-999900948-ALL.xml
            <meta>
               <profile value="http://nictiz.nl/fhir/StructureDefinition/mp-MedicationAgreement"/>
            </meta>
            <extension url="http://nictiz.nl/fhir/StructureDefinition/ext-RenderedDosageInstruction">
               <valueString value="Vanaf T + 1 dag, tot en met T + 70 dagen, 1 maal per dag, cutaan"/>
            </extension>
            <extension url="http://nictiz.nl/fhir/StructureDefinition/ext-TimeInterval.Period">
               <valuePeriod>
                  <start value="${DATE, T, D, +1}T00:00:00+02:00"/>
                  <end value="${DATE, T, D, +70}T23:59:59+02:00"/>
               </valuePeriod>
            </extension>
            <extension url="http://nictiz.nl/fhir/StructureDefinition/ext-PharmaceuticalTreatment.Identifier">
               <valueIdentifier>
                  <system value="urn:oid:2.16.840.1.113883.2.4.3.11.999.77.1.1"/>
                  <value value="MBH_200_magistraalactieveingredient"/>
               </valueIdentifier>
            </extension>
            <identifier>
               <system value="urn:oid:2.16.840.1.113883.2.4.3.11.999.77.16076005.1"/>
               <value value="MBH_200_magistraalactieveingredient_MA"/>
            </identifier>
            <status value="unknown"/>
            <intent value="order"/>
            <category>
               <coding>
                  <system value="http://snomed.info/sct"/>
                  <code value="33633005"/>
                  <display value="voorschrijven van geneesmiddel"/>
               </coding>
            </category>
            <medicationReference>
<<<<<<< HEAD:ada_2_fhir-r4/mp/9.2.0/beschikbaarstellen_medicatiegegevens/fhir_instance/mg-mgrp-999900614-ALL.xml
               <reference value="urn:uuid:c33f1aa4-6a95-11ec-0000-020000000000"/>
=======
               <reference value="urn:uuid:c33f19fa-6a95-11ec-0000-020000000000"/>
>>>>>>> origin/master:ada_2_fhir-r4/mp/9.2.0/beschikbaarstellen_medicatiegegevens/fhir_instance/mg-mgrp-999900948-ALL.xml
               <type value="Medication"/>
               <display value="overig"/>
            </medicationReference>
            <subject>
<<<<<<< HEAD:ada_2_fhir-r4/mp/9.2.0/beschikbaarstellen_medicatiegegevens/fhir_instance/mg-mgrp-999900614-ALL.xml
               <reference value="urn:uuid:c33f182e-6a95-11ec-0000-020000000000"/>
=======
               <reference value="urn:uuid:c33f181a-6a95-11ec-0000-020000000000"/>
>>>>>>> origin/master:ada_2_fhir-r4/mp/9.2.0/beschikbaarstellen_medicatiegegevens/fhir_instance/mg-mgrp-999900948-ALL.xml
               <type value="Patient"/>
               <display value="Patient, M. van de XXX_Rambaran Mishre"/>
            </subject>
            <authoredOn value="${DATE, T, D, +0}T12:05:00+02:00"/>
            <requester>
<<<<<<< HEAD:ada_2_fhir-r4/mp/9.2.0/beschikbaarstellen_medicatiegegevens/fhir_instance/mg-mgrp-999900614-ALL.xml
               <reference value="urn:uuid:c33f1856-6a95-11ec-0000-020000000000"/>
=======
               <reference value="urn:uuid:c33f1838-6a95-11ec-0000-020000000000"/>
>>>>>>> origin/master:ada_2_fhir-r4/mp/9.2.0/beschikbaarstellen_medicatiegegevens/fhir_instance/mg-mgrp-999900948-ALL.xml
               <type value="PractitionerRole"/>
               <display value="Healthcare professional (role), Peter van Pulver, Huisartsen, niet nader gespecificeerd, Huisartsenpraktijk Pulver &amp; Partners"/>
            </requester>
            <dosageInstruction>
               <timing>
                  <repeat>
                     <frequency value="1"/>
                     <period value="1"/>
                     <periodUnit value="d"/>
                  </repeat>
               </timing>
               <route>
                  <coding>
                     <system value="urn:oid:2.16.840.1.113883.2.4.4.9"/>
                     <code value="53"/>
                     <display value="cutaan"/>
                  </coding>
               </route>
            </dosageInstruction>
         </MedicationRequest>
      </resource>
      <request>
         <method value="POST"/>
         <url value="MedicationRequest"/>
      </request>
   </entry>
   <entry>
<<<<<<< HEAD:ada_2_fhir-r4/mp/9.2.0/beschikbaarstellen_medicatiegegevens/fhir_instance/mg-mgrp-999900614-ALL.xml
      <fullUrl value="urn:uuid:c33f195a-6a95-11ec-0000-020000000000"/>
      <resource>
         <MedicationRequest>
            <id value="9-21684011138832431199977160760051-MBH200magistraal90miljoennrMA"/>
=======
      <fullUrl value="urn:uuid:c33f18b0-6a95-11ec-0000-020000000000"/>
      <resource>
         <MedicationRequest>
>>>>>>> origin/master:ada_2_fhir-r4/mp/9.2.0/beschikbaarstellen_medicatiegegevens/fhir_instance/mg-mgrp-999900948-ALL.xml
            <meta>
               <profile value="http://nictiz.nl/fhir/StructureDefinition/mp-MedicationAgreement"/>
            </meta>
            <extension url="http://nictiz.nl/fhir/StructureDefinition/ext-RenderedDosageInstruction">
               <valueString value="Vanaf T, tot en met T + 30 dagen, 1 maal per dag, cutaan"/>
            </extension>
            <extension url="http://nictiz.nl/fhir/StructureDefinition/ext-TimeInterval.Period">
               <valuePeriod>
                  <start value="${DATE, T, D, +0}T00:00:00+02:00"/>
                  <end value="${DATE, T, D, +30}T23:59:59+02:00"/>
               </valuePeriod>
            </extension>
            <extension url="http://nictiz.nl/fhir/StructureDefinition/ext-PharmaceuticalTreatment.Identifier">
               <valueIdentifier>
                  <system value="urn:oid:2.16.840.1.113883.2.4.3.11.999.77.1.1"/>
                  <value value="MBH_200_magistraal90miljoennr"/>
               </valueIdentifier>
            </extension>
            <identifier>
               <system value="urn:oid:2.16.840.1.113883.2.4.3.11.999.77.16076005.1"/>
               <value value="MBH_200_magistraal90miljoennr_MA"/>
            </identifier>
            <status value="unknown"/>
            <intent value="order"/>
            <category>
               <coding>
                  <system value="http://snomed.info/sct"/>
                  <code value="33633005"/>
                  <display value="voorschrijven van geneesmiddel"/>
               </coding>
            </category>
            <medicationReference>
<<<<<<< HEAD:ada_2_fhir-r4/mp/9.2.0/beschikbaarstellen_medicatiegegevens/fhir_instance/mg-mgrp-999900614-ALL.xml
               <reference value="urn:uuid:c33f1ac2-6a95-11ec-0000-020000000000"/>
=======
               <reference value="urn:uuid:c33f1a18-6a95-11ec-0000-020000000000"/>
>>>>>>> origin/master:ada_2_fhir-r4/mp/9.2.0/beschikbaarstellen_medicatiegegevens/fhir_instance/mg-mgrp-999900948-ALL.xml
               <type value="Medication"/>
               <display value="Eigen artikel: ureumzalf"/>
            </medicationReference>
            <subject>
<<<<<<< HEAD:ada_2_fhir-r4/mp/9.2.0/beschikbaarstellen_medicatiegegevens/fhir_instance/mg-mgrp-999900614-ALL.xml
               <reference value="urn:uuid:c33f182e-6a95-11ec-0000-020000000000"/>
=======
               <reference value="urn:uuid:c33f181a-6a95-11ec-0000-020000000000"/>
>>>>>>> origin/master:ada_2_fhir-r4/mp/9.2.0/beschikbaarstellen_medicatiegegevens/fhir_instance/mg-mgrp-999900948-ALL.xml
               <type value="Patient"/>
               <display value="Patient, M. van de XXX_Rambaran Mishre"/>
            </subject>
            <authoredOn value="${DATE, T, D, +0}T12:08:00+02:00"/>
            <requester>
<<<<<<< HEAD:ada_2_fhir-r4/mp/9.2.0/beschikbaarstellen_medicatiegegevens/fhir_instance/mg-mgrp-999900614-ALL.xml
               <reference value="urn:uuid:c33f1856-6a95-11ec-0000-020000000000"/>
=======
               <reference value="urn:uuid:c33f1838-6a95-11ec-0000-020000000000"/>
>>>>>>> origin/master:ada_2_fhir-r4/mp/9.2.0/beschikbaarstellen_medicatiegegevens/fhir_instance/mg-mgrp-999900948-ALL.xml
               <type value="PractitionerRole"/>
               <display value="Healthcare professional (role), Peter van Pulver, Huisartsen, niet nader gespecificeerd, Huisartsenpraktijk Pulver &amp; Partners"/>
            </requester>
            <dosageInstruction>
               <timing>
                  <repeat>
                     <frequency value="1"/>
                     <period value="1"/>
                     <periodUnit value="d"/>
                  </repeat>
               </timing>
               <route>
                  <coding>
                     <system value="urn:oid:2.16.840.1.113883.2.4.4.9"/>
                     <code value="53"/>
                     <display value="cutaan"/>
                  </coding>
               </route>
            </dosageInstruction>
         </MedicationRequest>
      </resource>
      <request>
         <method value="POST"/>
         <url value="MedicationRequest"/>
      </request>
   </entry>
   <entry>
<<<<<<< HEAD:ada_2_fhir-r4/mp/9.2.0/beschikbaarstellen_medicatiegegevens/fhir_instance/mg-mgrp-999900614-ALL.xml
      <fullUrl value="urn:uuid:c33f1978-6a95-11ec-0000-020000000000"/>
      <resource>
         <MedicationRequest>
            <id value="mp-DspReq-mp9-c33f027e-6a95-11ec-0000-020000000000"/>
=======
      <fullUrl value="urn:uuid:c33f18ce-6a95-11ec-0000-020000000000"/>
      <resource>
         <MedicationRequest>
>>>>>>> origin/master:ada_2_fhir-r4/mp/9.2.0/beschikbaarstellen_medicatiegegevens/fhir_instance/mg-mgrp-999900948-ALL.xml
            <meta>
               <profile value="http://nictiz.nl/fhir/StructureDefinition/mp-DispenseRequest"/>
            </meta>
            <extension url="http://nictiz.nl/fhir/StructureDefinition/ext-PharmaceuticalTreatment.Identifier">
               <valueIdentifier>
                  <system value="urn:oid:2.16.840.1.113883.2.4.3.11.999.77.1.1"/>
                  <value value="MBH_200_magistraalalleingredienten"/>
               </valueIdentifier>
            </extension>
            <identifier>
               <system value="urn:oid:2.16.840.1.113883.2.4.3.11.999.77.52711000146108.1"/>
               <value value="MBH_200_magistraalalleingredienten_VV"/>
            </identifier>
            <status value="unknown"/>
            <intent value="order"/>
            <category>
               <coding>
                  <system value="http://snomed.info/sct"/>
                  <code value="52711000146108"/>
                  <display value="verstrekkingsverzoek"/>
               </coding>
            </category>
            <medicationReference>
<<<<<<< HEAD:ada_2_fhir-r4/mp/9.2.0/beschikbaarstellen_medicatiegegevens/fhir_instance/mg-mgrp-999900614-ALL.xml
               <reference value="urn:uuid:c33f1a86-6a95-11ec-0000-020000000000"/>
=======
               <reference value="urn:uuid:c33f19dc-6a95-11ec-0000-020000000000"/>
>>>>>>> origin/master:ada_2_fhir-r4/mp/9.2.0/beschikbaarstellen_medicatiegegevens/fhir_instance/mg-mgrp-999900948-ALL.xml
               <type value="Medication"/>
               <display value="overig"/>
            </medicationReference>
            <subject>
<<<<<<< HEAD:ada_2_fhir-r4/mp/9.2.0/beschikbaarstellen_medicatiegegevens/fhir_instance/mg-mgrp-999900614-ALL.xml
               <reference value="urn:uuid:c33f182e-6a95-11ec-0000-020000000000"/>
=======
               <reference value="urn:uuid:c33f181a-6a95-11ec-0000-020000000000"/>
>>>>>>> origin/master:ada_2_fhir-r4/mp/9.2.0/beschikbaarstellen_medicatiegegevens/fhir_instance/mg-mgrp-999900948-ALL.xml
               <type value="Patient"/>
               <display value="Patient, M. van de XXX_Rambaran Mishre"/>
            </subject>
            <authoredOn value="${DATE, T, D, +0}T12:00:00+02:00"/>
            <requester>
<<<<<<< HEAD:ada_2_fhir-r4/mp/9.2.0/beschikbaarstellen_medicatiegegevens/fhir_instance/mg-mgrp-999900614-ALL.xml
               <reference value="urn:uuid:c33f1856-6a95-11ec-0000-020000000000"/>
=======
               <reference value="urn:uuid:c33f1838-6a95-11ec-0000-020000000000"/>
>>>>>>> origin/master:ada_2_fhir-r4/mp/9.2.0/beschikbaarstellen_medicatiegegevens/fhir_instance/mg-mgrp-999900948-ALL.xml
               <type value="PractitionerRole"/>
               <display value="Healthcare professional (role), Peter van Pulver, Huisartsen, niet nader gespecificeerd, Huisartsenpraktijk Pulver &amp; Partners"/>
            </requester>
            <performer>
<<<<<<< HEAD:ada_2_fhir-r4/mp/9.2.0/beschikbaarstellen_medicatiegegevens/fhir_instance/mg-mgrp-999900614-ALL.xml
               <reference value="urn:uuid:c33f18e2-6a95-11ec-0000-020000000000"/>
=======
               <reference value="urn:uuid:c33f1a72-6a95-11ec-0000-020000000000"/>
>>>>>>> origin/master:ada_2_fhir-r4/mp/9.2.0/beschikbaarstellen_medicatiegegevens/fhir_instance/mg-mgrp-999900948-ALL.xml
               <type value="Organization"/>
               <display value="Healthcare provider (organization), Apotheek De Gulle Gaper"/>
            </performer>
            <basedOn>
               <type value="MedicationRequest"/>
               <identifier>
                  <system value="urn:oid:2.16.840.1.113883.2.4.3.11.999.77.16076005.1"/>
                  <value value="MBH_200_magistraalalleingredienten_MA"/>
               </identifier>
               <display value="relatie naar medicatieafspraak  met identificatie: MBH_200_magistraalalleingredienten_MA || 2.16.840.1.113883.2.4.3.11.999.77.16076005.1"/>
            </basedOn>
            <dispenseRequest>
               <quantity>
                  <extension url="http://hl7.org/fhir/StructureDefinition/iso21090-PQ-translation">
                     <valueQuantity>
                        <value value="100"/>
                        <unit value="milliliter"/>
                        <system value="urn:oid:2.16.840.1.113883.2.4.4.1.900.2"/>
                        <code value="233"/>
                     </valueQuantity>
                  </extension>
                  <value value="100"/>
                  <unit value="milliliter"/>
                  <system value="http://unitsofmeasure.org"/>
                  <code value="ml"/>
               </quantity>
            </dispenseRequest>
         </MedicationRequest>
      </resource>
      <request>
         <method value="POST"/>
         <url value="MedicationRequest"/>
      </request>
   </entry>
   <entry>
<<<<<<< HEAD:ada_2_fhir-r4/mp/9.2.0/beschikbaarstellen_medicatiegegevens/fhir_instance/mg-mgrp-999900614-ALL.xml
      <fullUrl value="urn:uuid:c33f1996-6a95-11ec-0000-020000000000"/>
      <resource>
         <MedicationRequest>
            <id value="mp-DspReq-mp9-c33f17db-6a95-11ec-0000-020000000000"/>
=======
      <fullUrl value="urn:uuid:c33f18ec-6a95-11ec-0000-020000000000"/>
      <resource>
         <MedicationRequest>
>>>>>>> origin/master:ada_2_fhir-r4/mp/9.2.0/beschikbaarstellen_medicatiegegevens/fhir_instance/mg-mgrp-999900948-ALL.xml
            <meta>
               <profile value="http://nictiz.nl/fhir/StructureDefinition/mp-DispenseRequest"/>
            </meta>
            <extension url="http://nictiz.nl/fhir/StructureDefinition/ext-PharmaceuticalTreatment.Identifier">
               <valueIdentifier>
                  <system value="urn:oid:2.16.840.1.113883.2.4.3.11.999.77.1.1"/>
                  <value value="MBH_200_magistraalactieveingredient"/>
               </valueIdentifier>
            </extension>
            <identifier>
               <system value="urn:oid:2.16.840.1.113883.2.4.3.11.999.77.52711000146108.1"/>
               <value value="MBH_200_magistraalactieveingredient_VV"/>
            </identifier>
            <status value="unknown"/>
            <intent value="order"/>
            <category>
               <coding>
                  <system value="http://snomed.info/sct"/>
                  <code value="52711000146108"/>
                  <display value="verstrekkingsverzoek"/>
               </coding>
            </category>
            <medicationReference>
<<<<<<< HEAD:ada_2_fhir-r4/mp/9.2.0/beschikbaarstellen_medicatiegegevens/fhir_instance/mg-mgrp-999900614-ALL.xml
               <reference value="urn:uuid:c33f1aa4-6a95-11ec-0000-020000000000"/>
=======
               <reference value="urn:uuid:c33f19fa-6a95-11ec-0000-020000000000"/>
>>>>>>> origin/master:ada_2_fhir-r4/mp/9.2.0/beschikbaarstellen_medicatiegegevens/fhir_instance/mg-mgrp-999900948-ALL.xml
               <type value="Medication"/>
               <display value="overig"/>
            </medicationReference>
            <subject>
<<<<<<< HEAD:ada_2_fhir-r4/mp/9.2.0/beschikbaarstellen_medicatiegegevens/fhir_instance/mg-mgrp-999900614-ALL.xml
               <reference value="urn:uuid:c33f182e-6a95-11ec-0000-020000000000"/>
=======
               <reference value="urn:uuid:c33f181a-6a95-11ec-0000-020000000000"/>
>>>>>>> origin/master:ada_2_fhir-r4/mp/9.2.0/beschikbaarstellen_medicatiegegevens/fhir_instance/mg-mgrp-999900948-ALL.xml
               <type value="Patient"/>
               <display value="Patient, M. van de XXX_Rambaran Mishre"/>
            </subject>
            <authoredOn value="${DATE, T, D, +0}T12:05:00+02:00"/>
            <requester>
<<<<<<< HEAD:ada_2_fhir-r4/mp/9.2.0/beschikbaarstellen_medicatiegegevens/fhir_instance/mg-mgrp-999900614-ALL.xml
               <reference value="urn:uuid:c33f1856-6a95-11ec-0000-020000000000"/>
=======
               <reference value="urn:uuid:c33f1838-6a95-11ec-0000-020000000000"/>
>>>>>>> origin/master:ada_2_fhir-r4/mp/9.2.0/beschikbaarstellen_medicatiegegevens/fhir_instance/mg-mgrp-999900948-ALL.xml
               <type value="PractitionerRole"/>
               <display value="Healthcare professional (role), Peter van Pulver, Huisartsen, niet nader gespecificeerd, Huisartsenpraktijk Pulver &amp; Partners"/>
            </requester>
            <performer>
<<<<<<< HEAD:ada_2_fhir-r4/mp/9.2.0/beschikbaarstellen_medicatiegegevens/fhir_instance/mg-mgrp-999900614-ALL.xml
               <reference value="urn:uuid:c33f18e2-6a95-11ec-0000-020000000000"/>
=======
               <reference value="urn:uuid:c33f1a72-6a95-11ec-0000-020000000000"/>
>>>>>>> origin/master:ada_2_fhir-r4/mp/9.2.0/beschikbaarstellen_medicatiegegevens/fhir_instance/mg-mgrp-999900948-ALL.xml
               <type value="Organization"/>
               <display value="Healthcare provider (organization), Apotheek De Gulle Gaper"/>
            </performer>
            <basedOn>
               <type value="MedicationRequest"/>
               <identifier>
                  <system value="urn:oid:2.16.840.1.113883.2.4.3.11.999.77.16076005.1"/>
                  <value value="MBH_200_magistraalactieveingredient_MA"/>
               </identifier>
               <display value="relatie naar medicatieafspraak  met identificatie: MBH_200_magistraalactieveingredient_MA || 2.16.840.1.113883.2.4.3.11.999.77.16076005.1"/>
            </basedOn>
            <dispenseRequest>
               <quantity>
                  <extension url="http://hl7.org/fhir/StructureDefinition/iso21090-PQ-translation">
                     <valueQuantity>
                        <value value="100"/>
                        <unit value="gram"/>
                        <system value="urn:oid:2.16.840.1.113883.2.4.4.1.900.2"/>
                        <code value="215"/>
                     </valueQuantity>
                  </extension>
                  <value value="100"/>
                  <unit value="gram"/>
                  <system value="http://unitsofmeasure.org"/>
                  <code value="g"/>
               </quantity>
            </dispenseRequest>
         </MedicationRequest>
      </resource>
      <request>
         <method value="POST"/>
         <url value="MedicationRequest"/>
      </request>
   </entry>
   <entry>
<<<<<<< HEAD:ada_2_fhir-r4/mp/9.2.0/beschikbaarstellen_medicatiegegevens/fhir_instance/mg-mgrp-999900614-ALL.xml
      <fullUrl value="urn:uuid:c33f19b4-6a95-11ec-0000-020000000000"/>
      <resource>
         <MedicationRequest>
            <id value="mp-DspReq-mp9-c33f1822-6a95-11ec-0000-020000000000"/>
=======
      <fullUrl value="urn:uuid:c33f190a-6a95-11ec-0000-020000000000"/>
      <resource>
         <MedicationRequest>
>>>>>>> origin/master:ada_2_fhir-r4/mp/9.2.0/beschikbaarstellen_medicatiegegevens/fhir_instance/mg-mgrp-999900948-ALL.xml
            <meta>
               <profile value="http://nictiz.nl/fhir/StructureDefinition/mp-DispenseRequest"/>
            </meta>
            <extension url="http://nictiz.nl/fhir/StructureDefinition/ext-PharmaceuticalTreatment.Identifier">
               <valueIdentifier>
                  <system value="urn:oid:2.16.840.1.113883.2.4.3.11.999.77.1.1"/>
                  <value value="MBH_200_magistraal90miljoennr"/>
               </valueIdentifier>
            </extension>
            <identifier>
               <system value="urn:oid:2.16.840.1.113883.2.4.3.11.999.77.52711000146108.1"/>
               <value value="MBH_200_magistraal90miljoennr_VV"/>
            </identifier>
            <status value="unknown"/>
            <intent value="order"/>
            <category>
               <coding>
                  <system value="http://snomed.info/sct"/>
                  <code value="52711000146108"/>
                  <display value="verstrekkingsverzoek"/>
               </coding>
            </category>
            <medicationReference>
<<<<<<< HEAD:ada_2_fhir-r4/mp/9.2.0/beschikbaarstellen_medicatiegegevens/fhir_instance/mg-mgrp-999900614-ALL.xml
               <reference value="urn:uuid:c33f1ac2-6a95-11ec-0000-020000000000"/>
=======
               <reference value="urn:uuid:c33f1a18-6a95-11ec-0000-020000000000"/>
>>>>>>> origin/master:ada_2_fhir-r4/mp/9.2.0/beschikbaarstellen_medicatiegegevens/fhir_instance/mg-mgrp-999900948-ALL.xml
               <type value="Medication"/>
               <display value="Eigen artikel: ureumzalf"/>
            </medicationReference>
            <subject>
<<<<<<< HEAD:ada_2_fhir-r4/mp/9.2.0/beschikbaarstellen_medicatiegegevens/fhir_instance/mg-mgrp-999900614-ALL.xml
               <reference value="urn:uuid:c33f182e-6a95-11ec-0000-020000000000"/>
=======
               <reference value="urn:uuid:c33f181a-6a95-11ec-0000-020000000000"/>
>>>>>>> origin/master:ada_2_fhir-r4/mp/9.2.0/beschikbaarstellen_medicatiegegevens/fhir_instance/mg-mgrp-999900948-ALL.xml
               <type value="Patient"/>
               <display value="Patient, M. van de XXX_Rambaran Mishre"/>
            </subject>
            <authoredOn value="${DATE, T, D, +0}T12:08:00+02:00"/>
            <requester>
<<<<<<< HEAD:ada_2_fhir-r4/mp/9.2.0/beschikbaarstellen_medicatiegegevens/fhir_instance/mg-mgrp-999900614-ALL.xml
               <reference value="urn:uuid:c33f1856-6a95-11ec-0000-020000000000"/>
=======
               <reference value="urn:uuid:c33f1838-6a95-11ec-0000-020000000000"/>
>>>>>>> origin/master:ada_2_fhir-r4/mp/9.2.0/beschikbaarstellen_medicatiegegevens/fhir_instance/mg-mgrp-999900948-ALL.xml
               <type value="PractitionerRole"/>
               <display value="Healthcare professional (role), Peter van Pulver, Huisartsen, niet nader gespecificeerd, Huisartsenpraktijk Pulver &amp; Partners"/>
            </requester>
            <performer>
<<<<<<< HEAD:ada_2_fhir-r4/mp/9.2.0/beschikbaarstellen_medicatiegegevens/fhir_instance/mg-mgrp-999900614-ALL.xml
               <reference value="urn:uuid:c33f18e2-6a95-11ec-0000-020000000000"/>
=======
               <reference value="urn:uuid:c33f1a72-6a95-11ec-0000-020000000000"/>
>>>>>>> origin/master:ada_2_fhir-r4/mp/9.2.0/beschikbaarstellen_medicatiegegevens/fhir_instance/mg-mgrp-999900948-ALL.xml
               <type value="Organization"/>
               <display value="Healthcare provider (organization), Apotheek De Gulle Gaper"/>
            </performer>
            <basedOn>
               <type value="MedicationRequest"/>
               <identifier>
                  <system value="urn:oid:2.16.840.1.113883.2.4.3.11.999.77.16076005.1"/>
                  <value value="MBH_200_magistraal90miljoennr_MA"/>
               </identifier>
               <display value="relatie naar medicatieafspraak  met identificatie: MBH_200_magistraal90miljoennr_MA || 2.16.840.1.113883.2.4.3.11.999.77.16076005.1"/>
            </basedOn>
            <dispenseRequest>
               <quantity>
                  <extension url="http://hl7.org/fhir/StructureDefinition/iso21090-PQ-translation">
                     <valueQuantity>
                        <value value="100"/>
                        <unit value="gram"/>
                        <system value="urn:oid:2.16.840.1.113883.2.4.4.1.900.2"/>
                        <code value="215"/>
                     </valueQuantity>
                  </extension>
                  <value value="100"/>
                  <unit value="gram"/>
                  <system value="http://unitsofmeasure.org"/>
                  <code value="g"/>
               </quantity>
            </dispenseRequest>
         </MedicationRequest>
      </resource>
      <request>
         <method value="POST"/>
         <url value="MedicationRequest"/>
      </request>
   </entry>
   <entry>
<<<<<<< HEAD:ada_2_fhir-r4/mp/9.2.0/beschikbaarstellen_medicatiegegevens/fhir_instance/mg-mgrp-999900614-ALL.xml
      <fullUrl value="urn:uuid:c33f19d2-6a95-11ec-0000-020000000000"/>
      <resource>
         <MedicationDispense>
            <id value="mp-AdmAgr-mp9-c33f028c-6a95-11ec-0000-020000000000"/>
=======
      <fullUrl value="urn:uuid:c33f1928-6a95-11ec-0000-020000000000"/>
      <resource>
         <MedicationDispense>
>>>>>>> origin/master:ada_2_fhir-r4/mp/9.2.0/beschikbaarstellen_medicatiegegevens/fhir_instance/mg-mgrp-999900948-ALL.xml
            <meta>
               <profile value="http://nictiz.nl/fhir/StructureDefinition/mp-AdministrationAgreement"/>
            </meta>
            <extension url="http://nictiz.nl/fhir/StructureDefinition/ext-AdministrationAgreement.AdministrationAgreementDateTime">
               <valueDateTime value="${DATE, T, D, +0}T13:00:00+02:00"/>
            </extension>
            <extension url="http://nictiz.nl/fhir/StructureDefinition/ext-RenderedDosageInstruction">
               <valueString value="Vanaf T, tot en met T + 31 dagen, Zo nodig, cutaan"/>
            </extension>
            <extension url="http://nictiz.nl/fhir/StructureDefinition/ext-TimeInterval.Period">
               <valuePeriod>
                  <start value="${DATE, T, D, +0}T00:00:00+02:00"/>
                  <end value="${DATE, T, D, +31}T23:59:59+02:00"/>
               </valuePeriod>
            </extension>
            <extension url="http://nictiz.nl/fhir/StructureDefinition/ext-PharmaceuticalTreatment.Identifier">
               <valueIdentifier>
                  <system value="urn:oid:2.16.840.1.113883.2.4.3.11.999.77.1.1"/>
                  <value value="MBH_200_magistraalalleingredienten"/>
               </valueIdentifier>
            </extension>
            <identifier>
               <system value="urn:oid:2.16.840.1.113883.2.4.3.11.999.77.422037009.1"/>
               <value value="MBH_200_magistraalalleingredienten_TA"/>
            </identifier>
            <status value="unknown"/>
            <category>
               <coding>
                  <system value="http://snomed.info/sct"/>
                  <code value="422037009"/>
                  <display value="toedieningsafspraak"/>
               </coding>
            </category>
            <medicationReference>
<<<<<<< HEAD:ada_2_fhir-r4/mp/9.2.0/beschikbaarstellen_medicatiegegevens/fhir_instance/mg-mgrp-999900614-ALL.xml
               <reference value="urn:uuid:c33f1a86-6a95-11ec-0000-020000000000"/>
=======
               <reference value="urn:uuid:c33f19dc-6a95-11ec-0000-020000000000"/>
>>>>>>> origin/master:ada_2_fhir-r4/mp/9.2.0/beschikbaarstellen_medicatiegegevens/fhir_instance/mg-mgrp-999900948-ALL.xml
               <type value="Medication"/>
               <display value="overig"/>
            </medicationReference>
            <subject>
<<<<<<< HEAD:ada_2_fhir-r4/mp/9.2.0/beschikbaarstellen_medicatiegegevens/fhir_instance/mg-mgrp-999900614-ALL.xml
               <reference value="urn:uuid:c33f182e-6a95-11ec-0000-020000000000"/>
=======
               <reference value="urn:uuid:c33f181a-6a95-11ec-0000-020000000000"/>
>>>>>>> origin/master:ada_2_fhir-r4/mp/9.2.0/beschikbaarstellen_medicatiegegevens/fhir_instance/mg-mgrp-999900948-ALL.xml
               <type value="Patient"/>
               <display value="Patient, M. van de XXX_Rambaran Mishre"/>
            </subject>
            <performer>
               <actor>
<<<<<<< HEAD:ada_2_fhir-r4/mp/9.2.0/beschikbaarstellen_medicatiegegevens/fhir_instance/mg-mgrp-999900614-ALL.xml
                  <reference value="urn:uuid:c33f18e2-6a95-11ec-0000-020000000000"/>
=======
                  <reference value="urn:uuid:c33f1a72-6a95-11ec-0000-020000000000"/>
>>>>>>> origin/master:ada_2_fhir-r4/mp/9.2.0/beschikbaarstellen_medicatiegegevens/fhir_instance/mg-mgrp-999900948-ALL.xml
                  <type value="Organization"/>
                  <display value="Healthcare provider (organization), Apotheek De Gulle Gaper"/>
               </actor>
            </performer>
            <authorizingPrescription>
               <type value="MedicationRequest"/>
               <identifier>
                  <system value="urn:oid:2.16.840.1.113883.2.4.3.11.999.77.16076005.1"/>
                  <value value="MBH_200_magistraalalleingredienten_MA"/>
               </identifier>
               <display value="relatie naar medicatieafspraak met identificatie: MBH_200_magistraalalleingredienten_MA || 2.16.840.1.113883.2.4.3.11.999.77.16076005.1"/>
            </authorizingPrescription>
            <dosageInstruction>
               <asNeededCodeableConcept>
                  <coding>
                     <system value="https://referentiemodel.nhg.org/tabellen/nhg-tabel-25-gebruiksvoorschrift#aanvullend-numeriek"/>
                     <code value="1137"/>
                     <display value="Zo nodig"/>
                  </coding>
               </asNeededCodeableConcept>
               <route>
                  <coding>
                     <system value="urn:oid:2.16.840.1.113883.2.4.4.9"/>
                     <code value="53"/>
                     <display value="cutaan"/>
                  </coding>
               </route>
            </dosageInstruction>
         </MedicationDispense>
      </resource>
      <request>
         <method value="POST"/>
         <url value="MedicationDispense"/>
      </request>
   </entry>
   <entry>
<<<<<<< HEAD:ada_2_fhir-r4/mp/9.2.0/beschikbaarstellen_medicatiegegevens/fhir_instance/mg-mgrp-999900614-ALL.xml
      <fullUrl value="urn:uuid:c33f19f0-6a95-11ec-0000-020000000000"/>
      <resource>
         <MedicationDispense>
            <id value="mp-AdmAgr-mp9-c33f17e9-6a95-11ec-0000-020000000000"/>
=======
      <fullUrl value="urn:uuid:c33f1946-6a95-11ec-0000-020000000000"/>
      <resource>
         <MedicationDispense>
>>>>>>> origin/master:ada_2_fhir-r4/mp/9.2.0/beschikbaarstellen_medicatiegegevens/fhir_instance/mg-mgrp-999900948-ALL.xml
            <meta>
               <profile value="http://nictiz.nl/fhir/StructureDefinition/mp-AdministrationAgreement"/>
            </meta>
            <extension url="http://nictiz.nl/fhir/StructureDefinition/ext-AdministrationAgreement.AdministrationAgreementDateTime">
               <valueDateTime value="${DATE, T, D, +0}T13:05:00+02:00"/>
            </extension>
            <extension url="http://nictiz.nl/fhir/StructureDefinition/ext-RenderedDosageInstruction">
               <valueString value="Vanaf T + 1 dag, tot en met T + 70 dagen, 1 maal per dag, cutaan"/>
            </extension>
            <extension url="http://nictiz.nl/fhir/StructureDefinition/ext-TimeInterval.Period">
               <valuePeriod>
                  <start value="${DATE, T, D, +1}T00:00:00+02:00"/>
                  <end value="${DATE, T, D, +70}T23:59:59+02:00"/>
               </valuePeriod>
            </extension>
            <extension url="http://nictiz.nl/fhir/StructureDefinition/ext-PharmaceuticalTreatment.Identifier">
               <valueIdentifier>
                  <system value="urn:oid:2.16.840.1.113883.2.4.3.11.999.77.1.1"/>
                  <value value="MBH_200_magistraalactieveingredient"/>
               </valueIdentifier>
            </extension>
            <identifier>
               <system value="urn:oid:2.16.840.1.113883.2.4.3.11.999.77.422037009.1"/>
               <value value="MBH_200_magistraalactieveingredient_TA"/>
            </identifier>
            <status value="unknown"/>
            <category>
               <coding>
                  <system value="http://snomed.info/sct"/>
                  <code value="422037009"/>
                  <display value="toedieningsafspraak"/>
               </coding>
            </category>
            <medicationReference>
<<<<<<< HEAD:ada_2_fhir-r4/mp/9.2.0/beschikbaarstellen_medicatiegegevens/fhir_instance/mg-mgrp-999900614-ALL.xml
               <reference value="urn:uuid:c33f1aa4-6a95-11ec-0000-020000000000"/>
=======
               <reference value="urn:uuid:c33f19fa-6a95-11ec-0000-020000000000"/>
>>>>>>> origin/master:ada_2_fhir-r4/mp/9.2.0/beschikbaarstellen_medicatiegegevens/fhir_instance/mg-mgrp-999900948-ALL.xml
               <type value="Medication"/>
               <display value="overig"/>
            </medicationReference>
            <subject>
<<<<<<< HEAD:ada_2_fhir-r4/mp/9.2.0/beschikbaarstellen_medicatiegegevens/fhir_instance/mg-mgrp-999900614-ALL.xml
               <reference value="urn:uuid:c33f182e-6a95-11ec-0000-020000000000"/>
=======
               <reference value="urn:uuid:c33f181a-6a95-11ec-0000-020000000000"/>
>>>>>>> origin/master:ada_2_fhir-r4/mp/9.2.0/beschikbaarstellen_medicatiegegevens/fhir_instance/mg-mgrp-999900948-ALL.xml
               <type value="Patient"/>
               <display value="Patient, M. van de XXX_Rambaran Mishre"/>
            </subject>
            <performer>
               <actor>
<<<<<<< HEAD:ada_2_fhir-r4/mp/9.2.0/beschikbaarstellen_medicatiegegevens/fhir_instance/mg-mgrp-999900614-ALL.xml
                  <reference value="urn:uuid:c33f18e2-6a95-11ec-0000-020000000000"/>
=======
                  <reference value="urn:uuid:c33f1a72-6a95-11ec-0000-020000000000"/>
>>>>>>> origin/master:ada_2_fhir-r4/mp/9.2.0/beschikbaarstellen_medicatiegegevens/fhir_instance/mg-mgrp-999900948-ALL.xml
                  <type value="Organization"/>
                  <display value="Healthcare provider (organization), Apotheek De Gulle Gaper"/>
               </actor>
            </performer>
            <authorizingPrescription>
               <type value="MedicationRequest"/>
               <identifier>
                  <system value="urn:oid:2.16.840.1.113883.2.4.3.11.999.77.16076005.1"/>
                  <value value="MBH_200_magistraalactieveingredient_MA"/>
               </identifier>
               <display value="relatie naar medicatieafspraak met identificatie: MBH_200_magistraalactieveingredient_MA || 2.16.840.1.113883.2.4.3.11.999.77.16076005.1"/>
            </authorizingPrescription>
            <dosageInstruction>
               <timing>
                  <repeat>
                     <frequency value="1"/>
                     <period value="1"/>
                     <periodUnit value="d"/>
                  </repeat>
               </timing>
               <route>
                  <coding>
                     <system value="urn:oid:2.16.840.1.113883.2.4.4.9"/>
                     <code value="53"/>
                     <display value="cutaan"/>
                  </coding>
               </route>
            </dosageInstruction>
         </MedicationDispense>
      </resource>
      <request>
         <method value="POST"/>
         <url value="MedicationDispense"/>
      </request>
   </entry>
   <entry>
<<<<<<< HEAD:ada_2_fhir-r4/mp/9.2.0/beschikbaarstellen_medicatiegegevens/fhir_instance/mg-mgrp-999900614-ALL.xml
      <fullUrl value="urn:uuid:c33f1a0e-6a95-11ec-0000-020000000000"/>
      <resource>
         <MedicationDispense>
            <id value="mp-AdmAgr-mp9-c33f1830-6a95-11ec-0000-020000000000"/>
=======
      <fullUrl value="urn:uuid:c33f1964-6a95-11ec-0000-020000000000"/>
      <resource>
         <MedicationDispense>
>>>>>>> origin/master:ada_2_fhir-r4/mp/9.2.0/beschikbaarstellen_medicatiegegevens/fhir_instance/mg-mgrp-999900948-ALL.xml
            <meta>
               <profile value="http://nictiz.nl/fhir/StructureDefinition/mp-AdministrationAgreement"/>
            </meta>
            <extension url="http://nictiz.nl/fhir/StructureDefinition/ext-AdministrationAgreement.AdministrationAgreementDateTime">
               <valueDateTime value="${DATE, T, D, +0}T13:08:00+02:00"/>
            </extension>
            <extension url="http://nictiz.nl/fhir/StructureDefinition/ext-RenderedDosageInstruction">
               <valueString value="Vanaf T, tot en met T + 30 dagen, 1 maal per dag, cutaan"/>
            </extension>
            <extension url="http://nictiz.nl/fhir/StructureDefinition/ext-TimeInterval.Period">
               <valuePeriod>
                  <start value="${DATE, T, D, +0}T00:00:00+02:00"/>
                  <end value="${DATE, T, D, +30}T23:59:59+02:00"/>
               </valuePeriod>
            </extension>
            <extension url="http://nictiz.nl/fhir/StructureDefinition/ext-PharmaceuticalTreatment.Identifier">
               <valueIdentifier>
                  <system value="urn:oid:2.16.840.1.113883.2.4.3.11.999.77.1.1"/>
                  <value value="MBH_200_magistraal90miljoennr"/>
               </valueIdentifier>
            </extension>
            <identifier>
               <system value="urn:oid:2.16.840.1.113883.2.4.3.11.999.77.422037009.1"/>
               <value value="MBH_200_magistraal90miljoennr_TA"/>
            </identifier>
            <status value="unknown"/>
            <category>
               <coding>
                  <system value="http://snomed.info/sct"/>
                  <code value="422037009"/>
                  <display value="toedieningsafspraak"/>
               </coding>
            </category>
            <medicationReference>
<<<<<<< HEAD:ada_2_fhir-r4/mp/9.2.0/beschikbaarstellen_medicatiegegevens/fhir_instance/mg-mgrp-999900614-ALL.xml
               <reference value="urn:uuid:c33f1ac2-6a95-11ec-0000-020000000000"/>
=======
               <reference value="urn:uuid:c33f1a18-6a95-11ec-0000-020000000000"/>
>>>>>>> origin/master:ada_2_fhir-r4/mp/9.2.0/beschikbaarstellen_medicatiegegevens/fhir_instance/mg-mgrp-999900948-ALL.xml
               <type value="Medication"/>
               <display value="Eigen artikel: ureumzalf"/>
            </medicationReference>
            <subject>
<<<<<<< HEAD:ada_2_fhir-r4/mp/9.2.0/beschikbaarstellen_medicatiegegevens/fhir_instance/mg-mgrp-999900614-ALL.xml
               <reference value="urn:uuid:c33f182e-6a95-11ec-0000-020000000000"/>
=======
               <reference value="urn:uuid:c33f181a-6a95-11ec-0000-020000000000"/>
>>>>>>> origin/master:ada_2_fhir-r4/mp/9.2.0/beschikbaarstellen_medicatiegegevens/fhir_instance/mg-mgrp-999900948-ALL.xml
               <type value="Patient"/>
               <display value="Patient, M. van de XXX_Rambaran Mishre"/>
            </subject>
            <performer>
               <actor>
<<<<<<< HEAD:ada_2_fhir-r4/mp/9.2.0/beschikbaarstellen_medicatiegegevens/fhir_instance/mg-mgrp-999900614-ALL.xml
                  <reference value="urn:uuid:c33f18e2-6a95-11ec-0000-020000000000"/>
=======
                  <reference value="urn:uuid:c33f1a72-6a95-11ec-0000-020000000000"/>
>>>>>>> origin/master:ada_2_fhir-r4/mp/9.2.0/beschikbaarstellen_medicatiegegevens/fhir_instance/mg-mgrp-999900948-ALL.xml
                  <type value="Organization"/>
                  <display value="Healthcare provider (organization), Apotheek De Gulle Gaper"/>
               </actor>
            </performer>
            <authorizingPrescription>
               <type value="MedicationRequest"/>
               <identifier>
                  <system value="urn:oid:2.16.840.1.113883.2.4.3.11.999.77.16076005.1"/>
                  <value value="MBH_200_magistraal90miljoennr_MA"/>
               </identifier>
               <display value="relatie naar medicatieafspraak met identificatie: MBH_200_magistraal90miljoennr_MA || 2.16.840.1.113883.2.4.3.11.999.77.16076005.1"/>
            </authorizingPrescription>
            <dosageInstruction>
               <timing>
                  <repeat>
                     <frequency value="1"/>
                     <period value="1"/>
                     <periodUnit value="d"/>
                  </repeat>
               </timing>
               <route>
                  <coding>
                     <system value="urn:oid:2.16.840.1.113883.2.4.4.9"/>
                     <code value="53"/>
                     <display value="cutaan"/>
                  </coding>
               </route>
            </dosageInstruction>
         </MedicationDispense>
      </resource>
      <request>
         <method value="POST"/>
         <url value="MedicationDispense"/>
      </request>
   </entry>
   <entry>
<<<<<<< HEAD:ada_2_fhir-r4/mp/9.2.0/beschikbaarstellen_medicatiegegevens/fhir_instance/mg-mgrp-999900614-ALL.xml
      <fullUrl value="urn:uuid:c33f1a2c-6a95-11ec-0000-020000000000"/>
      <resource>
         <MedicationDispense>
            <id value="mp-MedDsp-mp9-c33f02a0-6a95-11ec-0000-020000000000"/>
=======
      <fullUrl value="urn:uuid:c33f1982-6a95-11ec-0000-020000000000"/>
      <resource>
         <MedicationDispense>
>>>>>>> origin/master:ada_2_fhir-r4/mp/9.2.0/beschikbaarstellen_medicatiegegevens/fhir_instance/mg-mgrp-999900948-ALL.xml
            <meta>
               <profile value="http://nictiz.nl/fhir/StructureDefinition/mp-MedicationDispense"/>
            </meta>
            <extension url="http://nictiz.nl/fhir/StructureDefinition/ext-PharmaceuticalTreatment.Identifier">
               <valueIdentifier>
                  <system value="urn:oid:2.16.840.1.113883.2.4.3.11.999.77.1.1"/>
                  <value value="MBH_200_magistraalalleingredienten"/>
               </valueIdentifier>
            </extension>
            <identifier>
               <system value="urn:oid:2.16.840.1.113883.2.4.3.11.999.77.373784005.1"/>
               <value value="MBH_200_magistraalalleingredienten_MVE"/>
            </identifier>
            <status value="completed"/>
            <category>
               <coding>
                  <system value="http://snomed.info/sct"/>
                  <code value="373784005"/>
                  <display value="verstrekken van medicatie"/>
               </coding>
            </category>
            <medicationReference>
<<<<<<< HEAD:ada_2_fhir-r4/mp/9.2.0/beschikbaarstellen_medicatiegegevens/fhir_instance/mg-mgrp-999900614-ALL.xml
               <reference value="urn:uuid:c33f1a86-6a95-11ec-0000-020000000000"/>
=======
               <reference value="urn:uuid:c33f19dc-6a95-11ec-0000-020000000000"/>
>>>>>>> origin/master:ada_2_fhir-r4/mp/9.2.0/beschikbaarstellen_medicatiegegevens/fhir_instance/mg-mgrp-999900948-ALL.xml
               <type value="Medication"/>
               <display value="overig"/>
            </medicationReference>
            <subject>
<<<<<<< HEAD:ada_2_fhir-r4/mp/9.2.0/beschikbaarstellen_medicatiegegevens/fhir_instance/mg-mgrp-999900614-ALL.xml
               <reference value="urn:uuid:c33f182e-6a95-11ec-0000-020000000000"/>
=======
               <reference value="urn:uuid:c33f181a-6a95-11ec-0000-020000000000"/>
>>>>>>> origin/master:ada_2_fhir-r4/mp/9.2.0/beschikbaarstellen_medicatiegegevens/fhir_instance/mg-mgrp-999900948-ALL.xml
               <type value="Patient"/>
               <display value="Patient, M. van de XXX_Rambaran Mishre"/>
            </subject>
            <performer>
               <actor>
<<<<<<< HEAD:ada_2_fhir-r4/mp/9.2.0/beschikbaarstellen_medicatiegegevens/fhir_instance/mg-mgrp-999900614-ALL.xml
                  <reference value="urn:uuid:c33f18e2-6a95-11ec-0000-020000000000"/>
=======
                  <reference value="urn:uuid:c33f1a72-6a95-11ec-0000-020000000000"/>
>>>>>>> origin/master:ada_2_fhir-r4/mp/9.2.0/beschikbaarstellen_medicatiegegevens/fhir_instance/mg-mgrp-999900948-ALL.xml
                  <type value="Organization"/>
                  <display value="Healthcare provider (organization), Apotheek De Gulle Gaper"/>
               </actor>
            </performer>
            <authorizingPrescription>
               <type value="MedicationRequest"/>
               <identifier>
                  <system value="urn:oid:2.16.840.1.113883.2.4.3.11.999.77.52711000146108.1"/>
                  <value value="MBH_200_magistraalalleingredienten_VV"/>
               </identifier>
               <display value="relatie naar verstrekkingsverzoek met identificatie: MBH_200_magistraalalleingredienten_VV || 2.16.840.1.113883.2.4.3.11.999.77.52711000146108.1"/>
            </authorizingPrescription>
            <quantity>
               <extension url="http://hl7.org/fhir/StructureDefinition/iso21090-PQ-translation">
                  <valueQuantity>
                     <value value="100"/>
                     <unit value="milliliter"/>
                     <system value="urn:oid:2.16.840.1.113883.2.4.4.1.900.2"/>
                     <code value="233"/>
                  </valueQuantity>
               </extension>
               <value value="100"/>
               <unit value="milliliter"/>
               <system value="http://unitsofmeasure.org"/>
               <code value="ml"/>
            </quantity>
            <whenHandedOver value="${DATE, T, D, +0}T13:00:00+02:00"/>
         </MedicationDispense>
      </resource>
      <request>
         <method value="POST"/>
         <url value="MedicationDispense"/>
      </request>
   </entry>
   <entry>
<<<<<<< HEAD:ada_2_fhir-r4/mp/9.2.0/beschikbaarstellen_medicatiegegevens/fhir_instance/mg-mgrp-999900614-ALL.xml
      <fullUrl value="urn:uuid:c33f1a4a-6a95-11ec-0000-020000000000"/>
      <resource>
         <MedicationDispense>
            <id value="mp-MedDsp-mp9-c33f17ff-6a95-11ec-0000-020000000000"/>
=======
      <fullUrl value="urn:uuid:c33f19a0-6a95-11ec-0000-020000000000"/>
      <resource>
         <MedicationDispense>
>>>>>>> origin/master:ada_2_fhir-r4/mp/9.2.0/beschikbaarstellen_medicatiegegevens/fhir_instance/mg-mgrp-999900948-ALL.xml
            <meta>
               <profile value="http://nictiz.nl/fhir/StructureDefinition/mp-MedicationDispense"/>
            </meta>
            <extension url="http://nictiz.nl/fhir/StructureDefinition/ext-PharmaceuticalTreatment.Identifier">
               <valueIdentifier>
                  <system value="urn:oid:2.16.840.1.113883.2.4.3.11.999.77.1.1"/>
                  <value value="MBH_200_magistraalactieveingredient"/>
               </valueIdentifier>
            </extension>
            <identifier>
               <system value="urn:oid:2.16.840.1.113883.2.4.3.11.999.77.373784005.1"/>
               <value value="MBH_200_magistraalactieveingredient_MVE"/>
            </identifier>
            <status value="completed"/>
            <category>
               <coding>
                  <system value="http://snomed.info/sct"/>
                  <code value="373784005"/>
                  <display value="verstrekken van medicatie"/>
               </coding>
            </category>
            <medicationReference>
<<<<<<< HEAD:ada_2_fhir-r4/mp/9.2.0/beschikbaarstellen_medicatiegegevens/fhir_instance/mg-mgrp-999900614-ALL.xml
               <reference value="urn:uuid:c33f1aa4-6a95-11ec-0000-020000000000"/>
=======
               <reference value="urn:uuid:c33f19fa-6a95-11ec-0000-020000000000"/>
>>>>>>> origin/master:ada_2_fhir-r4/mp/9.2.0/beschikbaarstellen_medicatiegegevens/fhir_instance/mg-mgrp-999900948-ALL.xml
               <type value="Medication"/>
               <display value="overig"/>
            </medicationReference>
            <subject>
<<<<<<< HEAD:ada_2_fhir-r4/mp/9.2.0/beschikbaarstellen_medicatiegegevens/fhir_instance/mg-mgrp-999900614-ALL.xml
               <reference value="urn:uuid:c33f182e-6a95-11ec-0000-020000000000"/>
=======
               <reference value="urn:uuid:c33f181a-6a95-11ec-0000-020000000000"/>
>>>>>>> origin/master:ada_2_fhir-r4/mp/9.2.0/beschikbaarstellen_medicatiegegevens/fhir_instance/mg-mgrp-999900948-ALL.xml
               <type value="Patient"/>
               <display value="Patient, M. van de XXX_Rambaran Mishre"/>
            </subject>
            <performer>
               <actor>
<<<<<<< HEAD:ada_2_fhir-r4/mp/9.2.0/beschikbaarstellen_medicatiegegevens/fhir_instance/mg-mgrp-999900614-ALL.xml
                  <reference value="urn:uuid:c33f18e2-6a95-11ec-0000-020000000000"/>
=======
                  <reference value="urn:uuid:c33f1a72-6a95-11ec-0000-020000000000"/>
>>>>>>> origin/master:ada_2_fhir-r4/mp/9.2.0/beschikbaarstellen_medicatiegegevens/fhir_instance/mg-mgrp-999900948-ALL.xml
                  <type value="Organization"/>
                  <display value="Healthcare provider (organization), Apotheek De Gulle Gaper"/>
               </actor>
            </performer>
            <authorizingPrescription>
               <type value="MedicationRequest"/>
               <identifier>
                  <system value="urn:oid:2.16.840.1.113883.2.4.3.11.999.77.52711000146108.1"/>
                  <value value="MBH_200_magistraalactieveingredient_VV"/>
               </identifier>
               <display value="relatie naar verstrekkingsverzoek met identificatie: MBH_200_magistraalactieveingredient_VV || 2.16.840.1.113883.2.4.3.11.999.77.52711000146108.1"/>
            </authorizingPrescription>
            <quantity>
               <extension url="http://hl7.org/fhir/StructureDefinition/iso21090-PQ-translation">
                  <valueQuantity>
                     <value value="100"/>
                     <unit value="gram"/>
                     <system value="urn:oid:2.16.840.1.113883.2.4.4.1.900.2"/>
                     <code value="215"/>
                  </valueQuantity>
               </extension>
               <value value="100"/>
               <unit value="gram"/>
               <system value="http://unitsofmeasure.org"/>
               <code value="g"/>
            </quantity>
            <whenHandedOver value="${DATE, T, D, +0}T13:05:00+02:00"/>
         </MedicationDispense>
      </resource>
      <request>
         <method value="POST"/>
         <url value="MedicationDispense"/>
      </request>
   </entry>
   <entry>
<<<<<<< HEAD:ada_2_fhir-r4/mp/9.2.0/beschikbaarstellen_medicatiegegevens/fhir_instance/mg-mgrp-999900614-ALL.xml
      <fullUrl value="urn:uuid:c33f1a68-6a95-11ec-0000-020000000000"/>
      <resource>
         <MedicationDispense>
            <id value="mp-MedDsp-mp9-c33f1846-6a95-11ec-0000-020000000000"/>
=======
      <fullUrl value="urn:uuid:c33f19be-6a95-11ec-0000-020000000000"/>
      <resource>
         <MedicationDispense>
>>>>>>> origin/master:ada_2_fhir-r4/mp/9.2.0/beschikbaarstellen_medicatiegegevens/fhir_instance/mg-mgrp-999900948-ALL.xml
            <meta>
               <profile value="http://nictiz.nl/fhir/StructureDefinition/mp-MedicationDispense"/>
            </meta>
            <extension url="http://nictiz.nl/fhir/StructureDefinition/ext-PharmaceuticalTreatment.Identifier">
               <valueIdentifier>
                  <system value="urn:oid:2.16.840.1.113883.2.4.3.11.999.77.1.1"/>
                  <value value="MBH_200_magistraal90miljoennr"/>
               </valueIdentifier>
            </extension>
            <identifier>
               <system value="urn:oid:2.16.840.1.113883.2.4.3.11.999.77.373784005.1"/>
               <value value="MBH_200_magistraal90miljoennr_MVE"/>
            </identifier>
            <status value="completed"/>
            <category>
               <coding>
                  <system value="http://snomed.info/sct"/>
                  <code value="373784005"/>
                  <display value="verstrekken van medicatie"/>
               </coding>
            </category>
            <medicationReference>
<<<<<<< HEAD:ada_2_fhir-r4/mp/9.2.0/beschikbaarstellen_medicatiegegevens/fhir_instance/mg-mgrp-999900614-ALL.xml
               <reference value="urn:uuid:c33f1ac2-6a95-11ec-0000-020000000000"/>
=======
               <reference value="urn:uuid:c33f1a18-6a95-11ec-0000-020000000000"/>
>>>>>>> origin/master:ada_2_fhir-r4/mp/9.2.0/beschikbaarstellen_medicatiegegevens/fhir_instance/mg-mgrp-999900948-ALL.xml
               <type value="Medication"/>
               <display value="Eigen artikel: ureumzalf"/>
            </medicationReference>
            <subject>
<<<<<<< HEAD:ada_2_fhir-r4/mp/9.2.0/beschikbaarstellen_medicatiegegevens/fhir_instance/mg-mgrp-999900614-ALL.xml
               <reference value="urn:uuid:c33f182e-6a95-11ec-0000-020000000000"/>
=======
               <reference value="urn:uuid:c33f181a-6a95-11ec-0000-020000000000"/>
>>>>>>> origin/master:ada_2_fhir-r4/mp/9.2.0/beschikbaarstellen_medicatiegegevens/fhir_instance/mg-mgrp-999900948-ALL.xml
               <type value="Patient"/>
               <display value="Patient, M. van de XXX_Rambaran Mishre"/>
            </subject>
            <performer>
               <actor>
<<<<<<< HEAD:ada_2_fhir-r4/mp/9.2.0/beschikbaarstellen_medicatiegegevens/fhir_instance/mg-mgrp-999900614-ALL.xml
                  <reference value="urn:uuid:c33f18e2-6a95-11ec-0000-020000000000"/>
=======
                  <reference value="urn:uuid:c33f1a72-6a95-11ec-0000-020000000000"/>
>>>>>>> origin/master:ada_2_fhir-r4/mp/9.2.0/beschikbaarstellen_medicatiegegevens/fhir_instance/mg-mgrp-999900948-ALL.xml
                  <type value="Organization"/>
                  <display value="Healthcare provider (organization), Apotheek De Gulle Gaper"/>
               </actor>
            </performer>
            <authorizingPrescription>
               <type value="MedicationRequest"/>
               <identifier>
                  <system value="urn:oid:2.16.840.1.113883.2.4.3.11.999.77.52711000146108.1"/>
                  <value value="MBH_200_magistraal90miljoennr_VV"/>
               </identifier>
               <display value="relatie naar verstrekkingsverzoek met identificatie: MBH_200_magistraal90miljoennr_VV || 2.16.840.1.113883.2.4.3.11.999.77.52711000146108.1"/>
            </authorizingPrescription>
            <quantity>
               <extension url="http://hl7.org/fhir/StructureDefinition/iso21090-PQ-translation">
                  <valueQuantity>
                     <value value="100"/>
                     <unit value="gram"/>
                     <system value="urn:oid:2.16.840.1.113883.2.4.4.1.900.2"/>
                     <code value="215"/>
                  </valueQuantity>
               </extension>
               <value value="100"/>
               <unit value="gram"/>
               <system value="http://unitsofmeasure.org"/>
               <code value="g"/>
            </quantity>
            <whenHandedOver value="${DATE, T, D, +0}T13:08:00+02:00"/>
         </MedicationDispense>
      </resource>
      <request>
         <method value="POST"/>
         <url value="MedicationDispense"/>
      </request>
   </entry>
   <entry>
<<<<<<< HEAD:ada_2_fhir-r4/mp/9.2.0/beschikbaarstellen_medicatiegegevens/fhir_instance/mg-mgrp-999900614-ALL.xml
      <fullUrl value="urn:uuid:c33f182e-6a95-11ec-0000-020000000000"/>
=======
      <fullUrl value="urn:uuid:c33f181a-6a95-11ec-0000-020000000000"/>
>>>>>>> origin/master:ada_2_fhir-r4/mp/9.2.0/beschikbaarstellen_medicatiegegevens/fhir_instance/mg-mgrp-999900948-ALL.xml
      <resource>
         <Patient>
            <meta>
               <profile value="http://nictiz.nl/fhir/StructureDefinition/nl-core-Patient"/>
            </meta>
            <identifier>
               <system value="http://fhir.nl/fhir/NamingSystem/bsn"/>
               <value value="999900948"/>
            </identifier>
            <name>
               <extension url="http://hl7.org/fhir/StructureDefinition/humanname-assembly-order">
                  <valueCode value="NL1"/>
               </extension>
               <use value="official"/>
               <text value="M. van de XXX_Rambaran Mishre"/>
               <family value="van de XXX_Rambaran Mishre">
                  <extension url="http://hl7.org/fhir/StructureDefinition/humanname-own-prefix">
                     <valueString value="van de"/>
                  </extension>
                  <extension url="http://hl7.org/fhir/StructureDefinition/humanname-own-name">
                     <valueString value="XXX_Rambaran Mishre"/>
                  </extension>
               </family>
               <given value="M.">
                  <extension url="http://hl7.org/fhir/StructureDefinition/iso21090-EN-qualifier">
                     <valueCode value="IN"/>
                  </extension>
               </given>
            </name>
            <gender value="male">
               <extension url="http://nictiz.nl/fhir/StructureDefinition/ext-CodeSpecification">
                  <valueCodeableConcept>
                     <coding>
                        <system value="http://terminology.hl7.org/CodeSystem/v3-AdministrativeGender"/>
                        <code value="M"/>
                        <display value="Man"/>
                     </coding>
                  </valueCodeableConcept>
               </extension>
            </gender>
            <birthDate value="1985-11-08"/>
         </Patient>
      </resource>
      <request>
         <method value="POST"/>
         <url value="Patient"/>
      </request>
   </entry>
   <entry>
<<<<<<< HEAD:ada_2_fhir-r4/mp/9.2.0/beschikbaarstellen_medicatiegegevens/fhir_instance/mg-mgrp-999900614-ALL.xml
      <fullUrl value="urn:uuid:c33f1856-6a95-11ec-0000-020000000000"/>
      <resource>
         <PractitionerRole>
            <id value="nl-core-HPrf-PracRol-mp9-PrcRol-2165281100731-000001111"/>
=======
      <fullUrl value="urn:uuid:c33f1838-6a95-11ec-0000-020000000000"/>
      <resource>
         <PractitionerRole>
>>>>>>> origin/master:ada_2_fhir-r4/mp/9.2.0/beschikbaarstellen_medicatiegegevens/fhir_instance/mg-mgrp-999900948-ALL.xml
            <meta>
               <profile value="http://nictiz.nl/fhir/StructureDefinition/nl-core-HealthProfessional-PractitionerRole"/>
            </meta>
            <practitioner>
<<<<<<< HEAD:ada_2_fhir-r4/mp/9.2.0/beschikbaarstellen_medicatiegegevens/fhir_instance/mg-mgrp-999900614-ALL.xml
               <reference value="urn:uuid:c33f187e-6a95-11ec-0000-020000000000"/>
=======
               <reference value="urn:uuid:c33f1856-6a95-11ec-0000-020000000000"/>
>>>>>>> origin/master:ada_2_fhir-r4/mp/9.2.0/beschikbaarstellen_medicatiegegevens/fhir_instance/mg-mgrp-999900948-ALL.xml
               <type value="Practitioner"/>
               <display value="Healthcare professional (person), Peter van Pulver"/>
            </practitioner>
            <organization>
<<<<<<< HEAD:ada_2_fhir-r4/mp/9.2.0/beschikbaarstellen_medicatiegegevens/fhir_instance/mg-mgrp-999900614-ALL.xml
               <reference value="urn:uuid:c33f18a6-6a95-11ec-0000-020000000000"/>
=======
               <reference value="urn:uuid:c33f1a36-6a95-11ec-0000-020000000000"/>
>>>>>>> origin/master:ada_2_fhir-r4/mp/9.2.0/beschikbaarstellen_medicatiegegevens/fhir_instance/mg-mgrp-999900948-ALL.xml
               <type value="Organization"/>
               <display value="Healthcare provider (organization), Huisartsenpraktijk Pulver &amp; Partners"/>
            </organization>
            <specialty>
               <coding>
                  <system value="urn:oid:2.16.840.1.113883.2.4.6.7"/>
                  <version value="2020-10-23T00:00:00"/>
                  <code value="0100"/>
                  <display value="Huisartsen, niet nader gespecificeerd"/>
               </coding>
            </specialty>
         </PractitionerRole>
      </resource>
      <request>
         <method value="POST"/>
         <url value="PractitionerRole"/>
      </request>
   </entry>
   <entry>
<<<<<<< HEAD:ada_2_fhir-r4/mp/9.2.0/beschikbaarstellen_medicatiegegevens/fhir_instance/mg-mgrp-999900614-ALL.xml
      <fullUrl value="urn:uuid:c33f187e-6a95-11ec-0000-020000000000"/>
=======
      <fullUrl value="urn:uuid:c33f1856-6a95-11ec-0000-020000000000"/>
>>>>>>> origin/master:ada_2_fhir-r4/mp/9.2.0/beschikbaarstellen_medicatiegegevens/fhir_instance/mg-mgrp-999900948-ALL.xml
      <resource>
         <Practitioner>
            <meta>
               <profile value="http://nictiz.nl/fhir/StructureDefinition/nl-core-HealthProfessional-Practitioner"/>
            </meta>
            <identifier>
               <system value="http://fhir.nl/fhir/NamingSystem/uzi-nr-pers"/>
               <value value="000001111"/>
            </identifier>
            <name>
               <use value="official"/>
               <text value="Peter van Pulver"/>
               <family value="van Pulver">
                  <extension url="http://hl7.org/fhir/StructureDefinition/humanname-own-prefix">
                     <valueString value="van"/>
                  </extension>
                  <extension url="http://hl7.org/fhir/StructureDefinition/humanname-own-name">
                     <valueString value="Pulver"/>
                  </extension>
               </family>
               <given value="Peter">
                  <extension url="http://hl7.org/fhir/StructureDefinition/iso21090-EN-qualifier">
                     <valueCode value="BR"/>
                  </extension>
               </given>
            </name>
         </Practitioner>
      </resource>
      <request>
         <method value="POST"/>
         <url value="Practitioner"/>
      </request>
   </entry>
   <entry>
<<<<<<< HEAD:ada_2_fhir-r4/mp/9.2.0/beschikbaarstellen_medicatiegegevens/fhir_instance/mg-mgrp-999900614-ALL.xml
      <fullUrl value="urn:uuid:c33f18a6-6a95-11ec-0000-020000000000"/>
      <resource>
         <Organization>
            <id value="nl-core-HPrv-Org-mp9-Org-2165281100733-00001111"/>
=======
      <fullUrl value="urn:uuid:c33f1a36-6a95-11ec-0000-020000000000"/>
      <resource>
         <Organization>
>>>>>>> origin/master:ada_2_fhir-r4/mp/9.2.0/beschikbaarstellen_medicatiegegevens/fhir_instance/mg-mgrp-999900948-ALL.xml
            <meta>
               <profile value="http://nictiz.nl/fhir/StructureDefinition/nl-core-HealthcareProvider-Organization"/>
            </meta>
            <identifier>
               <system value="http://fhir.nl/fhir/NamingSystem/ura"/>
               <value value="00001111"/>
            </identifier>
            <name value="Huisartsenpraktijk Pulver &amp; Partners"/>
            <address>
               <extension url="http://nictiz.nl/fhir/StructureDefinition/ext-AddressInformation.AddressType">
                  <valueCodeableConcept>
                     <coding>
                        <system value="http://terminology.hl7.org/CodeSystem/v3-AddressUse"/>
                        <code value="WP"/>
                        <display value="Werkadres"/>
                     </coding>
                  </valueCodeableConcept>
               </extension>
               <use value="work"/>
               <line value="Dorpsstraat 1">
                  <extension url="http://hl7.org/fhir/StructureDefinition/iso21090-ADXP-streetName">
                     <valueString value="Dorpsstraat"/>
                  </extension>
                  <extension url="http://hl7.org/fhir/StructureDefinition/iso21090-ADXP-houseNumber">
                     <valueString value="1"/>
                  </extension>
               </line>
               <city value="Ons Dorp"/>
               <postalCode value="1234AA"/>
            </address>
         </Organization>
      </resource>
      <request>
         <method value="POST"/>
         <url value="Organization"/>
      </request>
   </entry>
   <entry>
<<<<<<< HEAD:ada_2_fhir-r4/mp/9.2.0/beschikbaarstellen_medicatiegegevens/fhir_instance/mg-mgrp-999900614-ALL.xml
      <fullUrl value="urn:uuid:c33f18e2-6a95-11ec-0000-020000000000"/>
      <resource>
         <Organization>
            <id value="nl-core-HPrv-Org-mp9-Org-2165281100733-01236578"/>
=======
      <fullUrl value="urn:uuid:c33f1a72-6a95-11ec-0000-020000000000"/>
      <resource>
         <Organization>
>>>>>>> origin/master:ada_2_fhir-r4/mp/9.2.0/beschikbaarstellen_medicatiegegevens/fhir_instance/mg-mgrp-999900948-ALL.xml
            <meta>
               <profile value="http://nictiz.nl/fhir/StructureDefinition/nl-core-HealthcareProvider-Organization"/>
            </meta>
            <identifier>
               <system value="http://fhir.nl/fhir/NamingSystem/ura"/>
               <value value="01236578"/>
            </identifier>
            <name value="Apotheek De Gulle Gaper"/>
         </Organization>
      </resource>
      <request>
         <method value="POST"/>
         <url value="Organization"/>
      </request>
   </entry>
   <entry>
<<<<<<< HEAD:ada_2_fhir-r4/mp/9.2.0/beschikbaarstellen_medicatiegegevens/fhir_instance/mg-mgrp-999900614-ALL.xml
      <fullUrl value="urn:uuid:c33f1a86-6a95-11ec-0000-020000000000"/>
      <resource>
         <Medication>
            <id value="nl-core-PhPrd-mp9-c33f1853-6a95-11ec-0000-020000000000"/>
=======
      <fullUrl value="urn:uuid:c33f19dc-6a95-11ec-0000-020000000000"/>
      <resource>
         <Medication>
>>>>>>> origin/master:ada_2_fhir-r4/mp/9.2.0/beschikbaarstellen_medicatiegegevens/fhir_instance/mg-mgrp-999900948-ALL.xml
            <meta>
               <profile value="http://nictiz.nl/fhir/StructureDefinition/nl-core-PharmaceuticalProduct"/>
            </meta>
            <extension url="http://nictiz.nl/fhir/StructureDefinition/ext-PharmaceuticalProduct.Description">
               <valueString value="Titel: Ureum 10% in eucerine cum aqua 100gr           Regel: UREUM 10gr           Regel: EUCERINE MET WATER FAGRON ad 100gr"/>
            </extension>
            <code>
               <coding>
                  <system value="http://terminology.hl7.org/CodeSystem/v3-NullFlavor"/>
                  <code value="OTH"/>
                  <display value="overig"/>
               </coding>
               <text value="Ureum 10% in eucerine cum aqua 100gr"/>
            </code>
            <ingredient>
               <itemCodeableConcept>
                  <coding>
                     <system value="urn:oid:2.16.840.1.113883.2.4.4.7"/>
                     <code value="1042467"/>
                     <display value="UREUM ZALF 10% FAGRON"/>
                  </coding>
               </itemCodeableConcept>
               <strength>
                  <numerator>
                     <extension url="http://hl7.org/fhir/StructureDefinition/iso21090-PQ-translation">
                        <valueQuantity>
                           <value value="10"/>
                           <unit value="gram"/>
                           <system value="urn:oid:2.16.840.1.113883.2.4.4.1.900.2"/>
                           <code value="215"/>
                        </valueQuantity>
                     </extension>
                     <value value="10"/>
                     <unit value="gram"/>
                     <system value="http://unitsofmeasure.org"/>
                     <code value="g"/>
                  </numerator>
                  <denominator>
                     <extension url="http://hl7.org/fhir/StructureDefinition/iso21090-PQ-translation">
                        <valueQuantity>
                           <value value="100"/>
                           <unit value="gram"/>
                           <system value="urn:oid:2.16.840.1.113883.2.4.4.1.900.2"/>
                           <code value="215"/>
                        </valueQuantity>
                     </extension>
                     <value value="100"/>
                     <unit value="gram"/>
                     <system value="http://unitsofmeasure.org"/>
                     <code value="g"/>
                  </denominator>
               </strength>
            </ingredient>
            <ingredient>
               <itemCodeableConcept>
                  <coding>
                     <system value="urn:oid:2.16.840.1.113883.2.4.4.7"/>
                     <code value="1516981"/>
                     <display value="EUCERINE MET WATER FAGRON"/>
                  </coding>
               </itemCodeableConcept>
               <strength>
                  <numerator>
                     <extension url="http://hl7.org/fhir/StructureDefinition/iso21090-PQ-translation">
                        <valueQuantity>
                           <value value="90"/>
                           <unit value="gram"/>
                           <system value="urn:oid:2.16.840.1.113883.2.4.4.1.900.2"/>
                           <code value="215"/>
                        </valueQuantity>
                     </extension>
                     <value value="90"/>
                     <unit value="gram"/>
                     <system value="http://unitsofmeasure.org"/>
                     <code value="g"/>
                  </numerator>
                  <denominator>
                     <extension url="http://hl7.org/fhir/StructureDefinition/iso21090-PQ-translation">
                        <valueQuantity>
                           <value value="100"/>
                           <unit value="gram"/>
                           <system value="urn:oid:2.16.840.1.113883.2.4.4.1.900.2"/>
                           <code value="215"/>
                        </valueQuantity>
                     </extension>
                     <value value="100"/>
                     <unit value="gram"/>
                     <system value="http://unitsofmeasure.org"/>
                     <code value="g"/>
                  </denominator>
               </strength>
            </ingredient>
         </Medication>
      </resource>
      <request>
         <method value="POST"/>
         <url value="Medication"/>
      </request>
   </entry>
   <entry>
<<<<<<< HEAD:ada_2_fhir-r4/mp/9.2.0/beschikbaarstellen_medicatiegegevens/fhir_instance/mg-mgrp-999900614-ALL.xml
      <fullUrl value="urn:uuid:c33f1aa4-6a95-11ec-0000-020000000000"/>
      <resource>
         <Medication>
            <id value="nl-core-PhPrd-mp9-c33f186a-6a95-11ec-0000-020000000000"/>
=======
      <fullUrl value="urn:uuid:c33f19fa-6a95-11ec-0000-020000000000"/>
      <resource>
         <Medication>
>>>>>>> origin/master:ada_2_fhir-r4/mp/9.2.0/beschikbaarstellen_medicatiegegevens/fhir_instance/mg-mgrp-999900948-ALL.xml
            <meta>
               <profile value="http://nictiz.nl/fhir/StructureDefinition/nl-core-PharmaceuticalProduct"/>
            </meta>
            <extension url="http://nictiz.nl/fhir/StructureDefinition/ext-PharmaceuticalProduct.Description">
               <valueString value="Titel: Vaseline 20% in cetomacrogolcrme FNA Regel 1: cetomacrogolcreme 80 gr"/>
            </extension>
            <code>
               <coding>
                  <system value="http://terminology.hl7.org/CodeSystem/v3-NullFlavor"/>
                  <code value="OTH"/>
                  <display value="overig"/>
               </coding>
               <text value="Vaseline 20% in cetomacrogolcrme FNA"/>
            </code>
            <ingredient>
               <itemCodeableConcept>
                  <coding>
                     <system value="urn:oid:2.16.840.1.113883.2.4.4.7"/>
                     <code value="457590"/>
                     <display value="CETOMACROGOLCREME FNA"/>
                  </coding>
               </itemCodeableConcept>
               <strength>
                  <numerator>
                     <extension url="http://hl7.org/fhir/StructureDefinition/iso21090-PQ-translation">
                        <valueQuantity>
                           <value value="80"/>
                           <unit value="gram"/>
                           <system value="urn:oid:2.16.840.1.113883.2.4.4.1.900.2"/>
                           <code value="215"/>
                        </valueQuantity>
                     </extension>
                     <value value="80"/>
                     <unit value="gram"/>
                     <system value="http://unitsofmeasure.org"/>
                     <code value="g"/>
                  </numerator>
                  <denominator>
                     <extension url="http://hl7.org/fhir/StructureDefinition/iso21090-PQ-translation">
                        <valueQuantity>
                           <value value="100"/>
                           <unit value="gram"/>
                           <system value="urn:oid:2.16.840.1.113883.2.4.4.1.900.2"/>
                           <code value="215"/>
                        </valueQuantity>
                     </extension>
                     <value value="100"/>
                     <unit value="gram"/>
                     <system value="http://unitsofmeasure.org"/>
                     <code value="g"/>
                  </denominator>
               </strength>
            </ingredient>
         </Medication>
      </resource>
      <request>
         <method value="POST"/>
         <url value="Medication"/>
      </request>
   </entry>
   <entry>
<<<<<<< HEAD:ada_2_fhir-r4/mp/9.2.0/beschikbaarstellen_medicatiegegevens/fhir_instance/mg-mgrp-999900614-ALL.xml
      <fullUrl value="urn:uuid:c33f1ac2-6a95-11ec-0000-020000000000"/>
=======
      <fullUrl value="urn:uuid:c33f1a18-6a95-11ec-0000-020000000000"/>
>>>>>>> origin/master:ada_2_fhir-r4/mp/9.2.0/beschikbaarstellen_medicatiegegevens/fhir_instance/mg-mgrp-999900948-ALL.xml
      <resource>
         <Medication>
            <meta>
               <profile value="http://nictiz.nl/fhir/StructureDefinition/nl-core-PharmaceuticalProduct"/>
            </meta>
            <extension url="http://nictiz.nl/fhir/StructureDefinition/ext-PharmaceuticalProduct.Description">
               <valueString value="Titel: Ureum 10% in eucerine cum aqua 100gr           Regel: UREUM 10gr           Regel: EUCERINE MET WATER FAGRON ad 100gr"/>
            </extension>
            <code>
               <coding>
                  <system value="urn:oid:2.16.840.1.113883.2.4.3.11.9999.77.90000000.1.1111"/>
                  <code value="90000001"/>
                  <display value="Eigen artikel: ureumzalf"/>
               </coding>
               <text value="Ureum 10% in eucerine cum aqua 100gr"/>
            </code>
            <ingredient>
               <itemCodeableConcept>
                  <coding>
                     <system value="urn:oid:2.16.840.1.113883.2.4.4.7"/>
                     <code value="1042467"/>
                     <display value="UREUM ZALF 10% FAGRON"/>
                  </coding>
               </itemCodeableConcept>
               <strength>
                  <numerator>
                     <extension url="http://hl7.org/fhir/StructureDefinition/iso21090-PQ-translation">
                        <valueQuantity>
                           <value value="10"/>
                           <unit value="gram"/>
                           <system value="urn:oid:2.16.840.1.113883.2.4.4.1.900.2"/>
                           <code value="215"/>
                        </valueQuantity>
                     </extension>
                     <value value="10"/>
                     <unit value="gram"/>
                     <system value="http://unitsofmeasure.org"/>
                     <code value="g"/>
                  </numerator>
                  <denominator>
                     <extension url="http://hl7.org/fhir/StructureDefinition/iso21090-PQ-translation">
                        <valueQuantity>
                           <value value="100"/>
                           <unit value="gram"/>
                           <system value="urn:oid:2.16.840.1.113883.2.4.4.1.900.2"/>
                           <code value="215"/>
                        </valueQuantity>
                     </extension>
                     <value value="100"/>
                     <unit value="gram"/>
                     <system value="http://unitsofmeasure.org"/>
                     <code value="g"/>
                  </denominator>
               </strength>
            </ingredient>
         </Medication>
      </resource>
      <request>
         <method value="POST"/>
         <url value="Medication"/>
      </request>
   </entry>
</Bundle>
