<Bundle xmlns="http://hl7.org/fhir">
   <id value="mg-mp-mg-tst-MA-Scenarioset2-v20"/>
   <type value="transaction"/>
   <entry>
<<<<<<< HEAD
      <fullUrl value="urn:uuid:c33f1ac2-6a95-11ec-0000-020000000000"/>
      <resource>
         <MedicationRequest>
            <id value="9-21684011138832431199977160760051-MBH200aanvullendeinstructieMA"/>
=======
      <fullUrl value="urn:uuid:c33f13ce-6a95-11ec-0000-020000000000"/>
      <resource>
         <MedicationRequest>
>>>>>>> origin/master
            <meta>
               <profile value="http://nictiz.nl/fhir/StructureDefinition/mp-MedicationAgreement"/>
            </meta>
            <extension url="http://nictiz.nl/fhir/StructureDefinition/ext-RenderedDosageInstruction">
               <valueString value="Vanaf T - 4 maanden, tot en met T + 8 maanden, 1 maal per dag 1 stuk, Bij het eten innemen, Oraal"/>
            </extension>
            <extension url="http://nictiz.nl/fhir/StructureDefinition/ext-TimeInterval.Period">
               <valuePeriod>
                  <start value="${DATE, T, M, -4}T00:00:00+02:00"/>
                  <end value="${DATE, T, M, +8}T23:59:59+02:00"/>
               </valuePeriod>
            </extension>
            <extension url="http://nictiz.nl/fhir/StructureDefinition/ext-PharmaceuticalTreatment.Identifier">
               <valueIdentifier>
                  <system value="urn:oid:2.16.840.1.113883.2.4.3.11.999.77.1.1"/>
                  <value value="MBH_200_aanvullendeinstructie"/>
               </valueIdentifier>
            </extension>
            <identifier>
               <system value="urn:oid:2.16.840.1.113883.2.4.3.11.999.77.16076005.1"/>
               <value value="MBH_200_aanvullendeinstructie_MA"/>
            </identifier>
            <status value="unknown"/>
            <intent value="order"/>
            <category>
               <coding>
                  <system value="http://snomed.info/sct"/>
                  <code value="33633005"/>
                  <display value="voorschrijven van geneesmiddel"/>
               </coding>
            </category>
            <medicationReference>
<<<<<<< HEAD
               <reference value="urn:uuid:c33f1b76-6a95-11ec-0000-020000000000"/>
=======
               <reference value="urn:uuid:c33f1482-6a95-11ec-0000-020000000000"/>
>>>>>>> origin/master
               <type value="Medication"/>
               <display value="Acetylsalicylzuur tabletmsr 100mg"/>
            </medicationReference>
            <subject>
<<<<<<< HEAD
               <reference value="urn:uuid:c33f1a0e-6a95-11ec-0000-020000000000"/>
=======
               <reference value="urn:uuid:c33f1374-6a95-11ec-0000-020000000000"/>
>>>>>>> origin/master
               <type value="Patient"/>
               <display value="Patient, D. XXX_Dixhoorn"/>
            </subject>
            <authoredOn value="${DATE, T, M, -4}T08:00:00+02:00"/>
            <requester>
<<<<<<< HEAD
               <reference value="urn:uuid:c33f1a36-6a95-11ec-0000-020000000000"/>
=======
               <reference value="urn:uuid:c33f1392-6a95-11ec-0000-020000000000"/>
>>>>>>> origin/master
               <type value="PractitionerRole"/>
               <display value="Healthcare professional (role), Bertine van Doorn, Huisartsen, niet nader gespecificeerd, Huisartsenpraktijk Pulver &amp; Partners"/>
            </requester>
            <dosageInstruction>
               <additionalInstruction>
                  <coding>
                     <system value="http://terminology.hl7.org/CodeSystem/v3-NullFlavor"/>
                     <code value="OTH"/>
                     <display value="overig"/>
                  </coding>
                  <text value="Bij het eten innemen"/>
               </additionalInstruction>
               <timing>
                  <repeat>
                     <frequency value="1"/>
                     <period value="1"/>
                     <periodUnit value="d"/>
                  </repeat>
               </timing>
               <route>
                  <coding>
                     <system value="urn:oid:2.16.840.1.113883.2.4.4.9"/>
                     <code value="9"/>
                     <display value="Oraal"/>
                  </coding>
               </route>
               <doseAndRate>
                  <doseQuantity>
                     <extension url="http://hl7.org/fhir/StructureDefinition/iso21090-PQ-translation">
                        <valueQuantity>
                           <value value="1"/>
                           <unit value="stuk"/>
                           <system value="urn:oid:2.16.840.1.113883.2.4.4.1.900.2"/>
                           <code value="245"/>
                        </valueQuantity>
                     </extension>
                     <value value="1"/>
                     <unit value="stuk"/>
                     <system value="http://unitsofmeasure.org"/>
                     <code value="1"/>
                  </doseQuantity>
               </doseAndRate>
            </dosageInstruction>
         </MedicationRequest>
      </resource>
      <request>
         <method value="POST"/>
         <url value="MedicationRequest"/>
      </request>
   </entry>
   <entry>
<<<<<<< HEAD
      <fullUrl value="urn:uuid:c33f1ae0-6a95-11ec-0000-020000000000"/>
      <resource>
         <MedicationRequest>
            <id value="-MedAgr-mp9-21684011138832431199977160760051-MBH200toelichtingMA"/>
=======
      <fullUrl value="urn:uuid:c33f13ec-6a95-11ec-0000-020000000000"/>
      <resource>
         <MedicationRequest>
>>>>>>> origin/master
            <meta>
               <profile value="http://nictiz.nl/fhir/StructureDefinition/mp-MedicationAgreement"/>
            </meta>
            <extension url="http://nictiz.nl/fhir/StructureDefinition/ext-RenderedDosageInstruction">
               <valueString value="Vanaf T - 21 dagen, 1 maal per dag 1 stuk, Oraal"/>
            </extension>
            <extension url="http://nictiz.nl/fhir/StructureDefinition/ext-TimeInterval.Period">
               <valuePeriod>
                  <start value="${DATE, T, D, -21}T00:00:00+02:00"/>
               </valuePeriod>
            </extension>
            <extension url="http://nictiz.nl/fhir/StructureDefinition/ext-PharmaceuticalTreatment.Identifier">
               <valueIdentifier>
                  <system value="urn:oid:2.16.840.1.113883.2.4.3.11.999.77.1.1"/>
                  <value value="MBH_200_toelichting"/>
               </valueIdentifier>
            </extension>
            <identifier>
               <system value="urn:oid:2.16.840.1.113883.2.4.3.11.999.77.16076005.1"/>
               <value value="MBH_200_toelichting_MA"/>
            </identifier>
            <status value="unknown"/>
            <intent value="order"/>
            <category>
               <coding>
                  <system value="http://snomed.info/sct"/>
                  <code value="33633005"/>
                  <display value="voorschrijven van geneesmiddel"/>
               </coding>
            </category>
            <medicationReference>
<<<<<<< HEAD
               <reference value="urn:uuid:c33f1b94-6a95-11ec-0000-020000000000"/>
=======
               <reference value="urn:uuid:c33f14a0-6a95-11ec-0000-020000000000"/>
>>>>>>> origin/master
               <type value="Medication"/>
               <display value="FUROSEMIDE 40MG TABLET"/>
            </medicationReference>
            <subject>
<<<<<<< HEAD
               <reference value="urn:uuid:c33f1a0e-6a95-11ec-0000-020000000000"/>
=======
               <reference value="urn:uuid:c33f1374-6a95-11ec-0000-020000000000"/>
>>>>>>> origin/master
               <type value="Patient"/>
               <display value="Patient, D. XXX_Dixhoorn"/>
            </subject>
            <authoredOn value="${DATE, T, D, -21}T08:02:00+02:00"/>
            <requester>
<<<<<<< HEAD
               <reference value="urn:uuid:c33f1a36-6a95-11ec-0000-020000000000"/>
=======
               <reference value="urn:uuid:c33f1392-6a95-11ec-0000-020000000000"/>
>>>>>>> origin/master
               <type value="PractitionerRole"/>
               <display value="Healthcare professional (role), Bertine van Doorn, Huisartsen, niet nader gespecificeerd, Huisartsenpraktijk Pulver &amp; Partners"/>
            </requester>
            <note>
               <text value="In overleg met specialist"/>
            </note>
            <dosageInstruction>
               <timing>
                  <repeat>
                     <frequency value="1"/>
                     <period value="1"/>
                     <periodUnit value="d"/>
                  </repeat>
               </timing>
               <route>
                  <coding>
                     <system value="urn:oid:2.16.840.1.113883.2.4.4.9"/>
                     <code value="9"/>
                     <display value="Oraal"/>
                  </coding>
               </route>
               <doseAndRate>
                  <doseQuantity>
                     <extension url="http://hl7.org/fhir/StructureDefinition/iso21090-PQ-translation">
                        <valueQuantity>
                           <value value="1"/>
                           <unit value="stuk"/>
                           <system value="urn:oid:2.16.840.1.113883.2.4.4.1.900.2"/>
                           <code value="245"/>
                        </valueQuantity>
                     </extension>
                     <value value="1"/>
                     <unit value="stuk"/>
                     <system value="http://unitsofmeasure.org"/>
                     <code value="1"/>
                  </doseQuantity>
               </doseAndRate>
            </dosageInstruction>
         </MedicationRequest>
      </resource>
      <request>
         <method value="POST"/>
         <url value="MedicationRequest"/>
      </request>
   </entry>
   <entry>
<<<<<<< HEAD
      <fullUrl value="urn:uuid:c33f1afe-6a95-11ec-0000-020000000000"/>
      <resource>
         <MedicationRequest>
            <id value="9-21684011138832431199977160760051-MBH200redenvanvoorschrijvenMA"/>
=======
      <fullUrl value="urn:uuid:c33f140a-6a95-11ec-0000-020000000000"/>
      <resource>
         <MedicationRequest>
>>>>>>> origin/master
            <meta>
               <profile value="http://nictiz.nl/fhir/StructureDefinition/mp-MedicationAgreement"/>
            </meta>
            <extension url="http://nictiz.nl/fhir/StructureDefinition/ext-RenderedDosageInstruction">
               <valueString value="Vanaf T - 13 dagen, tot en met T + 14 dagen, 1 maal per week 5 stuks, Oraal"/>
            </extension>
            <extension url="http://nictiz.nl/fhir/StructureDefinition/ext-TimeInterval.Period">
               <valuePeriod>
                  <start value="${DATE, T, D, -13}T00:00:00+02:00"/>
                  <end value="${DATE, T, D, +14}T23:59:59+02:00"/>
               </valuePeriod>
            </extension>
            <extension url="http://nictiz.nl/fhir/StructureDefinition/ext-PharmaceuticalTreatment.Identifier">
               <valueIdentifier>
                  <system value="urn:oid:2.16.840.1.113883.2.4.3.11.999.77.1.1"/>
                  <value value="MBH_200_redenvanvoorschrijven"/>
               </valueIdentifier>
            </extension>
            <identifier>
               <system value="urn:oid:2.16.840.1.113883.2.4.3.11.999.77.16076005.1"/>
               <value value="MBH_200_redenvanvoorschrijven_MA"/>
            </identifier>
            <status value="unknown"/>
            <intent value="order"/>
            <category>
               <coding>
                  <system value="http://snomed.info/sct"/>
                  <code value="33633005"/>
                  <display value="voorschrijven van geneesmiddel"/>
               </coding>
            </category>
            <medicationReference>
<<<<<<< HEAD
               <reference value="urn:uuid:c33f1bb2-6a95-11ec-0000-020000000000"/>
=======
               <reference value="urn:uuid:c33f14be-6a95-11ec-0000-020000000000"/>
>>>>>>> origin/master
               <type value="Medication"/>
               <display value="Methotrexaat tablet 2,5mg"/>
            </medicationReference>
            <subject>
<<<<<<< HEAD
               <reference value="urn:uuid:c33f1a0e-6a95-11ec-0000-020000000000"/>
=======
               <reference value="urn:uuid:c33f1374-6a95-11ec-0000-020000000000"/>
>>>>>>> origin/master
               <type value="Patient"/>
               <display value="Patient, D. XXX_Dixhoorn"/>
            </subject>
            <authoredOn value="${DATE, T, D, -13}T08:05:00+02:00"/>
            <requester>
<<<<<<< HEAD
               <reference value="urn:uuid:c33f1a36-6a95-11ec-0000-020000000000"/>
=======
               <reference value="urn:uuid:c33f1392-6a95-11ec-0000-020000000000"/>
>>>>>>> origin/master
               <type value="PractitionerRole"/>
               <display value="Healthcare professional (role), Bertine van Doorn, Huisartsen, niet nader gespecificeerd, Huisartsenpraktijk Pulver &amp; Partners"/>
            </requester>
            <reasonReference>
<<<<<<< HEAD
               <reference value="urn:uuid:c33f1b58-6a95-11ec-0000-020000000000"/>
=======
               <reference value="urn:uuid:c33f1464-6a95-11ec-0000-020000000000"/>
>>>>>>> origin/master
               <type value="Condition"/>
               <display value="Problem"/>
            </reasonReference>
            <dosageInstruction>
               <timing>
                  <repeat>
                     <frequency value="1"/>
                     <period value="1"/>
                     <periodUnit value="wk"/>
                  </repeat>
               </timing>
               <route>
                  <coding>
                     <system value="urn:oid:2.16.840.1.113883.2.4.4.9"/>
                     <code value="9"/>
                     <display value="Oraal"/>
                  </coding>
               </route>
               <doseAndRate>
                  <doseQuantity>
                     <extension url="http://hl7.org/fhir/StructureDefinition/iso21090-PQ-translation">
                        <valueQuantity>
                           <value value="5"/>
                           <unit value="stuk"/>
                           <system value="urn:oid:2.16.840.1.113883.2.4.4.1.900.2"/>
                           <code value="245"/>
                        </valueQuantity>
                     </extension>
                     <value value="5"/>
                     <unit value="stuk"/>
                     <system value="http://unitsofmeasure.org"/>
                     <code value="1"/>
                  </doseQuantity>
               </doseAndRate>
            </dosageInstruction>
         </MedicationRequest>
      </resource>
      <request>
         <method value="POST"/>
         <url value="MedicationRequest"/>
      </request>
   </entry>
   <entry>
<<<<<<< HEAD
      <fullUrl value="urn:uuid:c33f1b1c-6a95-11ec-0000-020000000000"/>
      <resource>
         <MedicationRequest>
            <id value="mp-MedAgr-mp9-c33f1009-6a95-11ec-0000-020000000000"/>
=======
      <fullUrl value="urn:uuid:c33f1428-6a95-11ec-0000-020000000000"/>
      <resource>
         <MedicationRequest>
>>>>>>> origin/master
            <meta>
               <profile value="http://nictiz.nl/fhir/StructureDefinition/mp-MedicationAgreement"/>
            </meta>
            <extension url="http://nictiz.nl/fhir/StructureDefinition/ext-MedicationAgreement.MedicationAgreementAdditionalInformation">
               <valueCodeableConcept>
                  <coding>
                     <system value="urn:oid:2.16.840.1.113883.2.4.3.11.60.20.77.5.2.14.2050"/>
                     <code value="1"/>
                     <display value="Bewust hoge dosering"/>
                  </coding>
               </valueCodeableConcept>
            </extension>
            <extension url="http://nictiz.nl/fhir/StructureDefinition/ext-RenderedDosageInstruction">
               <valueString value="Vanaf T - 4 dagen, tot en met T + 5 dagen, 3 maal per dag 1 stuk, Oraal"/>
            </extension>
            <extension url="http://nictiz.nl/fhir/StructureDefinition/ext-TimeInterval.Period">
               <valuePeriod>
                  <start value="${DATE, T, D, -4}T00:00:00+02:00"/>
                  <end value="${DATE, T, D, +5}T23:59:59+02:00"/>
               </valuePeriod>
            </extension>
            <extension url="http://nictiz.nl/fhir/StructureDefinition/ext-PharmaceuticalTreatment.Identifier">
               <valueIdentifier>
                  <system value="urn:oid:2.16.840.1.113883.2.4.3.11.999.77.1.1"/>
                  <value value="MBH_200_aanvullendeinformatiewensen"/>
               </valueIdentifier>
            </extension>
            <identifier>
               <system value="urn:oid:2.16.840.1.113883.2.4.3.11.999.77.16076005.1"/>
               <value value="MBH_200_aanvullendeinformatiewensen_MA"/>
            </identifier>
            <status value="unknown"/>
            <intent value="order"/>
            <category>
               <coding>
                  <system value="http://snomed.info/sct"/>
                  <code value="33633005"/>
                  <display value="voorschrijven van geneesmiddel"/>
               </coding>
            </category>
            <medicationReference>
<<<<<<< HEAD
               <reference value="urn:uuid:c33f1bd0-6a95-11ec-0000-020000000000"/>
=======
               <reference value="urn:uuid:c33f14dc-6a95-11ec-0000-020000000000"/>
>>>>>>> origin/master
               <type value="Medication"/>
               <display value="FENETICILLINE CAPSULE 500MG"/>
            </medicationReference>
            <subject>
<<<<<<< HEAD
               <reference value="urn:uuid:c33f1a0e-6a95-11ec-0000-020000000000"/>
=======
               <reference value="urn:uuid:c33f1374-6a95-11ec-0000-020000000000"/>
>>>>>>> origin/master
               <type value="Patient"/>
               <display value="Patient, D. XXX_Dixhoorn"/>
            </subject>
            <authoredOn value="${DATE, T, D, -5}T08:06:00+02:00"/>
            <requester>
<<<<<<< HEAD
               <reference value="urn:uuid:c33f1a36-6a95-11ec-0000-020000000000"/>
=======
               <reference value="urn:uuid:c33f1392-6a95-11ec-0000-020000000000"/>
>>>>>>> origin/master
               <type value="PractitionerRole"/>
               <display value="Healthcare professional (role), Bertine van Doorn, Huisartsen, niet nader gespecificeerd, Huisartsenpraktijk Pulver &amp; Partners"/>
            </requester>
            <dosageInstruction>
               <timing>
                  <repeat>
                     <frequency value="3"/>
                     <period value="1"/>
                     <periodUnit value="d"/>
                  </repeat>
               </timing>
               <route>
                  <coding>
                     <system value="urn:oid:2.16.840.1.113883.2.4.4.9"/>
                     <code value="9"/>
                     <display value="Oraal"/>
                  </coding>
               </route>
               <doseAndRate>
                  <doseQuantity>
                     <extension url="http://hl7.org/fhir/StructureDefinition/iso21090-PQ-translation">
                        <valueQuantity>
                           <value value="1"/>
                           <unit value="stuk"/>
                           <system value="urn:oid:2.16.840.1.113883.2.4.4.1.900.2"/>
                           <code value="245"/>
                        </valueQuantity>
                     </extension>
                     <value value="1"/>
                     <unit value="stuk"/>
                     <system value="http://unitsofmeasure.org"/>
                     <code value="1"/>
                  </doseQuantity>
               </doseAndRate>
            </dosageInstruction>
         </MedicationRequest>
      </resource>
      <request>
         <method value="POST"/>
         <url value="MedicationRequest"/>
      </request>
   </entry>
   <entry>
<<<<<<< HEAD
      <fullUrl value="urn:uuid:c33f1b3a-6a95-11ec-0000-020000000000"/>
      <resource>
         <MedicationRequest>
            <id value="dAgr-mp9-21684011138832431199977160760051-MBH200ToedieningswegMA"/>
=======
      <fullUrl value="urn:uuid:c33f1446-6a95-11ec-0000-020000000000"/>
      <resource>
         <MedicationRequest>
>>>>>>> origin/master
            <meta>
               <profile value="http://nictiz.nl/fhir/StructureDefinition/mp-MedicationAgreement"/>
            </meta>
            <extension url="http://nictiz.nl/fhir/StructureDefinition/ext-MedicationAgreement.MedicationAgreementAdditionalInformation">
               <valueCodeableConcept>
                  <coding>
                     <system value="urn:oid:2.16.840.1.113883.2.4.3.11.60.20.77.5.2.14.2050"/>
                     <code value="3"/>
                     <display value="Bewust afwijkende toedieningsweg"/>
                  </coding>
               </valueCodeableConcept>
            </extension>
            <extension url="http://nictiz.nl/fhir/StructureDefinition/ext-RenderedDosageInstruction">
               <valueString value="Vanaf T - 5 dagen, tot en met T + 2 dagen, 2 maal per dag 1 druppel, In het rechter oog, oculair"/>
            </extension>
            <extension url="http://nictiz.nl/fhir/StructureDefinition/ext-TimeInterval.Period">
               <valuePeriod>
                  <start value="${DATE, T, D, -5}T00:00:00+02:00"/>
                  <end value="${DATE, T, D, +2}T23:59:59+02:00"/>
               </valuePeriod>
            </extension>
            <extension url="http://nictiz.nl/fhir/StructureDefinition/ext-PharmaceuticalTreatment.Identifier">
               <valueIdentifier>
                  <system value="urn:oid:2.16.840.1.113883.2.4.3.11.999.77.1.1"/>
                  <value value="MBH_200_Toedieningsweg"/>
               </valueIdentifier>
            </extension>
            <identifier>
               <system value="urn:oid:2.16.840.1.113883.2.4.3.11.999.77.16076005.1"/>
               <value value="MBH_200_Toedieningsweg_MA"/>
            </identifier>
            <status value="unknown"/>
            <intent value="order"/>
            <category>
               <coding>
                  <system value="http://snomed.info/sct"/>
                  <code value="33633005"/>
                  <display value="voorschrijven van geneesmiddel"/>
               </coding>
            </category>
            <medicationReference>
<<<<<<< HEAD
               <reference value="urn:uuid:c33f1bee-6a95-11ec-0000-020000000000"/>
=======
               <reference value="urn:uuid:c33f14fa-6a95-11ec-0000-020000000000"/>
>>>>>>> origin/master
               <type value="Medication"/>
               <display value="DEXAMETHASON/FRAMYCETINE/GRAMICIDINE OORDR"/>
            </medicationReference>
            <subject>
<<<<<<< HEAD
               <reference value="urn:uuid:c33f1a0e-6a95-11ec-0000-020000000000"/>
=======
               <reference value="urn:uuid:c33f1374-6a95-11ec-0000-020000000000"/>
>>>>>>> origin/master
               <type value="Patient"/>
               <display value="Patient, D. XXX_Dixhoorn"/>
            </subject>
            <authoredOn value="${DATE, T, D, -5}T08:15:00+02:00"/>
            <requester>
<<<<<<< HEAD
               <reference value="urn:uuid:c33f1a36-6a95-11ec-0000-020000000000"/>
=======
               <reference value="urn:uuid:c33f1392-6a95-11ec-0000-020000000000"/>
>>>>>>> origin/master
               <type value="PractitionerRole"/>
               <display value="Healthcare professional (role), Bertine van Doorn, Huisartsen, niet nader gespecificeerd, Huisartsenpraktijk Pulver &amp; Partners"/>
            </requester>
            <dosageInstruction>
               <additionalInstruction>
                  <coding>
                     <system value="http://terminology.hl7.org/CodeSystem/v3-NullFlavor"/>
                     <code value="OTH"/>
                     <display value="overig"/>
                  </coding>
                  <text value="In het rechter oog"/>
               </additionalInstruction>
               <timing>
                  <repeat>
                     <frequency value="2"/>
                     <period value="1"/>
                     <periodUnit value="d"/>
                  </repeat>
               </timing>
               <route>
                  <coding>
                     <system value="urn:oid:2.16.840.1.113883.2.4.4.9"/>
                     <code value="7"/>
                     <display value="oculair"/>
                  </coding>
               </route>
               <doseAndRate>
                  <doseQuantity>
                     <extension url="http://hl7.org/fhir/StructureDefinition/iso21090-PQ-translation">
                        <valueQuantity>
                           <value value="1"/>
                           <unit value="Druppel"/>
                           <system value="urn:oid:2.16.840.1.113883.2.4.4.1.900.2"/>
                           <code value="303"/>
                        </valueQuantity>
                     </extension>
                     <value value="1"/>
                     <unit value="Druppel"/>
                     <system value="http://unitsofmeasure.org"/>
                     <code value="[drp]"/>
                  </doseQuantity>
               </doseAndRate>
            </dosageInstruction>
         </MedicationRequest>
      </resource>
      <request>
         <method value="POST"/>
         <url value="MedicationRequest"/>
      </request>
   </entry>
   <entry>
<<<<<<< HEAD
      <fullUrl value="urn:uuid:c33f1a0e-6a95-11ec-0000-020000000000"/>
=======
      <fullUrl value="urn:uuid:c33f1374-6a95-11ec-0000-020000000000"/>
>>>>>>> origin/master
      <resource>
         <Patient>
            <meta>
               <profile value="http://nictiz.nl/fhir/StructureDefinition/nl-core-Patient"/>
            </meta>
            <identifier>
               <system value="http://fhir.nl/fhir/NamingSystem/bsn"/>
               <value value="999900481"/>
            </identifier>
            <name>
               <extension url="http://hl7.org/fhir/StructureDefinition/humanname-assembly-order">
                  <valueCode value="NL1"/>
               </extension>
               <use value="official"/>
               <text value="D. XXX_Dixhoorn"/>
               <family value="XXX_Dixhoorn">
                  <extension url="http://hl7.org/fhir/StructureDefinition/humanname-own-name">
                     <valueString value="XXX_Dixhoorn"/>
                  </extension>
               </family>
               <given value="D.">
                  <extension url="http://hl7.org/fhir/StructureDefinition/iso21090-EN-qualifier">
                     <valueCode value="IN"/>
                  </extension>
               </given>
            </name>
            <gender value="male">
               <extension url="http://nictiz.nl/fhir/StructureDefinition/ext-CodeSpecification">
                  <valueCodeableConcept>
                     <coding>
                        <system value="http://terminology.hl7.org/CodeSystem/v3-AdministrativeGender"/>
                        <code value="M"/>
                        <display value="Man"/>
                     </coding>
                  </valueCodeableConcept>
               </extension>
            </gender>
            <birthDate value="1963-10-22"/>
         </Patient>
      </resource>
      <request>
         <method value="POST"/>
         <url value="Patient"/>
      </request>
   </entry>
   <entry>
<<<<<<< HEAD
      <fullUrl value="urn:uuid:c33f1a36-6a95-11ec-0000-020000000000"/>
      <resource>
         <PractitionerRole>
            <id value="nl-core-HPrf-PracRol-mp9-PrcRol-2165281100731-000001112"/>
=======
      <fullUrl value="urn:uuid:c33f1392-6a95-11ec-0000-020000000000"/>
      <resource>
         <PractitionerRole>
>>>>>>> origin/master
            <meta>
               <profile value="http://nictiz.nl/fhir/StructureDefinition/nl-core-HealthProfessional-PractitionerRole"/>
            </meta>
            <practitioner>
<<<<<<< HEAD
               <reference value="urn:uuid:c33f1a5e-6a95-11ec-0000-020000000000"/>
=======
               <reference value="urn:uuid:c33f13b0-6a95-11ec-0000-020000000000"/>
>>>>>>> origin/master
               <type value="Practitioner"/>
               <display value="Healthcare professional (person), Bertine van Doorn"/>
            </practitioner>
            <organization>
<<<<<<< HEAD
               <reference value="urn:uuid:c33f1a86-6a95-11ec-0000-020000000000"/>
=======
               <reference value="urn:uuid:c33f1518-6a95-11ec-0000-020000000000"/>
>>>>>>> origin/master
               <type value="Organization"/>
               <display value="Healthcare provider (organization), Huisartsenpraktijk Pulver &amp; Partners"/>
            </organization>
            <specialty>
               <coding>
                  <system value="urn:oid:2.16.840.1.113883.2.4.6.7"/>
                  <version value="2020-10-23T00:00:00"/>
                  <code value="0100"/>
                  <display value="Huisartsen, niet nader gespecificeerd"/>
               </coding>
            </specialty>
         </PractitionerRole>
      </resource>
      <request>
         <method value="POST"/>
         <url value="PractitionerRole"/>
      </request>
   </entry>
   <entry>
<<<<<<< HEAD
      <fullUrl value="urn:uuid:c33f1a5e-6a95-11ec-0000-020000000000"/>
=======
      <fullUrl value="urn:uuid:c33f13b0-6a95-11ec-0000-020000000000"/>
>>>>>>> origin/master
      <resource>
         <Practitioner>
            <meta>
               <profile value="http://nictiz.nl/fhir/StructureDefinition/nl-core-HealthProfessional-Practitioner"/>
            </meta>
            <identifier>
               <system value="http://fhir.nl/fhir/NamingSystem/uzi-nr-pers"/>
               <value value="000001112"/>
            </identifier>
            <name>
               <use value="official"/>
               <text value="Bertine van Doorn"/>
               <family value="van Doorn">
                  <extension url="http://hl7.org/fhir/StructureDefinition/humanname-own-prefix">
                     <valueString value="van"/>
                  </extension>
                  <extension url="http://hl7.org/fhir/StructureDefinition/humanname-own-name">
                     <valueString value="Doorn"/>
                  </extension>
               </family>
               <given value="Bertine">
                  <extension url="http://hl7.org/fhir/StructureDefinition/iso21090-EN-qualifier">
                     <valueCode value="BR"/>
                  </extension>
               </given>
            </name>
         </Practitioner>
      </resource>
      <request>
         <method value="POST"/>
         <url value="Practitioner"/>
      </request>
   </entry>
   <entry>
<<<<<<< HEAD
      <fullUrl value="urn:uuid:c33f1a86-6a95-11ec-0000-020000000000"/>
      <resource>
         <Organization>
            <id value="nl-core-HPrv-Org-mp9-Org-2165281100733-00001111"/>
=======
      <fullUrl value="urn:uuid:c33f1518-6a95-11ec-0000-020000000000"/>
      <resource>
         <Organization>
>>>>>>> origin/master
            <meta>
               <profile value="http://nictiz.nl/fhir/StructureDefinition/nl-core-HealthcareProvider-Organization"/>
            </meta>
            <identifier>
               <system value="http://fhir.nl/fhir/NamingSystem/ura"/>
               <value value="00001111"/>
            </identifier>
            <name value="Huisartsenpraktijk Pulver &amp; Partners"/>
            <address>
               <extension url="http://nictiz.nl/fhir/StructureDefinition/ext-AddressInformation.AddressType">
                  <valueCodeableConcept>
                     <coding>
                        <system value="http://terminology.hl7.org/CodeSystem/v3-AddressUse"/>
                        <code value="WP"/>
                        <display value="Werkadres"/>
                     </coding>
                  </valueCodeableConcept>
               </extension>
               <use value="work"/>
               <line value="Dorpsstraat 1">
                  <extension url="http://hl7.org/fhir/StructureDefinition/iso21090-ADXP-streetName">
                     <valueString value="Dorpsstraat"/>
                  </extension>
                  <extension url="http://hl7.org/fhir/StructureDefinition/iso21090-ADXP-houseNumber">
                     <valueString value="1"/>
                  </extension>
               </line>
               <city value="Ons Dorp"/>
               <postalCode value="1234AA"/>
            </address>
         </Organization>
      </resource>
      <request>
         <method value="POST"/>
         <url value="Organization"/>
      </request>
   </entry>
   <entry>
<<<<<<< HEAD
      <fullUrl value="urn:uuid:c33f1b76-6a95-11ec-0000-020000000000"/>
=======
      <fullUrl value="urn:uuid:c33f1482-6a95-11ec-0000-020000000000"/>
>>>>>>> origin/master
      <resource>
         <Medication>
            <meta>
               <profile value="http://nictiz.nl/fhir/StructureDefinition/nl-core-PharmaceuticalProduct"/>
            </meta>
            <code>
               <coding>
                  <system value="urn:oid:2.16.840.1.113883.2.4.4.10"/>
                  <code value="49484"/>
                  <display value="Acetylsalicylzuur tabletmsr 100mg"/>
                  <userSelected value="true"/>
               </coding>
               <coding>
                  <system value="urn:oid:2.16.840.1.113883.2.4.4.1"/>
                  <code value="103039"/>
                  <display value="Acetylsalicylzuur tabletmsr 100mg"/>
               </coding>
               <text value="Acetylsalicylzuur tabletmsr 100mg"/>
            </code>
         </Medication>
      </resource>
      <request>
         <method value="POST"/>
         <url value="Medication"/>
      </request>
   </entry>
   <entry>
<<<<<<< HEAD
      <fullUrl value="urn:uuid:c33f1b94-6a95-11ec-0000-020000000000"/>
=======
      <fullUrl value="urn:uuid:c33f14a0-6a95-11ec-0000-020000000000"/>
>>>>>>> origin/master
      <resource>
         <Medication>
            <meta>
               <profile value="http://nictiz.nl/fhir/StructureDefinition/nl-core-PharmaceuticalProduct"/>
            </meta>
            <code>
               <coding>
                  <system value="urn:oid:2.16.840.1.113883.2.4.4.10"/>
                  <code value="5967"/>
                  <display value="FUROSEMIDE 40MG TABLET"/>
                  <userSelected value="true"/>
               </coding>
               <coding>
                  <system value="urn:oid:2.16.840.1.113883.2.4.4.1"/>
                  <code value="16810"/>
                  <display value="FUROSEMIDE 40MG TABLET"/>
               </coding>
               <text value="FUROSEMIDE 40MG TABLET"/>
            </code>
         </Medication>
      </resource>
      <request>
         <method value="POST"/>
         <url value="Medication"/>
      </request>
   </entry>
   <entry>
<<<<<<< HEAD
      <fullUrl value="urn:uuid:c33f1bb2-6a95-11ec-0000-020000000000"/>
=======
      <fullUrl value="urn:uuid:c33f14be-6a95-11ec-0000-020000000000"/>
>>>>>>> origin/master
      <resource>
         <Medication>
            <meta>
               <profile value="http://nictiz.nl/fhir/StructureDefinition/nl-core-PharmaceuticalProduct"/>
            </meta>
            <code>
               <coding>
                  <system value="urn:oid:2.16.840.1.113883.2.4.4.10"/>
                  <code value="141631"/>
                  <display value="Methotrexaat tablet 2,5mg"/>
                  <userSelected value="true"/>
               </coding>
               <coding>
                  <system value="urn:oid:2.16.840.1.113883.2.4.4.1"/>
                  <code value="16918"/>
                  <display value="Methotrexaat tablet 2,5mg"/>
               </coding>
               <text value="Methotrexaat tablet 2,5mg"/>
            </code>
         </Medication>
      </resource>
      <request>
         <method value="POST"/>
         <url value="Medication"/>
      </request>
   </entry>
   <entry>
<<<<<<< HEAD
      <fullUrl value="urn:uuid:c33f1bd0-6a95-11ec-0000-020000000000"/>
=======
      <fullUrl value="urn:uuid:c33f14dc-6a95-11ec-0000-020000000000"/>
>>>>>>> origin/master
      <resource>
         <Medication>
            <meta>
               <profile value="http://nictiz.nl/fhir/StructureDefinition/nl-core-PharmaceuticalProduct"/>
            </meta>
            <code>
               <coding>
                  <system value="urn:oid:2.16.840.1.113883.2.4.4.10"/>
                  <code value="17205"/>
                  <display value="FENETICILLINE CAPSULE 500MG"/>
                  <userSelected value="true"/>
               </coding>
               <coding>
                  <system value="urn:oid:2.16.840.1.113883.2.4.4.1"/>
                  <code value="41092"/>
                  <display value="FENETICILLINE 500MG CAPSULE"/>
               </coding>
               <text value="FENETICILLINE CAPSULE 500MG"/>
            </code>
         </Medication>
      </resource>
      <request>
         <method value="POST"/>
         <url value="Medication"/>
      </request>
   </entry>
   <entry>
<<<<<<< HEAD
      <fullUrl value="urn:uuid:c33f1bee-6a95-11ec-0000-020000000000"/>
=======
      <fullUrl value="urn:uuid:c33f14fa-6a95-11ec-0000-020000000000"/>
>>>>>>> origin/master
      <resource>
         <Medication>
            <meta>
               <profile value="http://nictiz.nl/fhir/StructureDefinition/nl-core-PharmaceuticalProduct"/>
            </meta>
            <code>
               <coding>
                  <system value="urn:oid:2.16.840.1.113883.2.4.4.10"/>
                  <code value="80691"/>
                  <display value="DEXAMETHASON/FRAMYCETINE/GRAMICIDINE OORDR"/>
                  <userSelected value="true"/>
               </coding>
               <coding>
                  <system value="urn:oid:2.16.840.1.113883.2.4.4.1"/>
                  <code value="79804"/>
                  <display value="DEXAMETHASON/FRAMYCETINE/GRAMICIDINE OORDR"/>
               </coding>
               <text value="DEXAMETHASON/FRAMYCETINE/GRAMICIDINE OORDR"/>
            </code>
         </Medication>
      </resource>
      <request>
         <method value="POST"/>
         <url value="Medication"/>
      </request>
   </entry>
   <entry>
<<<<<<< HEAD
      <fullUrl value="urn:uuid:c33f1b58-6a95-11ec-0000-020000000000"/>
      <resource>
         <Condition>
            <id value="nl-core-Problem-mp9-c33f156c-6a95-11ec-0000-020000000000"/>
=======
      <fullUrl value="urn:uuid:c33f1464-6a95-11ec-0000-020000000000"/>
      <resource>
         <Condition>
>>>>>>> origin/master
            <meta>
               <profile value="http://nictiz.nl/fhir/StructureDefinition/nl-core-Problem"/>
            </meta>
            <code>
               <coding>
                  <system value="http://hl7.org/fhir/sid/icpc-1-nl"/>
                  <code value="L88.01"/>
                  <display value="Reumatoide artritis"/>
               </coding>
               <text value="Reumatoide artritis"/>
            </code>
            <subject>
<<<<<<< HEAD
               <reference value="urn:uuid:c33f1a0e-6a95-11ec-0000-020000000000"/>
=======
               <reference value="urn:uuid:c33f1374-6a95-11ec-0000-020000000000"/>
>>>>>>> origin/master
               <type value="Patient"/>
               <display value="Patient, D. XXX_Dixhoorn"/>
            </subject>
         </Condition>
      </resource>
      <request>
         <method value="POST"/>
         <url value="Condition"/>
      </request>
   </entry>
</Bundle>
