<?xml-model href="http://hl7.org/fhir/STU3/bundle.sch" type="application/xml" schematypens="http://purl.oclc.org/dsdl/schematron"?><Bundle xmlns="http://hl7.org/fhir"
        xmlns:xsi="http://www.w3.org/2001/XMLSchema-instance"
        xsi:schemaLocation="http://hl7.org/fhir http://hl7.org/fhir/STU3/bundle.xsd">
   <type value="searchset"/>
   <total value="1"/>
   <entry>
      <fullUrl value="urn:uuid:dfc0154e-bd37-11ea-1880-020000000000"/>
      <resource>
         <MedicationStatement>
            <meta>
               <profile value="http://nictiz.nl/fhir/StructureDefinition/zib-MedicationUse"/>
            </meta>
            <text>
               <status value="generated"/>
               <div xmlns="http://www.w3.org/1999/xhtml">
                  <table>
                     <caption>MedicationStatement. Subject: Pauline P. XXX_Bourgonje. Id: MBH_123_1_MGB_1 (urn:oid:2.16.840.1.113883.2.4.3.11.999.77.6.1), Categorie: <span title="Medicatiegebruik (6 - 2.16.840.1.113883.2.4.3.11.60.20.77.5.3)">Medicatiegebruik</span>, Status: <i>onbekend (ontbrekend gegeven)</i>
                        <span style="display: block;">Auteur: Pauline P. XXX_Bourgonje</span>
                     </caption>
                     <tbody>
                        <tr>
                           <th>Medicamenteuze behandel-id</th>
                           <td>MBH_123_1 (urn:oid:2.16.840.1.113883.2.4.3.11.999.77.1.1)</td>
                        </tr>
                        <tr>
                           <th>Voorschrijver</th>
                           <td>Bertine van Doorn || Huisartsen, niet nader gespecificeerd || Huisartsenpraktijk Stitswerd Oost</td>
                        </tr>
                        <tr>
                           <th>Medicatie</th>
                           <td>Cetomacrogolcreme met vaseline</td>
                        </tr>
                        <tr>
                           <th>Datum/tijd</th>
                           <td>Vanaf 00:00:00, 11 augustus 2018, 2 dag</td>
                        </tr>
                        <tr>
                           <th>Informant</th>
                           <td>20:58:00, 12 augustus 2018</td>
                        </tr>
                        <tr>
                           <th>Ondersteunende informatie</th>
                           <td>relatie naar medicatieafspraak (Id: MBH_123_1_MA_1 (urn:oid:2.16.840.1.113883.2.4.3.11.999.77.16076005.1))</td>
                        </tr>
                        <tr>
                           <th>Dosering</th>
                           <td>
                              <div>Volgnummer: 1</div>
                              <div>Tekst: Vanaf T-5 dagen, gedurende 2 dagen, 2 maal per dag aanbrengen</div>
                              <div>Instructie: <span title="aanbrengen (1018 - nhg-tabel-25-gebruiksvoorschrift#aanvullend-numeriek)">aanbrengen</span>
                              </div>
                              <div>Timing: <div>2 maal per dag</div>
                              </div>
                           </td>
                        </tr>
                        <tr>
                           <th>Medicatie gebruikt</th>
                           <td>ja</td>
                        </tr>
                     </tbody>
                  </table>
               </div>
            </text>
            <extension url="http://nictiz.nl/fhir/StructureDefinition/zib-MedicationUse-Prescriber">
               <valueReference>
                  <reference value="urn:uuid:dfc01564-bd37-11ea-1880-020000000000"/>
                  <display value="Bertine van Doorn || Huisartsen, niet nader gespecificeerd || Huisartsenpraktijk Stitswerd Oost"/>
               </valueReference>
            </extension>
            <extension url="http://nictiz.nl/fhir/StructureDefinition/zib-MedicationUse-Author">
               <valueReference>
                  <reference value="urn:uuid:dfc00dcb-bd37-11ea-1880-020000000000"/>
                  <display value="Pauline P. XXX_Bourgonje"/>
               </valueReference>
            </extension>
            <extension url="http://nictiz.nl/fhir/StructureDefinition/zib-Medication-MedicationTreatment">
               <valueIdentifier>
                  <system value="urn:oid:2.16.840.1.113883.2.4.3.11.999.77.1.1"/>
                  <value value="MBH_123_1"/>
               </valueIdentifier>
            </extension>
            <identifier>
               <system value="urn:oid:2.16.840.1.113883.2.4.3.11.999.77.6.1"/>
               <value value="MBH_123_1_MGB_1"/>
            </identifier>
            <status>
               <extension url="http://hl7.org/fhir/StructureDefinition/data-absent-reason">
                  <valueCode value="unknown"/>
               </extension>
            </status>
            <category>
               <coding>
                  <system value="urn:oid:2.16.840.1.113883.2.4.3.11.60.20.77.5.3"/>
                  <code value="6"/>
                  <display value="Medicatiegebruik"/>
               </coding>
               <text value="Medicatiegebruik"/>
            </category>
            <medicationReference>
               <reference value="urn:oid:2.16.840.1.113883.2.4.4.1.133329"/>
               <display value="Cetomacrogolcreme met vaseline"/>
            </medicationReference>
            <effectivePeriod>
               <extension url="http://nictiz.nl/fhir/StructureDefinition/zib-MedicationUse-Duration">
                  <valueDuration>
                     <value value="2"/>
                     <unit value="dag"/>
                     <system value="http://unitsofmeasure.org"/>
                     <code value="d"/>
                  </valueDuration>
               </extension>
               <start value="2018-08-11T00:00:00+02:00"/>
            </effectivePeriod>
            <dateAsserted value="2018-08-12T20:58:00+02:00"/>
            <subject>
               <reference value="urn:uuid:dfc00dcb-bd37-11ea-1880-020000000000"/>
               <display value="Pauline P. XXX_Bourgonje"/>
            </subject>
            <derivedFrom>
               <identifier>
                  <system value="urn:oid:2.16.840.1.113883.2.4.3.11.999.77.16076005.1"/>
                  <value value="MBH_123_1_MA_1"/>
               </identifier>
               <display value="relatie naar medicatieafspraak"/>
            </derivedFrom>
            <taken value="y"/>
            <dosage>
               <sequence value="1"/>
               <text value="Vanaf T-5 dagen, gedurende 2 dagen, 2 maal per dag aanbrengen"/>
               <additionalInstruction>
                  <coding>
                     <system value="https://referentiemodel.nhg.org/tabellen/nhg-tabel-25-gebruiksvoorschrift#aanvullend-numeriek"/>
                     <code value="1018"/>
                     <display value="aanbrengen"/>
                  </coding>
               </additionalInstruction>
               <timing>
                  <repeat>
                     <frequency value="2"/>
                     <period value="1"/>
                     <periodUnit value="d"/>
                  </repeat>
               </timing>
            </dosage>
         </MedicationStatement>
      </resource>
      <search>
         <mode value="match"/>
      </search>
   </entry>
   <entry>
      <fullUrl value="urn:uuid:dfc00dcb-bd37-11ea-1880-020000000000"/>
      <resource>
         <Patient>
            <meta>
               <profile value="http://fhir.nl/fhir/StructureDefinition/nl-core-patient"/>
            </meta>
            <text>
               <status value="generated"/>
               <div xmlns="http://www.w3.org/1999/xhtml">
                  <div>Id <i>afgeschermd (ontbrekend gegeven)</i> (BSN), Id 12102 (urn:oid:2.16.840.1.113883.2.4.3.11.999.77.19829.1), Pauline P. XXX_Bourgonje, Vrouw, 1 augustus 1964</div>
               </div>
            </text>
            <identifier>
               <system value="http://fhir.nl/fhir/NamingSystem/bsn"/>
               <value>
                  <extension url="http://hl7.org/fhir/StructureDefinition/data-absent-reason">
                     <valueCode value="masked"/>
                  </extension>
               </value>
            </identifier>
            <identifier>
               <system value="urn:oid:2.16.840.1.113883.2.4.3.11.999.77.19829.1"/>
               <value value="12102"/>
            </identifier>
            <name>
               <extension url="http://hl7.org/fhir/StructureDefinition/humanname-assembly-order">
                  <valueCode value="NL1"/>
               </extension>
               <family value="XXX_Bourgonje">
                  <extension url="http://hl7.org/fhir/StructureDefinition/humanname-own-name">
                     <valueString value="XXX_Bourgonje"/>
                  </extension>
               </family>
               <given value="Pauline">
                  <extension url="http://hl7.org/fhir/StructureDefinition/iso21090-EN-qualifier">
                     <valueCode value="BR"/>
                  </extension>
               </given>
               <given value="P.">
                  <extension url="http://hl7.org/fhir/StructureDefinition/iso21090-EN-qualifier">
                     <valueCode value="IN"/>
                  </extension>
               </given>
            </name>
            <gender value="female"/>
            <birthDate value="1964-08-01"/>
         </Patient>
      </resource>
      <search>
         <mode value="include"/>
      </search>
   </entry>
   <entry>
      <fullUrl value="urn:oid:2.16.528.1.1007.3.1.1112"/>
      <resource>
         <Practitioner>
            <meta>
               <profile value="http://fhir.nl/fhir/StructureDefinition/nl-core-practitioner"/>
            </meta>
            <text>
               <status value="generated"/>
               <div xmlns="http://www.w3.org/1999/xhtml">
                  <div>Id 000001112 (UZI-NR-PERS), Bertine van Doorn</div>
               </div>
            </text>
            <identifier>
               <system value="http://fhir.nl/fhir/NamingSystem/uzi-nr-pers"/>
               <value value="000001112"/>
            </identifier>
            <name>
               <family value="van Doorn">
                  <extension url="http://hl7.org/fhir/StructureDefinition/humanname-own-prefix">
                     <valueString value="van"/>
                  </extension>
                  <extension url="http://hl7.org/fhir/StructureDefinition/humanname-own-name">
                     <valueString value="Doorn"/>
                  </extension>
               </family>
               <given value="Bertine">
                  <extension url="http://hl7.org/fhir/StructureDefinition/iso21090-EN-qualifier">
                     <valueCode value="BR"/>
                  </extension>
               </given>
            </name>
         </Practitioner>
      </resource>
      <search>
         <mode value="include"/>
      </search>
   </entry>
   <entry>
      <fullUrl value="urn:oid:2.16.528.1.1007.3.3.99001111"/>
      <resource>
         <Organization>
            <meta>
               <profile value="http://fhir.nl/fhir/StructureDefinition/nl-core-organization"/>
            </meta>
            <text>
               <status value="generated"/>
               <div xmlns="http://www.w3.org/1999/xhtml">
                  <table>
                     <caption>OrganisatieId: 99001111 (URA)</caption>
                     <tbody>
                        <tr>
                           <th>Naam</th>
                           <td>Huisartsenpraktijk Stitswerd Oost</td>
                        </tr>
                     </tbody>
                  </table>
               </div>
            </text>
            <identifier>
               <system value="http://fhir.nl/fhir/NamingSystem/ura"/>
               <value value="99001111"/>
            </identifier>
            <name value="Huisartsenpraktijk Stitswerd Oost"/>
         </Organization>
      </resource>
      <search>
         <mode value="include"/>
      </search>
   </entry>
   <entry>
      <fullUrl value="urn:uuid:dfc01564-bd37-11ea-1880-020000000000"/>
      <resource>
         <PractitionerRole>
            <meta>
               <profile value="http://fhir.nl/fhir/StructureDefinition/nl-core-practitionerrole"/>
            </meta>
            <text>
               <status value="generated"/>
               <div xmlns="http://www.w3.org/1999/xhtml">
                  <table>
                     <caption>Zorgverlenerrol</caption>
                     <tbody>
                        <tr>
                           <th>Zorgverlener</th>
                           <td>
                              <div>Bertine van Doorn</div>
                              <div>Huisartsenpraktijk Stitswerd Oost</div>
                           </td>
                        </tr>
                        <tr>
                           <th>Specialisme</th>
                           <td>
                              <span title="Huisartsen, niet nader gespecificeerd (0100 - AGB-medisch specialisme)">Huisartsen, niet nader gespecificeerd</span>
                           </td>
                        </tr>
                     </tbody>
                  </table>
               </div>
            </text>
            <practitioner>
               <reference value="urn:oid:2.16.528.1.1007.3.1.1112"/>
               <display value="Bertine van Doorn"/>
            </practitioner>
            <organization>
               <reference value="urn:oid:2.16.528.1.1007.3.3.99001111"/>
               <display value="Huisartsenpraktijk Stitswerd Oost"/>
            </organization>
            <specialty>
               <coding>
                  <system value="urn:oid:2.16.840.1.113883.2.4.6.7"/>
                  <version value="2017-12-14T00:00:00"/>
                  <code value="0100"/>
                  <display value="Huisartsen, niet nader gespecificeerd"/>
               </coding>
            </specialty>
         </PractitionerRole>
      </resource>
      <search>
         <mode value="include"/>
      </search>
   </entry>
   <entry>
      <fullUrl value="urn:oid:2.16.840.1.113883.2.4.4.1.133329"/>
      <resource>
         <Medication>
            <meta>
               <profile value="http://nictiz.nl/fhir/StructureDefinition/zib-Product"/>
            </meta>
            <text>
               <status value="generated"/>
               <div xmlns="http://www.w3.org/1999/xhtml">
                  <table>
                     <tbody>
                        <tr>
                           <th>Code</th>
                           <td>
                              <span title="Cetomacrogolcreme met vaseline (133329 - G-Standaard GPK)">Cetomacrogolcreme met vaseline</span>
                           </td>
                        </tr>
                     </tbody>
                  </table>
               </div>
            </text>
            <code>
               <coding>
                  <system value="urn:oid:2.16.840.1.113883.2.4.4.1"/>
                  <code value="133329"/>
                  <display value="Cetomacrogolcreme met vaseline"/>
                  <userSelected value="true"/>
               </coding>
               <text value="Cetomacrogolcreme met vaseline"/>
            </code>
         </Medication>
      </resource>
      <search>
         <mode value="include"/>
      </search>
   </entry>
</Bundle>
