<?xml-model href="http://hl7.org/fhir/STU3/bundle.sch" type="application/xml" schematypens="http://purl.oclc.org/dsdl/schematron"?><Bundle xmlns="http://hl7.org/fhir"
        xmlns:xsi="http://www.w3.org/2001/XMLSchema-instance"
        xsi:schemaLocation="http://hl7.org/fhir http://hl7.org/fhir/STU3/bundle.xsd">
   <type value="searchset"/>
   <total value="3"/>
   <entry>
      <fullUrl value="urn:uuid:c532c62e-f1e1-11ea-3763-020000000000"/>
      <resource>
         <MedicationDispense>
            <meta>
               <profile value="http://nictiz.nl/fhir/StructureDefinition/zib-AdministrationAgreement"/>
            </meta>
            <text>
               <status value="extensions"/>
               <div xmlns="http://www.w3.org/1999/xhtml">
                  <table>
                     <caption>Toedieningsafspraak. Subject: R. XXX_Dirksz. Id: MBH_113_1_TA_1 (urn:oid:2.16.840.1.113883.2.4.3.11.999.77.422037009.1), Categorie: <span title="Provider medication administration instructions (procedure) (422037009 - SNOMED CT)">Provider medication administration instructions (procedure)</span>
                        <span style="display: block;">Uitvoerende: Apotheek De Gulle Gaper</span>
                     </caption>
                     <tbody>
                        <tr>
                           <th>Medicamenteuze behandel-id</th>
                           <td>MBH_113_1 (urn:oid:2.16.840.1.113883.2.4.3.11.999.77.1.1)</td>
                        </tr>
                        <tr>
                           <th>Gemaakt</th>
                           <td>11:25:00, 15 juli 2018</td>
                        </tr>
                        <tr>
                           <th>Gebaseerd op</th>
                           <td>relatie naar medicatieafspraak: MBH_113_1_MA_1 || 2.16.840.1.113883.2.4.3.11.999.77.16076005.1 (Id: MBH_113_1_MA_1 (urn:oid:2.16.840.1.113883.2.4.3.11.999.77.16076005.1))</td>
                        </tr>
                        <tr>
                           <th>Medicatie</th>
                           <td>PRIMPERAN ZETPIL 20MG</td>
                        </tr>
                        <tr>
                           <th>Gebruiksduur</th>
                           <td>15 juli 2018 00:00:00 - 13 augustus 2018 23:59:59</td>
                        </tr>
                        <tr>
                           <th>Doseerinstructie</th>
                           <td>
                              <div>Volgnummer: 1</div>
                              <div>Tekst: Vanaf 15 jul 2018, gedurende 30 dagen, zo nodig 1 maal per dag 1 stuk, rectaal</div>
                              <div>Timing: <div>eenmalig per dag</div>
                              </div>
                              <div>Zo nodig: <span title="zo nodig (1137 - nhg-tabel-25-gebruiksvoorschrift#aanvullend-numeriek)">zo nodig</span>
                              </div>
                              <div>Toedieningsweg: <span title="Rectaal (12 - G-Standaard thesaurus subtabel 0007)">Rectaal</span>
                              </div>
                              <div>Dosering: 1 stuk</div>
                           </td>
                        </tr>
                     </tbody>
                  </table>
               </div>
            </text>
            <extension url="http://nictiz.nl/fhir/StructureDefinition/zib-AdministrationAgreement-AuthoredOn">
               <valueDateTime value="2018-07-15T11:25:00+02:00"/>
            </extension>
            <extension url="http://nictiz.nl/fhir/StructureDefinition/zib-Medication-PeriodOfUse">
               <valuePeriod>
                  <start value="2018-07-15T00:00:00+02:00"/>
                  <end value="2018-08-13T23:59:59+02:00"/>
               </valuePeriod>
            </extension>
            <extension url="http://nictiz.nl/fhir/StructureDefinition/zib-Medication-MedicationTreatment">
               <valueIdentifier>
                  <system value="urn:oid:2.16.840.1.113883.2.4.3.11.999.77.1.1"/>
                  <value value="MBH_113_1"/>
               </valueIdentifier>
            </extension>
            <identifier>
               <system value="urn:oid:2.16.840.1.113883.2.4.3.11.999.77.422037009.1"/>
               <value value="MBH_113_1_TA_1"/>
            </identifier>
            <category>
               <coding>
                  <system value="http://snomed.info/sct"/>
                  <code value="422037009"/>
                  <display value="Provider medication administration instructions (procedure)"/>
               </coding>
               <text value="Toedieningsafspraak"/>
            </category>
            <medicationReference>
               <reference value="urn:oid:2.16.840.1.113883.2.4.4.7.229709"/>
               <display value="PRIMPERAN ZETPIL 20MG"/>
            </medicationReference>
            <subject>
               <reference value="urn:uuid:c532b09b-f1e1-11ea-3763-020000000000"/>
               <display value="R. XXX_Dirksz"/>
            </subject>
            <performer>
               <actor>
                  <reference value="urn:oid:2.16.528.1.1007.3.3.1236578"/>
                  <display value="Apotheek De Gulle Gaper"/>
               </actor>
            </performer>
            <authorizingPrescription>
               <identifier>
                  <system value="urn:oid:2.16.840.1.113883.2.4.3.11.999.77.16076005.1"/>
                  <value value="MBH_113_1_MA_1"/>
               </identifier>
               <display value="relatie naar medicatieafspraak: MBH_113_1_MA_1 || 2.16.840.1.113883.2.4.3.11.999.77.16076005.1"/>
            </authorizingPrescription>
            <dosageInstruction>
               <sequence value="1"/>
               <text value="Vanaf 15 jul 2018, gedurende 30 dagen, zo nodig 1 maal per dag 1 stuk, rectaal"/>
               <timing>
                  <repeat>
                     <frequency value="1"/>
                     <period value="1"/>
                     <periodUnit value="d"/>
                  </repeat>
               </timing>
               <asNeededCodeableConcept>
                  <coding>
                     <system value="https://referentiemodel.nhg.org/tabellen/nhg-tabel-25-gebruiksvoorschrift#aanvullend-numeriek"/>
                     <code value="1137"/>
                     <display value="zo nodig"/>
                  </coding>
               </asNeededCodeableConcept>
               <route>
                  <coding>
                     <system value="urn:oid:2.16.840.1.113883.2.4.4.9"/>
                     <code value="12"/>
                     <display value="Rectaal"/>
                  </coding>
               </route>
               <doseQuantity>
                  <value value="1"/>
                  <unit value="stuk"/>
                  <system value="urn:oid:2.16.840.1.113883.2.4.4.1.900.2"/>
                  <code value="245"/>
               </doseQuantity>
            </dosageInstruction>
         </MedicationDispense>
      </resource>
      <search>
         <mode value="match"/>
      </search>
   </entry>
   <entry>
      <fullUrl value="urn:uuid:c532b29c-f1e1-11ea-3763-020000000000"/>
      <resource>
         <MedicationDispense>
            <meta>
               <profile value="http://nictiz.nl/fhir/StructureDefinition/zib-AdministrationAgreement"/>
            </meta>
            <text>
               <status value="extensions"/>
               <div xmlns="http://www.w3.org/1999/xhtml">
                  <table>
                     <caption>Toedieningsafspraak. Subject: R. XXX_Dirksz. Id: MBH_113_2_TA_1 (urn:oid:2.16.840.1.113883.2.4.3.11.999.77.422037009.1), Categorie: <span title="Provider medication administration instructions (procedure) (422037009 - SNOMED CT)">Provider medication administration instructions (procedure)</span>
                        <span style="display: block;">Uitvoerende: Apotheek De Gulle Gaper</span>
                     </caption>
                     <tbody>
                        <tr>
                           <th>Medicamenteuze behandel-id</th>
                           <td>MBH_113_2 (urn:oid:2.16.840.1.113883.2.4.3.11.999.77.1.1)</td>
                        </tr>
                        <tr>
                           <th>Gemaakt</th>
                           <td>14:55:00, 4 augustus 2018</td>
                        </tr>
                        <tr>
                           <th>Gebaseerd op</th>
                           <td>relatie naar medicatieafspraak: MBH_113_2_MA_1 || 2.16.840.1.113883.2.4.3.11.999.77.16076005.1 (Id: MBH_113_2_MA_1 (urn:oid:2.16.840.1.113883.2.4.3.11.999.77.16076005.1))</td>
                        </tr>
                        <tr>
                           <th>Medicatie</th>
                           <td>ZESTRIL TABLET 10MG</td>
                        </tr>
                        <tr>
                           <th>Gebruiksduur</th>
                           <td>4 augustus 2018 00:00:00 - 24 augustus 2018 23:59:59</td>
                        </tr>
                        <tr>
                           <th>Doseerinstructie</th>
                           <td>
                              <div>Volgnummer: 1</div>
                              <div>Tekst: Vanaf 4 aug 2018, gedurende 3 weken, 1 maal per dag 1 stuk, oraal</div>
                              <div>Timing: <div>eenmalig per dag</div>
                              </div>
                              <div>Toedieningsweg: <span title="Oraal (9 - G-Standaard thesaurus subtabel 0007)">Oraal</span>
                              </div>
                              <div>Dosering: 1 stuk</div>
                           </td>
                        </tr>
                     </tbody>
                  </table>
               </div>
            </text>
            <extension url="http://nictiz.nl/fhir/StructureDefinition/zib-AdministrationAgreement-AuthoredOn">
               <valueDateTime value="2018-08-04T14:55:00+02:00"/>
            </extension>
            <extension url="http://nictiz.nl/fhir/StructureDefinition/zib-Medication-PeriodOfUse">
               <valuePeriod>
                  <start value="2018-08-04T00:00:00+02:00"/>
                  <end value="2018-08-24T23:59:59+02:00"/>
               </valuePeriod>
            </extension>
            <extension url="http://nictiz.nl/fhir/StructureDefinition/zib-Medication-MedicationTreatment">
               <valueIdentifier>
                  <system value="urn:oid:2.16.840.1.113883.2.4.3.11.999.77.1.1"/>
                  <value value="MBH_113_2"/>
               </valueIdentifier>
            </extension>
            <identifier>
               <system value="urn:oid:2.16.840.1.113883.2.4.3.11.999.77.422037009.1"/>
               <value value="MBH_113_2_TA_1"/>
            </identifier>
            <category>
               <coding>
                  <system value="http://snomed.info/sct"/>
                  <code value="422037009"/>
                  <display value="Provider medication administration instructions (procedure)"/>
               </coding>
               <text value="Toedieningsafspraak"/>
            </category>
            <medicationReference>
               <reference value="urn:oid:2.16.840.1.113883.2.4.4.7.615560"/>
               <display value="ZESTRIL TABLET 10MG"/>
            </medicationReference>
            <subject>
               <reference value="urn:uuid:c532b09b-f1e1-11ea-3763-020000000000"/>
               <display value="R. XXX_Dirksz"/>
            </subject>
            <performer>
               <actor>
                  <reference value="urn:oid:2.16.528.1.1007.3.3.1236578"/>
                  <display value="Apotheek De Gulle Gaper"/>
               </actor>
            </performer>
            <authorizingPrescription>
               <identifier>
                  <system value="urn:oid:2.16.840.1.113883.2.4.3.11.999.77.16076005.1"/>
                  <value value="MBH_113_2_MA_1"/>
               </identifier>
               <display value="relatie naar medicatieafspraak: MBH_113_2_MA_1 || 2.16.840.1.113883.2.4.3.11.999.77.16076005.1"/>
            </authorizingPrescription>
            <dosageInstruction>
               <sequence value="1"/>
               <text value="Vanaf 4 aug 2018, gedurende 3 weken, 1 maal per dag 1 stuk, oraal"/>
               <timing>
                  <repeat>
                     <frequency value="1"/>
                     <period value="1"/>
                     <periodUnit value="d"/>
                  </repeat>
               </timing>
               <route>
                  <coding>
                     <system value="urn:oid:2.16.840.1.113883.2.4.4.9"/>
                     <code value="9"/>
                     <display value="Oraal"/>
                  </coding>
               </route>
               <doseQuantity>
                  <value value="1"/>
                  <unit value="stuk"/>
                  <system value="urn:oid:2.16.840.1.113883.2.4.4.1.900.2"/>
                  <code value="245"/>
               </doseQuantity>
            </dosageInstruction>
         </MedicationDispense>
      </resource>
      <search>
         <mode value="match"/>
      </search>
   </entry>
   <entry>
      <fullUrl value="urn:uuid:c532b2ec-f1e1-11ea-3763-020000000000"/>
      <resource>
         <MedicationDispense>
            <meta>
               <profile value="http://nictiz.nl/fhir/StructureDefinition/zib-AdministrationAgreement"/>
            </meta>
            <text>
               <status value="extensions"/>
               <div xmlns="http://www.w3.org/1999/xhtml">
                  <table>
                     <caption>Toedieningsafspraak. Subject: R. XXX_Dirksz. Id: MBH_113_3_TA_1 (urn:oid:2.16.840.1.113883.2.4.3.11.999.77.422037009.1), Categorie: <span title="Provider medication administration instructions (procedure) (422037009 - SNOMED CT)">Provider medication administration instructions (procedure)</span>
                        <span style="display: block;">Uitvoerende: Apotheek De Gulle Gaper</span>
                     </caption>
                     <tbody>
                        <tr>
                           <th>Medicamenteuze behandel-id</th>
                           <td>MBH_113_3 (urn:oid:2.16.840.1.113883.2.4.3.11.999.77.1.1)</td>
                        </tr>
                        <tr>
                           <th>Gemaakt</th>
                           <td>14:57:00, 4 augustus 2018</td>
                        </tr>
                        <tr>
                           <th>Gebaseerd op</th>
                           <td>relatie naar medicatieafspraak: MBH_113_3_MA_1 || 2.16.840.1.113883.2.4.3.11.999.77.16076005.1 (Id: MBH_113_3_MA_1 (urn:oid:2.16.840.1.113883.2.4.3.11.999.77.16076005.1))</td>
                        </tr>
                        <tr>
                           <th>Medicatie</th>
                           <td>ROTER APC TABLET</td>
                        </tr>
                        <tr>
                           <th>Gebruiksduur</th>
                           <td>Vanaf 00:00:00, 4 augustus 2018</td>
                        </tr>
                        <tr>
                           <th>Doseerinstructie</th>
                           <td>
                              <div>Volgnummer: 1</div>
                              <div>Tekst: Vanaf 4 aug 2018, tot nader order, 1 maal per dag 1 stuk, oraal</div>
                              <div>Timing: <div>eenmalig per dag</div>
                              </div>
                              <div>Toedieningsweg: <span title="Oraal (9 - G-Standaard thesaurus subtabel 0007)">Oraal</span>
                              </div>
                              <div>Dosering: 1 stuk</div>
                           </td>
                        </tr>
                     </tbody>
                  </table>
               </div>
            </text>
            <extension url="http://nictiz.nl/fhir/StructureDefinition/zib-AdministrationAgreement-AuthoredOn">
               <valueDateTime value="2018-08-04T14:57:00+02:00"/>
            </extension>
            <extension url="http://nictiz.nl/fhir/StructureDefinition/zib-Medication-PeriodOfUse">
               <valuePeriod>
                  <start value="2018-08-04T00:00:00+02:00"/>
               </valuePeriod>
            </extension>
            <extension url="http://nictiz.nl/fhir/StructureDefinition/zib-Medication-MedicationTreatment">
               <valueIdentifier>
                  <system value="urn:oid:2.16.840.1.113883.2.4.3.11.999.77.1.1"/>
                  <value value="MBH_113_3"/>
               </valueIdentifier>
            </extension>
            <identifier>
               <system value="urn:oid:2.16.840.1.113883.2.4.3.11.999.77.422037009.1"/>
               <value value="MBH_113_3_TA_1"/>
            </identifier>
            <category>
               <coding>
                  <system value="http://snomed.info/sct"/>
                  <code value="422037009"/>
                  <display value="Provider medication administration instructions (procedure)"/>
               </coding>
               <text value="Toedieningsafspraak"/>
            </category>
            <medicationReference>
               <reference value="urn:oid:2.16.840.1.113883.2.4.4.7.202185"/>
               <display value="ROTER APC TABLET"/>
            </medicationReference>
            <subject>
               <reference value="urn:uuid:c532b09b-f1e1-11ea-3763-020000000000"/>
               <display value="R. XXX_Dirksz"/>
            </subject>
            <performer>
               <actor>
                  <reference value="urn:oid:2.16.528.1.1007.3.3.1236578"/>
                  <display value="Apotheek De Gulle Gaper"/>
               </actor>
            </performer>
            <authorizingPrescription>
               <identifier>
                  <system value="urn:oid:2.16.840.1.113883.2.4.3.11.999.77.16076005.1"/>
                  <value value="MBH_113_3_MA_1"/>
               </identifier>
               <display value="relatie naar medicatieafspraak: MBH_113_3_MA_1 || 2.16.840.1.113883.2.4.3.11.999.77.16076005.1"/>
            </authorizingPrescription>
            <dosageInstruction>
               <sequence value="1"/>
               <text value="Vanaf 4 aug 2018, tot nader order, 1 maal per dag 1 stuk, oraal"/>
               <timing>
                  <repeat>
                     <frequency value="1"/>
                     <period value="1"/>
                     <periodUnit value="d"/>
                  </repeat>
               </timing>
               <route>
                  <coding>
                     <system value="urn:oid:2.16.840.1.113883.2.4.4.9"/>
                     <code value="9"/>
                     <display value="Oraal"/>
                  </coding>
               </route>
               <doseQuantity>
                  <value value="1"/>
                  <unit value="stuk"/>
                  <system value="urn:oid:2.16.840.1.113883.2.4.4.1.900.2"/>
                  <code value="245"/>
               </doseQuantity>
            </dosageInstruction>
         </MedicationDispense>
      </resource>
      <search>
         <mode value="match"/>
      </search>
   </entry>
   <entry>
      <fullUrl value="urn:uuid:c532b09b-f1e1-11ea-3763-020000000000"/>
      <resource>
         <Patient>
            <meta>
               <profile value="http://fhir.nl/fhir/StructureDefinition/nl-core-patient"/>
            </meta>
            <text>
               <status value="extensions"/>
               <div xmlns="http://www.w3.org/1999/xhtml">
                  <div>Id <i>afgeschermd (ontbrekend gegeven)</i> (BSN), Id 11101 (urn:oid:2.16.840.1.113883.2.4.3.11.999.77.19829.1), R. XXX_Dirksz, Man, 1 augustus 1964</div>
               </div>
            </text>
            <identifier>
               <system value="http://fhir.nl/fhir/NamingSystem/bsn"/>
               <value>
                  <extension url="http://hl7.org/fhir/StructureDefinition/data-absent-reason">
                     <valueCode value="masked"/>
                  </extension>
               </value>
            </identifier>
            <identifier>
               <system value="urn:oid:2.16.840.1.113883.2.4.3.11.999.77.19829.1"/>
               <value value="11101"/>
            </identifier>
            <name>
               <extension url="http://hl7.org/fhir/StructureDefinition/humanname-assembly-order">
                  <valueCode value="NL1"/>
               </extension>
               <family value="XXX_Dirksz">
                  <extension url="http://hl7.org/fhir/StructureDefinition/humanname-own-name">
                     <valueString value="XXX_Dirksz"/>
                  </extension>
               </family>
               <given value="R.">
                  <extension url="http://hl7.org/fhir/StructureDefinition/iso21090-EN-qualifier">
                     <valueCode value="IN"/>
                  </extension>
               </given>
            </name>
            <gender value="male"/>
            <birthDate value="1964-08-01"/>
         </Patient>
      </resource>
      <search>
         <mode value="include"/>
      </search>
   </entry>
   <entry>
      <fullUrl value="urn:oid:2.16.528.1.1007.3.3.1236578"/>
      <resource>
         <Organization>
            <meta>
               <profile value="http://fhir.nl/fhir/StructureDefinition/nl-core-organization"/>
            </meta>
            <text>
               <status value="extensions"/>
               <div xmlns="http://www.w3.org/1999/xhtml">
                  <table>
                     <caption>Organisatie. Id: 01236578 (URA)</caption>
                     <tbody>
                        <tr>
                           <th>Naam</th>
                           <td>Apotheek De Gulle Gaper</td>
                        </tr>
                     </tbody>
                  </table>
               </div>
            </text>
            <identifier>
               <system value="http://fhir.nl/fhir/NamingSystem/ura"/>
               <value value="01236578"/>
            </identifier>
            <name value="Apotheek De Gulle Gaper"/>
         </Organization>
      </resource>
      <search>
         <mode value="include"/>
      </search>
   </entry>
   <entry>
      <fullUrl value="urn:oid:2.16.840.1.113883.2.4.4.7.229709"/>
      <resource>
         <Medication>
            <meta>
               <profile value="http://nictiz.nl/fhir/StructureDefinition/zib-Product"/>
            </meta>
            <text>
               <status value="extensions"/>
               <div xmlns="http://www.w3.org/1999/xhtml">
                  <table>
                     <tbody>
                        <tr>
                           <th>Code</th>
                           <td>
                              <span title="PRIMPERAN ZETPIL 20MG (229709 - G-Standaard HPK)">PRIMPERAN ZETPIL 20MG</span>
                           </td>
                        </tr>
                     </tbody>
                  </table>
               </div>
            </text>
            <code>
               <coding>
                  <system value="urn:oid:2.16.840.1.113883.2.4.4.7"/>
                  <code value="229709"/>
                  <display value="PRIMPERAN ZETPIL 20MG"/>
                  <userSelected value="true"/>
               </coding>
               <coding>
                  <system value="urn:oid:2.16.840.1.113883.2.4.4.10"/>
                  <code value="6939"/>
                  <display value="Metoclopramide zetpil 20mg"/>
               </coding>
               <coding>
                  <system value="urn:oid:2.16.840.1.113883.2.4.4.1"/>
                  <code value="63630"/>
                  <display value="METOCLOPRAMIDE 20MG ZETPIL"/>
               </coding>
               <text value="PRIMPERAN ZETPIL 20MG"/>
            </code>
         </Medication>
      </resource>
      <search>
         <mode value="include"/>
      </search>
   </entry>
   <entry>
      <fullUrl value="urn:oid:2.16.840.1.113883.2.4.4.7.615560"/>
      <resource>
         <Medication>
            <meta>
               <profile value="http://nictiz.nl/fhir/StructureDefinition/zib-Product"/>
            </meta>
            <text>
               <status value="extensions"/>
               <div xmlns="http://www.w3.org/1999/xhtml">
                  <table>
                     <tbody>
                        <tr>
                           <th>Code</th>
                           <td>
                              <span title="ZESTRIL TABLET 10MG (615560 - G-Standaard HPK)">ZESTRIL TABLET 10MG</span>
                           </td>
                        </tr>
                     </tbody>
                  </table>
               </div>
            </text>
            <code>
               <coding>
                  <system value="urn:oid:2.16.840.1.113883.2.4.4.7"/>
                  <code value="615560"/>
                  <display value="ZESTRIL TABLET 10MG"/>
                  <userSelected value="true"/>
               </coding>
               <coding>
                  <system value="urn:oid:2.16.840.1.113883.2.4.4.10"/>
                  <code value="26638"/>
                  <display value="LISINOPRIL 10MG TABLET"/>
               </coding>
               <coding>
                  <system value="urn:oid:2.16.840.1.113883.2.4.4.1"/>
                  <code value="71587"/>
                  <display value="LISINOPRIL 10MG TABLET"/>
               </coding>
               <text value="ZESTRIL TABLET 10MG"/>
            </code>
         </Medication>
      </resource>
      <search>
         <mode value="include"/>
      </search>
   </entry>
   <entry>
      <fullUrl value="urn:oid:2.16.840.1.113883.2.4.4.7.202185"/>
      <resource>
         <Medication>
            <meta>
               <profile value="http://nictiz.nl/fhir/StructureDefinition/zib-Product"/>
            </meta>
            <text>
               <status value="extensions"/>
               <div xmlns="http://www.w3.org/1999/xhtml">
                  <table>
                     <tbody>
                        <tr>
                           <th>Code</th>
                           <td>
                              <span title="ROTER APC TABLET (202185 - G-Standaard HPK)">ROTER APC TABLET</span>
                           </td>
                        </tr>
                     </tbody>
                  </table>
               </div>
            </text>
            <code>
               <coding>
                  <system value="urn:oid:2.16.840.1.113883.2.4.4.7"/>
                  <code value="202185"/>
                  <display value="ROTER APC TABLET"/>
                  <userSelected value="true"/>
               </coding>
               <coding>
                  <system value="urn:oid:2.16.840.1.113883.2.4.4.10"/>
                  <code value="3891"/>
                  <display value="ACETYLSALICYLZUUR/PARACETAMOL/COF TAB 250/250/50MG"/>
               </coding>
               <coding>
                  <system value="urn:oid:2.16.840.1.113883.2.4.4.1"/>
                  <code value="61433"/>
                  <display value="APACOF 250/250/50MG TABLET"/>
               </coding>
               <text value="ROTER APC TABLET"/>
            </code>
         </Medication>
      </resource>
      <search>
         <mode value="include"/>
      </search>
   </entry>
</Bundle>
