<?xml-model href="http://hl7.org/fhir/STU3/bundle.sch" type="application/xml" schematypens="http://purl.oclc.org/dsdl/schematron"?><Bundle xmlns="http://hl7.org/fhir"
        xmlns:xsi="http://www.w3.org/2001/XMLSchema-instance"
        xsi:schemaLocation="http://hl7.org/fhir http://hl7.org/fhir/STU3/bundle.xsd">
   <type value="searchset"/>
   <total value="5"/>
   <entry>
      <fullUrl value="urn:uuid:c540d68c-f1e1-11ea-4633-020000000000"/>
      <resource>
         <MedicationStatement>
            <meta>
               <profile value="http://nictiz.nl/fhir/StructureDefinition/zib-MedicationUse"/>
            </meta>
            <text>
               <status value="extensions"/>
               <div xmlns="http://www.w3.org/1999/xhtml">
                  <table>
                     <caption>MedicationStatement. Subject: R. XXX_Gobee. Id: MBH_213_1_MGB_1 (urn:oid:2.16.840.1.113883.2.4.3.11.999.77.6.1), Categorie: <span title="Medicatiegebruik (6 - 2.16.840.1.113883.2.4.3.11.60.20.77.5.3)">Medicatiegebruik</span>, Status: <i>onbekend (ontbrekend gegeven)</i>
                        <span style="display: block;">Auteur: R. XXX_Gobee</span>
                     </caption>
                     <tbody>
                        <tr>
                           <th>Medicamenteuze behandel-id</th>
                           <td>MBH_213_1 (urn:oid:2.16.840.1.113883.2.4.3.11.999.77.1.1)</td>
                        </tr>
                        <tr>
                           <th>Voorschrijver</th>
                           <td>Peter van Pulver || Huisartsen, niet nader gespecificeerd || Huisartsenpraktijk Pulver &amp; Partners</td>
                        </tr>
                        <tr>
                           <th>Medicatie</th>
                           <td>MIZOLASTINE TABLET MGA  10MG</td>
                        </tr>
                        <tr>
                           <th>Datum/tijd</th>
                           <td>Vanaf 00:00:00, 15 juli 2018, 3 dag</td>
                        </tr>
                        <tr>
                           <th>Informant</th>
                           <td>11:25:00, 18 juli 2018</td>
                        </tr>
                        <tr>
                           <th>Ondersteunende informatie</th>
                           <td>relatie naar medicatieafspraak (Id: MBH_213_1_MA_1 (urn:oid:2.16.840.1.113883.2.4.3.11.999.77.16076005.1))</td>
                        </tr>
                        <tr>
                           <th>Dosering</th>
                           <td>
                              <div>Volgnummer: 1</div>
                              <div>Tekst: Vanaf 15 jul 2018, gedurende 3 dagen, 1 maal per dag 1 tablet, oraal</div>
                              <div>Timing: <div>eenmalig per dag</div>
                              </div>
                              <div>Toedieningsweg: <span title="Oraal (9 - G-Standaard thesaurus subtabel 0007)">Oraal</span>
                              </div>
                              <div>Dosering: 1 stuk</div>
                           </td>
                        </tr>
                        <tr>
                           <th>Medicatie gebruikt</th>
                           <td>ja</td>
                        </tr>
                     </tbody>
                  </table>
               </div>
            </text>
            <extension url="http://nictiz.nl/fhir/StructureDefinition/zib-MedicationUse-Prescriber">
               <valueReference>
                  <reference value="urn:uuid:c540d796-f1e1-11ea-4633-020000000000"/>
                  <display value="Peter van Pulver || Huisartsen, niet nader gespecificeerd || Huisartsenpraktijk Pulver &amp; Partners"/>
               </valueReference>
            </extension>
            <extension url="http://nictiz.nl/fhir/StructureDefinition/zib-MedicationUse-Author">
               <valueReference>
                  <reference value="urn:uuid:c540d65d-f1e1-11ea-4633-020000000000"/>
                  <display value="R. XXX_Gobee"/>
               </valueReference>
            </extension>
            <extension url="http://nictiz.nl/fhir/StructureDefinition/zib-Medication-MedicationTreatment">
               <valueIdentifier>
                  <system value="urn:oid:2.16.840.1.113883.2.4.3.11.999.77.1.1"/>
                  <value value="MBH_213_1"/>
               </valueIdentifier>
            </extension>
            <identifier>
               <system value="urn:oid:2.16.840.1.113883.2.4.3.11.999.77.6.1"/>
               <value value="MBH_213_1_MGB_1"/>
            </identifier>
            <status>
               <extension url="http://hl7.org/fhir/StructureDefinition/data-absent-reason">
                  <valueCode value="unknown"/>
               </extension>
            </status>
            <category>
               <coding>
                  <system value="urn:oid:2.16.840.1.113883.2.4.3.11.60.20.77.5.3"/>
                  <code value="6"/>
                  <display value="Medicatiegebruik"/>
               </coding>
               <text value="Medicatiegebruik"/>
            </category>
            <medicationReference>
               <reference value="urn:oid:2.16.840.1.113883.2.4.4.10.48291"/>
               <display value="MIZOLASTINE TABLET MGA  10MG"/>
            </medicationReference>
            <effectivePeriod>
               <extension url="http://nictiz.nl/fhir/StructureDefinition/zib-MedicationUse-Duration">
                  <valueDuration>
                     <value value="3"/>
                     <unit value="dag"/>
                     <system value="http://unitsofmeasure.org"/>
                     <code value="d"/>
                  </valueDuration>
               </extension>
               <start value="2018-07-15T00:00:00+02:00"/>
            </effectivePeriod>
            <dateAsserted value="2018-07-18T11:25:00+02:00"/>
            <subject>
               <reference value="urn:uuid:c540d65d-f1e1-11ea-4633-020000000000"/>
               <display value="R. XXX_Gobee"/>
            </subject>
            <derivedFrom>
               <identifier>
                  <system value="urn:oid:2.16.840.1.113883.2.4.3.11.999.77.16076005.1"/>
                  <value value="MBH_213_1_MA_1"/>
               </identifier>
               <display value="relatie naar medicatieafspraak"/>
            </derivedFrom>
            <taken value="y"/>
            <dosage>
               <sequence value="1"/>
               <text value="Vanaf 15 jul 2018, gedurende 3 dagen, 1 maal per dag 1 tablet, oraal"/>
               <timing>
                  <repeat>
                     <frequency value="1"/>
                     <period value="1"/>
                     <periodUnit value="d"/>
                  </repeat>
               </timing>
               <route>
                  <coding>
                     <system value="urn:oid:2.16.840.1.113883.2.4.4.9"/>
                     <code value="9"/>
                     <display value="Oraal"/>
                  </coding>
               </route>
               <doseQuantity>
                  <value value="1"/>
                  <unit value="stuk"/>
                  <system value="urn:oid:2.16.840.1.113883.2.4.4.1.900.2"/>
                  <code value="245"/>
               </doseQuantity>
            </dosage>
         </MedicationStatement>
      </resource>
      <search>
         <mode value="match"/>
      </search>
   </entry>
   <entry>
      <fullUrl value="urn:uuid:c540d7bc-f1e1-11ea-4633-020000000000"/>
      <resource>
         <MedicationStatement>
            <meta>
               <profile value="http://nictiz.nl/fhir/StructureDefinition/zib-MedicationUse"/>
            </meta>
            <text>
               <status value="extensions"/>
               <div xmlns="http://www.w3.org/1999/xhtml">
                  <table>
                     <caption>MedicationStatement. Subject: R. XXX_Gobee. Id: MBH_213_1_MGB_2 (urn:oid:2.16.840.1.113883.2.4.3.11.999.77.6.1), Categorie: <span title="Medicatiegebruik (6 - 2.16.840.1.113883.2.4.3.11.60.20.77.5.3)">Medicatiegebruik</span>, Status: <i>onbekend (ontbrekend gegeven)</i>
                        <span style="display: block;">Auteur: R. XXX_Gobee</span>
                     </caption>
                     <tbody>
                        <tr>
                           <th>Medicamenteuze behandel-id</th>
                           <td>MBH_213_1 (urn:oid:2.16.840.1.113883.2.4.3.11.999.77.1.1)</td>
                        </tr>
                        <tr>
                           <th>Voorschrijver</th>
                           <td>Peter van Pulver || Huisartsen, niet nader gespecificeerd || Huisartsenpraktijk Pulver &amp; Partners</td>
                        </tr>
                        <tr>
                           <th>Medicatie</th>
                           <td>MIZOLASTINE TABLET MGA  10MG</td>
                        </tr>
                        <tr>
                           <th>Datum/tijd</th>
                           <td>Vanaf 00:00:00, 19 juli 2018, 6 dag</td>
                        </tr>
                        <tr>
                           <th>Informant</th>
                           <td>11:25:00, 24 juli 2018</td>
                        </tr>
                        <tr>
                           <th>Ondersteunende informatie</th>
                           <td>relatie naar medicatieafspraak (Id: MBH_213_1_MA_1 (urn:oid:2.16.840.1.113883.2.4.3.11.999.77.16076005.1))</td>
                        </tr>
                        <tr>
                           <th>Dosering</th>
                           <td>
                              <div>Volgnummer: 1</div>
                              <div>Tekst: Vanaf 19 jul 2018, gedurende 6 dagen, 2 maal per dag 1 tablet, oraal</div>
                              <div>Timing: <div>2 maal per dag</div>
                              </div>
                              <div>Toedieningsweg: <span title="Oraal (9 - G-Standaard thesaurus subtabel 0007)">Oraal</span>
                              </div>
                              <div>Dosering: 1 stuk</div>
                           </td>
                        </tr>
                        <tr>
                           <th>Medicatie gebruikt</th>
                           <td>ja</td>
                        </tr>
                     </tbody>
                  </table>
               </div>
            </text>
            <extension url="http://nictiz.nl/fhir/StructureDefinition/zib-MedicationUse-Prescriber">
               <valueReference>
                  <reference value="urn:uuid:c540d796-f1e1-11ea-4633-020000000000"/>
                  <display value="Peter van Pulver || Huisartsen, niet nader gespecificeerd || Huisartsenpraktijk Pulver &amp; Partners"/>
               </valueReference>
            </extension>
            <extension url="http://nictiz.nl/fhir/StructureDefinition/zib-MedicationUse-Author">
               <valueReference>
                  <reference value="urn:uuid:c540d65d-f1e1-11ea-4633-020000000000"/>
                  <display value="R. XXX_Gobee"/>
               </valueReference>
            </extension>
            <extension url="http://nictiz.nl/fhir/StructureDefinition/zib-Medication-MedicationTreatment">
               <valueIdentifier>
                  <system value="urn:oid:2.16.840.1.113883.2.4.3.11.999.77.1.1"/>
                  <value value="MBH_213_1"/>
               </valueIdentifier>
            </extension>
            <identifier>
               <system value="urn:oid:2.16.840.1.113883.2.4.3.11.999.77.6.1"/>
               <value value="MBH_213_1_MGB_2"/>
            </identifier>
            <status>
               <extension url="http://hl7.org/fhir/StructureDefinition/data-absent-reason">
                  <valueCode value="unknown"/>
               </extension>
            </status>
            <category>
               <coding>
                  <system value="urn:oid:2.16.840.1.113883.2.4.3.11.60.20.77.5.3"/>
                  <code value="6"/>
                  <display value="Medicatiegebruik"/>
               </coding>
               <text value="Medicatiegebruik"/>
            </category>
            <medicationReference>
               <reference value="urn:oid:2.16.840.1.113883.2.4.4.10.48291"/>
               <display value="MIZOLASTINE TABLET MGA  10MG"/>
            </medicationReference>
            <effectivePeriod>
               <extension url="http://nictiz.nl/fhir/StructureDefinition/zib-MedicationUse-Duration">
                  <valueDuration>
                     <value value="6"/>
                     <unit value="dag"/>
                     <system value="http://unitsofmeasure.org"/>
                     <code value="d"/>
                  </valueDuration>
               </extension>
               <start value="2018-07-19T00:00:00+02:00"/>
            </effectivePeriod>
            <dateAsserted value="2018-07-24T11:25:00+02:00"/>
            <subject>
               <reference value="urn:uuid:c540d65d-f1e1-11ea-4633-020000000000"/>
               <display value="R. XXX_Gobee"/>
            </subject>
            <derivedFrom>
               <identifier>
                  <system value="urn:oid:2.16.840.1.113883.2.4.3.11.999.77.16076005.1"/>
                  <value value="MBH_213_1_MA_1"/>
               </identifier>
               <display value="relatie naar medicatieafspraak"/>
            </derivedFrom>
            <taken value="y"/>
            <dosage>
               <sequence value="1"/>
               <text value="Vanaf 19 jul 2018, gedurende 6 dagen, 2 maal per dag 1 tablet, oraal"/>
               <timing>
                  <repeat>
                     <frequency value="2"/>
                     <period value="1"/>
                     <periodUnit value="d"/>
                  </repeat>
               </timing>
               <route>
                  <coding>
                     <system value="urn:oid:2.16.840.1.113883.2.4.4.9"/>
                     <code value="9"/>
                     <display value="Oraal"/>
                  </coding>
               </route>
               <doseQuantity>
                  <value value="1"/>
                  <unit value="stuk"/>
                  <system value="urn:oid:2.16.840.1.113883.2.4.4.1.900.2"/>
                  <code value="245"/>
               </doseQuantity>
            </dosage>
         </MedicationStatement>
      </resource>
      <search>
         <mode value="match"/>
      </search>
   </entry>
   <entry>
      <fullUrl value="urn:uuid:c540d824-f1e1-11ea-4633-020000000000"/>
      <resource>
         <MedicationStatement>
            <meta>
               <profile value="http://nictiz.nl/fhir/StructureDefinition/zib-MedicationUse"/>
            </meta>
            <text>
               <status value="extensions"/>
               <div xmlns="http://www.w3.org/1999/xhtml">
                  <table>
                     <caption>MedicationStatement. Subject: R. XXX_Gobee. Id: MBH_213_1_MGB_3 (urn:oid:2.16.840.1.113883.2.4.3.11.999.77.6.1), Categorie: <span title="Medicatiegebruik (6 - 2.16.840.1.113883.2.4.3.11.60.20.77.5.3)">Medicatiegebruik</span>, Status: <i>onbekend (ontbrekend gegeven)</i>
                        <span style="display: block;">Auteur: R. XXX_Gobee</span>
                     </caption>
                     <tbody>
                        <tr>
                           <th>Medicamenteuze behandel-id</th>
                           <td>MBH_213_1 (urn:oid:2.16.840.1.113883.2.4.3.11.999.77.1.1)</td>
                        </tr>
                        <tr>
                           <th>Medicatie</th>
                           <td>MIZOLLEN TABLET MGA 10MG</td>
                        </tr>
                        <tr>
                           <th>Datum/tijd</th>
                           <td>Vanaf 00:00:00, 25 juli 2018, 6 dag</td>
                        </tr>
                        <tr>
                           <th>Informant</th>
                           <td>19:25:00, 30 juli 2018</td>
                        </tr>
                        <tr>
                           <th>Ondersteunende informatie</th>
                           <td>relatie naar toedieningsafspraak (Id: MBH_213_1_TA_3 (urn:oid:2.16.840.1.113883.2.4.3.11.999.77.422037009.1))</td>
                        </tr>
                        <tr>
                           <th>Dosering</th>
                           <td>
                              <div>Volgnummer: 1</div>
                              <div>Tekst: Vanaf 25 jul 2018, gedurende 6 dagen, 2 maal per dag 1 tablet, oraal</div>
                              <div>Timing: <div>2 maal per dag</div>
                              </div>
                              <div>Toedieningsweg: <span title="Oraal (9 - G-Standaard thesaurus subtabel 0007)">Oraal</span>
                              </div>
                              <div>Dosering: 1 stuk</div>
                           </td>
                        </tr>
                        <tr>
                           <th>Medicatie gebruikt</th>
                           <td>ja</td>
                        </tr>
                     </tbody>
                  </table>
               </div>
            </text>
            <extension url="http://nictiz.nl/fhir/StructureDefinition/zib-MedicationUse-Author">
               <valueReference>
                  <reference value="urn:uuid:c540d65d-f1e1-11ea-4633-020000000000"/>
                  <display value="R. XXX_Gobee"/>
               </valueReference>
            </extension>
            <extension url="http://nictiz.nl/fhir/StructureDefinition/zib-Medication-MedicationTreatment">
               <valueIdentifier>
                  <system value="urn:oid:2.16.840.1.113883.2.4.3.11.999.77.1.1"/>
                  <value value="MBH_213_1"/>
               </valueIdentifier>
            </extension>
            <identifier>
               <system value="urn:oid:2.16.840.1.113883.2.4.3.11.999.77.6.1"/>
               <value value="MBH_213_1_MGB_3"/>
            </identifier>
            <status>
               <extension url="http://hl7.org/fhir/StructureDefinition/data-absent-reason">
                  <valueCode value="unknown"/>
               </extension>
            </status>
            <category>
               <coding>
                  <system value="urn:oid:2.16.840.1.113883.2.4.3.11.60.20.77.5.3"/>
                  <code value="6"/>
                  <display value="Medicatiegebruik"/>
               </coding>
               <text value="Medicatiegebruik"/>
            </category>
            <medicationReference>
               <reference value="urn:oid:2.16.840.1.113883.2.4.4.7.1101099"/>
               <display value="MIZOLLEN TABLET MGA 10MG"/>
            </medicationReference>
            <effectivePeriod>
               <extension url="http://nictiz.nl/fhir/StructureDefinition/zib-MedicationUse-Duration">
                  <valueDuration>
                     <value value="6"/>
                     <unit value="dag"/>
                     <system value="http://unitsofmeasure.org"/>
                     <code value="d"/>
                  </valueDuration>
               </extension>
               <start value="2018-07-25T00:00:00+02:00"/>
            </effectivePeriod>
            <dateAsserted value="2018-07-30T19:25:00+02:00"/>
            <subject>
               <reference value="urn:uuid:c540d65d-f1e1-11ea-4633-020000000000"/>
               <display value="R. XXX_Gobee"/>
            </subject>
            <derivedFrom>
               <identifier>
                  <system value="urn:oid:2.16.840.1.113883.2.4.3.11.999.77.422037009.1"/>
                  <value value="MBH_213_1_TA_3"/>
               </identifier>
               <display value="relatie naar toedieningsafspraak"/>
            </derivedFrom>
            <taken value="y"/>
            <dosage>
               <sequence value="1"/>
               <text value="Vanaf 25 jul 2018, gedurende 6 dagen, 2 maal per dag 1 tablet, oraal"/>
               <timing>
                  <repeat>
                     <frequency value="2"/>
                     <period value="1"/>
                     <periodUnit value="d"/>
                  </repeat>
               </timing>
               <route>
                  <coding>
                     <system value="urn:oid:2.16.840.1.113883.2.4.4.9"/>
                     <code value="9"/>
                     <display value="Oraal"/>
                  </coding>
               </route>
               <doseQuantity>
                  <value value="1"/>
                  <unit value="stuk"/>
                  <system value="urn:oid:2.16.840.1.113883.2.4.4.1.900.2"/>
                  <code value="245"/>
               </doseQuantity>
            </dosage>
         </MedicationStatement>
      </resource>
      <search>
         <mode value="match"/>
      </search>
   </entry>
   <entry>
      <fullUrl value="urn:uuid:c540d86e-f1e1-11ea-4633-020000000000"/>
      <resource>
         <MedicationStatement>
            <meta>
               <profile value="http://nictiz.nl/fhir/StructureDefinition/zib-MedicationUse"/>
            </meta>
            <text>
               <status value="extensions"/>
               <div xmlns="http://www.w3.org/1999/xhtml">
                  <table>
                     <caption>MedicationStatement. Subject: R. XXX_Gobee. Id: MBH_213_1_MGB_4 (urn:oid:2.16.840.1.113883.2.4.3.11.999.77.6.1), Categorie: <span title="Medicatiegebruik (6 - 2.16.840.1.113883.2.4.3.11.60.20.77.5.3)">Medicatiegebruik</span>, Status: <i>onbekend (ontbrekend gegeven)</i>
                        <span style="display: block;">Auteur: R. XXX_Gobee</span>
                     </caption>
                     <tbody>
                        <tr>
                           <th>Medicamenteuze behandel-id</th>
                           <td>MBH_213_1 (urn:oid:2.16.840.1.113883.2.4.3.11.999.77.1.1)</td>
                        </tr>
                        <tr>
                           <th>Voorschrijver</th>
                           <td>Peter van Pulver || Huisartsen, niet nader gespecificeerd || Huisartsenpraktijk Pulver &amp; Partners</td>
                        </tr>
                        <tr>
                           <th>Medicatie</th>
                           <td>MIZOLASTINE TABLET MGA  10MG</td>
                        </tr>
                        <tr>
                           <th>Datum/tijd</th>
                           <td>Vanaf 00:00:00, 31 juli 2018, 19 dag</td>
                        </tr>
                        <tr>
                           <th>Informant</th>
                           <td>11:25:00, 18 augustus 2018</td>
                        </tr>
                        <tr>
                           <th>Ondersteunende informatie</th>
                           <td>relatie naar medicatieafspraak (Id: MBH_213_1_MA_3 (urn:oid:2.16.840.1.113883.2.4.3.11.999.77.16076005.1))</td>
                        </tr>
                        <tr>
                           <th>Dosering</th>
                           <td>
                              <div>Volgnummer: 1</div>
                              <div>Tekst: Vanaf 31 jul 2018, gedurende 19 dagen, 2 maal per dag 1 tablet, oraal</div>
                              <div>Timing: <div>2 maal per dag</div>
                              </div>
                              <div>Toedieningsweg: <span title="Oraal (9 - G-Standaard thesaurus subtabel 0007)">Oraal</span>
                              </div>
                              <div>Dosering: 1 stuk</div>
                           </td>
                        </tr>
                        <tr>
                           <th>Medicatie gebruikt</th>
                           <td>ja</td>
                        </tr>
                     </tbody>
                  </table>
               </div>
            </text>
            <extension url="http://nictiz.nl/fhir/StructureDefinition/zib-MedicationUse-Prescriber">
               <valueReference>
                  <reference value="urn:uuid:c540d796-f1e1-11ea-4633-020000000000"/>
                  <display value="Peter van Pulver || Huisartsen, niet nader gespecificeerd || Huisartsenpraktijk Pulver &amp; Partners"/>
               </valueReference>
            </extension>
            <extension url="http://nictiz.nl/fhir/StructureDefinition/zib-MedicationUse-Author">
               <valueReference>
                  <reference value="urn:uuid:c540d65d-f1e1-11ea-4633-020000000000"/>
                  <display value="R. XXX_Gobee"/>
               </valueReference>
            </extension>
            <extension url="http://nictiz.nl/fhir/StructureDefinition/zib-Medication-MedicationTreatment">
               <valueIdentifier>
                  <system value="urn:oid:2.16.840.1.113883.2.4.3.11.999.77.1.1"/>
                  <value value="MBH_213_1"/>
               </valueIdentifier>
            </extension>
            <identifier>
               <system value="urn:oid:2.16.840.1.113883.2.4.3.11.999.77.6.1"/>
               <value value="MBH_213_1_MGB_4"/>
            </identifier>
            <status>
               <extension url="http://hl7.org/fhir/StructureDefinition/data-absent-reason">
                  <valueCode value="unknown"/>
               </extension>
            </status>
            <category>
               <coding>
                  <system value="urn:oid:2.16.840.1.113883.2.4.3.11.60.20.77.5.3"/>
                  <code value="6"/>
                  <display value="Medicatiegebruik"/>
               </coding>
               <text value="Medicatiegebruik"/>
            </category>
            <medicationReference>
               <reference value="urn:oid:2.16.840.1.113883.2.4.4.10.48291"/>
               <display value="MIZOLASTINE TABLET MGA  10MG"/>
            </medicationReference>
            <effectivePeriod>
               <extension url="http://nictiz.nl/fhir/StructureDefinition/zib-MedicationUse-Duration">
                  <valueDuration>
                     <value value="19"/>
                     <unit value="dag"/>
                     <system value="http://unitsofmeasure.org"/>
                     <code value="d"/>
                  </valueDuration>
               </extension>
               <start value="2018-07-31T00:00:00+02:00"/>
            </effectivePeriod>
            <dateAsserted value="2018-08-18T11:25:00+02:00"/>
            <subject>
               <reference value="urn:uuid:c540d65d-f1e1-11ea-4633-020000000000"/>
               <display value="R. XXX_Gobee"/>
            </subject>
            <derivedFrom>
               <identifier>
                  <system value="urn:oid:2.16.840.1.113883.2.4.3.11.999.77.16076005.1"/>
                  <value value="MBH_213_1_MA_3"/>
               </identifier>
               <display value="relatie naar medicatieafspraak"/>
            </derivedFrom>
            <taken value="y"/>
            <dosage>
               <sequence value="1"/>
               <text value="Vanaf 31 jul 2018, gedurende 19 dagen, 2 maal per dag 1 tablet, oraal"/>
               <timing>
                  <repeat>
                     <frequency value="2"/>
                     <period value="1"/>
                     <periodUnit value="d"/>
                  </repeat>
               </timing>
               <route>
                  <coding>
                     <system value="urn:oid:2.16.840.1.113883.2.4.4.9"/>
                     <code value="9"/>
                     <display value="Oraal"/>
                  </coding>
               </route>
               <doseQuantity>
                  <value value="1"/>
                  <unit value="stuk"/>
                  <system value="urn:oid:2.16.840.1.113883.2.4.4.1.900.2"/>
                  <code value="245"/>
               </doseQuantity>
            </dosage>
         </MedicationStatement>
      </resource>
      <search>
         <mode value="match"/>
      </search>
   </entry>
   <entry>
      <fullUrl value="urn:uuid:c540d8d7-f1e1-11ea-4633-020000000000"/>
      <resource>
         <MedicationStatement>
            <meta>
               <profile value="http://nictiz.nl/fhir/StructureDefinition/zib-MedicationUse"/>
            </meta>
            <text>
               <status value="extensions"/>
               <div xmlns="http://www.w3.org/1999/xhtml">
                  <table>
                     <caption>MedicationStatement. Subject: R. XXX_Gobee. Id: MBH_213_1_MGB_5 (urn:oid:2.16.840.1.113883.2.4.3.11.999.77.6.1), Categorie: <span title="Medicatiegebruik (6 - 2.16.840.1.113883.2.4.3.11.60.20.77.5.3)">Medicatiegebruik</span>, Status: <i>onbekend (ontbrekend gegeven)</i>
                        <span style="display: block;">Auteur: R. XXX_Gobee</span>
                     </caption>
                     <tbody>
                        <tr>
                           <th>Medicamenteuze behandel-id</th>
                           <td>MBH_213_1 (urn:oid:2.16.840.1.113883.2.4.3.11.999.77.1.1)</td>
                        </tr>
                        <tr>
                           <th>Voorschrijver</th>
                           <td>Peter van Pulver || Huisartsen, niet nader gespecificeerd || Huisartsenpraktijk Pulver &amp; Partners</td>
                        </tr>
                        <tr>
                           <th>Medicatie</th>
                           <td>MIZOLASTINE TABLET MGA  10MG</td>
                        </tr>
                        <tr>
                           <th>Datum/tijd</th>
                           <td>Vanaf 00:00:00, 20 augustus 2018, 5 dag</td>
                        </tr>
                        <tr>
                           <th>Informant</th>
                           <td>11:25:00, 24 augustus 2018</td>
                        </tr>
                        <tr>
                           <th>Ondersteunende informatie</th>
                           <td>relatie naar medicatieafspraak (Id: MBH_213_1_MA_5 (urn:oid:2.16.840.1.113883.2.4.3.11.999.77.16076005.1))</td>
                        </tr>
                        <tr>
                           <th>Dosering</th>
                           <td>
                              <div>Volgnummer: 1</div>
                              <div>Tekst: Vanaf 20 aug 2018, gedurende 5 dagen, 1 maal per dag 1 tablet, oraal</div>
                              <div>Timing: <div>eenmalig per dag</div>
                              </div>
                              <div>Toedieningsweg: <span title="Oraal (9 - G-Standaard thesaurus subtabel 0007)">Oraal</span>
                              </div>
                              <div>Dosering: 1 stuk</div>
                           </td>
                        </tr>
                        <tr>
                           <th>Medicatie gebruikt</th>
                           <td>ja</td>
                        </tr>
                     </tbody>
                  </table>
               </div>
            </text>
            <extension url="http://nictiz.nl/fhir/StructureDefinition/zib-MedicationUse-Prescriber">
               <valueReference>
                  <reference value="urn:uuid:c540d796-f1e1-11ea-4633-020000000000"/>
                  <display value="Peter van Pulver || Huisartsen, niet nader gespecificeerd || Huisartsenpraktijk Pulver &amp; Partners"/>
               </valueReference>
            </extension>
            <extension url="http://nictiz.nl/fhir/StructureDefinition/zib-MedicationUse-Author">
               <valueReference>
                  <reference value="urn:uuid:c540d65d-f1e1-11ea-4633-020000000000"/>
                  <display value="R. XXX_Gobee"/>
               </valueReference>
            </extension>
            <extension url="http://nictiz.nl/fhir/StructureDefinition/zib-Medication-MedicationTreatment">
               <valueIdentifier>
                  <system value="urn:oid:2.16.840.1.113883.2.4.3.11.999.77.1.1"/>
                  <value value="MBH_213_1"/>
               </valueIdentifier>
            </extension>
            <identifier>
               <system value="urn:oid:2.16.840.1.113883.2.4.3.11.999.77.6.1"/>
               <value value="MBH_213_1_MGB_5"/>
            </identifier>
            <status>
               <extension url="http://hl7.org/fhir/StructureDefinition/data-absent-reason">
                  <valueCode value="unknown"/>
               </extension>
            </status>
            <category>
               <coding>
                  <system value="urn:oid:2.16.840.1.113883.2.4.3.11.60.20.77.5.3"/>
                  <code value="6"/>
                  <display value="Medicatiegebruik"/>
               </coding>
               <text value="Medicatiegebruik"/>
            </category>
            <medicationReference>
               <reference value="urn:oid:2.16.840.1.113883.2.4.4.10.48291"/>
               <display value="MIZOLASTINE TABLET MGA  10MG"/>
            </medicationReference>
            <effectivePeriod>
               <extension url="http://nictiz.nl/fhir/StructureDefinition/zib-MedicationUse-Duration">
                  <valueDuration>
                     <value value="5"/>
                     <unit value="dag"/>
                     <system value="http://unitsofmeasure.org"/>
                     <code value="d"/>
                  </valueDuration>
               </extension>
               <start value="2018-08-20T00:00:00+02:00"/>
            </effectivePeriod>
            <dateAsserted value="2018-08-24T11:25:00+02:00"/>
            <subject>
               <reference value="urn:uuid:c540d65d-f1e1-11ea-4633-020000000000"/>
               <display value="R. XXX_Gobee"/>
            </subject>
            <derivedFrom>
               <identifier>
                  <system value="urn:oid:2.16.840.1.113883.2.4.3.11.999.77.16076005.1"/>
                  <value value="MBH_213_1_MA_5"/>
               </identifier>
               <display value="relatie naar medicatieafspraak"/>
            </derivedFrom>
            <taken value="y"/>
            <dosage>
               <sequence value="1"/>
               <text value="Vanaf 20 aug 2018, gedurende 5 dagen, 1 maal per dag 1 tablet, oraal"/>
               <timing>
                  <repeat>
                     <frequency value="1"/>
                     <period value="1"/>
                     <periodUnit value="d"/>
                  </repeat>
               </timing>
               <route>
                  <coding>
                     <system value="urn:oid:2.16.840.1.113883.2.4.4.9"/>
                     <code value="9"/>
                     <display value="Oraal"/>
                  </coding>
               </route>
               <doseQuantity>
                  <value value="1"/>
                  <unit value="stuk"/>
                  <system value="urn:oid:2.16.840.1.113883.2.4.4.1.900.2"/>
                  <code value="245"/>
               </doseQuantity>
            </dosage>
         </MedicationStatement>
      </resource>
      <search>
         <mode value="match"/>
      </search>
   </entry>
   <entry>
      <fullUrl value="urn:uuid:c540d65d-f1e1-11ea-4633-020000000000"/>
      <resource>
         <Patient>
            <meta>
               <profile value="http://fhir.nl/fhir/StructureDefinition/nl-core-patient"/>
            </meta>
            <text>
               <status value="extensions"/>
               <div xmlns="http://www.w3.org/1999/xhtml">
                  <div>Id <i>afgeschermd (ontbrekend gegeven)</i> (BSN), Id 21104 (urn:oid:2.16.840.1.113883.2.4.3.11.999.77.19829.1), R. XXX_Gobee, Vrouw, 1 augustus 1964</div>
               </div>
            </text>
            <identifier>
               <system value="http://fhir.nl/fhir/NamingSystem/bsn"/>
               <value>
                  <extension url="http://hl7.org/fhir/StructureDefinition/data-absent-reason">
                     <valueCode value="masked"/>
                  </extension>
               </value>
            </identifier>
            <identifier>
               <system value="urn:oid:2.16.840.1.113883.2.4.3.11.999.77.19829.1"/>
               <value value="21104"/>
            </identifier>
            <name>
               <extension url="http://hl7.org/fhir/StructureDefinition/humanname-assembly-order">
                  <valueCode value="NL1"/>
               </extension>
               <family value="XXX_Gobee">
                  <extension url="http://hl7.org/fhir/StructureDefinition/humanname-own-name">
                     <valueString value="XXX_Gobee"/>
                  </extension>
               </family>
               <given value="R.">
                  <extension url="http://hl7.org/fhir/StructureDefinition/iso21090-EN-qualifier">
                     <valueCode value="IN"/>
                  </extension>
               </given>
            </name>
            <gender value="female"/>
            <birthDate value="1964-08-01"/>
         </Patient>
      </resource>
      <search>
         <mode value="include"/>
      </search>
   </entry>
   <entry>
      <fullUrl value="urn:oid:2.16.528.1.1007.3.1.1111"/>
      <resource>
         <Practitioner>
            <meta>
               <profile value="http://fhir.nl/fhir/StructureDefinition/nl-core-practitioner"/>
            </meta>
            <text>
               <status value="extensions"/>
               <div xmlns="http://www.w3.org/1999/xhtml">
                  <div>Id 000001111 (UZI-NR-PERS), Peter van Pulver</div>
               </div>
            </text>
            <identifier>
               <system value="http://fhir.nl/fhir/NamingSystem/uzi-nr-pers"/>
               <value value="000001111"/>
            </identifier>
            <name>
               <family value="van Pulver">
                  <extension url="http://hl7.org/fhir/StructureDefinition/humanname-own-prefix">
                     <valueString value="van"/>
                  </extension>
                  <extension url="http://hl7.org/fhir/StructureDefinition/humanname-own-name">
                     <valueString value="Pulver"/>
                  </extension>
               </family>
               <given value="Peter">
                  <extension url="http://hl7.org/fhir/StructureDefinition/iso21090-EN-qualifier">
                     <valueCode value="BR"/>
                  </extension>
               </given>
            </name>
         </Practitioner>
      </resource>
      <search>
         <mode value="include"/>
      </search>
   </entry>
   <entry>
      <fullUrl value="urn:oid:2.16.528.1.1007.3.3.1111"/>
      <resource>
         <Organization>
            <meta>
               <profile value="http://fhir.nl/fhir/StructureDefinition/nl-core-organization"/>
            </meta>
            <text>
               <status value="extensions"/>
               <div xmlns="http://www.w3.org/1999/xhtml">
                  <table>
                     <caption>Organisatie. Id: 00001111 (URA)</caption>
                     <tbody>
                        <tr>
                           <th>Naam</th>
                           <td>Huisartsenpraktijk Pulver &amp; Partners</td>
                        </tr>
                     </tbody>
                  </table>
               </div>
            </text>
            <identifier>
               <system value="http://fhir.nl/fhir/NamingSystem/ura"/>
               <value value="00001111"/>
            </identifier>
            <name value="Huisartsenpraktijk Pulver &amp; Partners"/>
         </Organization>
      </resource>
      <search>
         <mode value="include"/>
      </search>
   </entry>
   <entry>
      <fullUrl value="urn:uuid:c540d796-f1e1-11ea-4633-020000000000"/>
      <resource>
         <PractitionerRole>
            <meta>
               <profile value="http://fhir.nl/fhir/StructureDefinition/nl-core-practitionerrole"/>
            </meta>
            <text>
               <status value="extensions"/>
               <div xmlns="http://www.w3.org/1999/xhtml">
                  <table>
                     <caption>Zorgverlenerrol. </caption>
                     <tbody>
                        <tr>
                           <th>Zorgverlener</th>
                           <td>
                              <div>Peter van Pulver</div>
                              <div>Huisartsenpraktijk Pulver &amp; Partners</div>
                           </td>
                        </tr>
                        <tr>
                           <th>Specialisme</th>
                           <td>
                              <span title="Huisartsen, niet nader gespecificeerd (0100 - AGB-medisch specialisme)">Huisartsen, niet nader gespecificeerd</span>
                           </td>
                        </tr>
                     </tbody>
                  </table>
               </div>
            </text>
            <practitioner>
               <reference value="urn:oid:2.16.528.1.1007.3.1.1111"/>
               <display value="Peter van Pulver"/>
            </practitioner>
            <organization>
               <reference value="urn:oid:2.16.528.1.1007.3.3.1111"/>
               <display value="Huisartsenpraktijk Pulver &amp; Partners"/>
            </organization>
            <specialty>
               <coding>
                  <system value="urn:oid:2.16.840.1.113883.2.4.6.7"/>
                  <version value="2017-12-14T00:00:00"/>
                  <code value="0100"/>
                  <display value="Huisartsen, niet nader gespecificeerd"/>
               </coding>
            </specialty>
         </PractitionerRole>
      </resource>
      <search>
         <mode value="include"/>
      </search>
   </entry>
   <entry>
      <fullUrl value="urn:oid:2.16.840.1.113883.2.4.4.10.48291"/>
      <resource>
         <Medication>
            <meta>
               <profile value="http://nictiz.nl/fhir/StructureDefinition/zib-Product"/>
            </meta>
            <text>
               <status value="extensions"/>
               <div xmlns="http://www.w3.org/1999/xhtml">
                  <table>
                     <tbody>
                        <tr>
                           <th>Code</th>
                           <td>
                              <span title="MIZOLASTINE TABLET MGA  10MG (48291 - G-Standaard PRK)">MIZOLASTINE TABLET MGA  10MG</span>
                           </td>
                        </tr>
                     </tbody>
                  </table>
               </div>
            </text>
            <code>
               <coding>
                  <system value="urn:oid:2.16.840.1.113883.2.4.4.10"/>
                  <code value="48291"/>
                  <display value="MIZOLASTINE TABLET MGA  10MG"/>
                  <userSelected value="true"/>
               </coding>
               <coding>
                  <system value="urn:oid:2.16.840.1.113883.2.4.4.1"/>
                  <code value="102164"/>
                  <display value="MIZOLASTINE TABLET MGA  10MG"/>
               </coding>
               <text value="MIZOLASTINE TABLET MGA  10MG"/>
            </code>
         </Medication>
      </resource>
      <search>
         <mode value="include"/>
      </search>
   </entry>
   <entry>
      <fullUrl value="urn:oid:2.16.840.1.113883.2.4.4.7.1101099"/>
      <resource>
         <Medication>
            <meta>
               <profile value="http://nictiz.nl/fhir/StructureDefinition/zib-Product"/>
            </meta>
            <text>
               <status value="extensions"/>
               <div xmlns="http://www.w3.org/1999/xhtml">
                  <table>
                     <tbody>
                        <tr>
                           <th>Code</th>
                           <td>
                              <span title="MIZOLLEN TABLET MGA 10MG (1101099 - G-Standaard HPK)">MIZOLLEN TABLET MGA 10MG</span>
                           </td>
                        </tr>
                     </tbody>
                  </table>
               </div>
            </text>
            <code>
               <coding>
                  <system value="urn:oid:2.16.840.1.113883.2.4.4.7"/>
                  <code value="1101099"/>
                  <display value="MIZOLLEN TABLET MGA 10MG"/>
                  <userSelected value="true"/>
               </coding>
               <coding>
                  <system value="urn:oid:2.16.840.1.113883.2.4.4.10"/>
                  <code value="48291"/>
                  <display value="MIZOLASTINE TABLET MGA  10MG"/>
               </coding>
               <coding>
                  <system value="urn:oid:2.16.840.1.113883.2.4.4.1"/>
                  <code value="102164"/>
                  <display value="MIZOLASTINE TABLET MGA  10MG"/>
               </coding>
               <text value="MIZOLLEN TABLET MGA 10MG"/>
            </code>
         </Medication>
      </resource>
      <search>
         <mode value="include"/>
      </search>
   </entry>
</Bundle>
