<?xml-model href="http://hl7.org/fhir/STU3/bundle.sch" type="application/xml" schematypens="http://purl.oclc.org/dsdl/schematron"?><Bundle xmlns="http://hl7.org/fhir"
        xmlns:xsi="http://www.w3.org/2001/XMLSchema-instance"
        xsi:schemaLocation="http://hl7.org/fhir http://hl7.org/fhir/STU3/bundle.xsd">
   <type value="searchset"/>
   <total value="3"/>
   <entry>
      <fullUrl value="urn:uuid:bba74177-bd3e-11ea-8729-020000000000"/>
      <resource>
         <MedicationDispense>
            <meta>
               <profile value="http://nictiz.nl/fhir/StructureDefinition/zib-AdministrationAgreement"/>
            </meta>
            <text>
               <status value="generated"/>
               <div xmlns="http://www.w3.org/1999/xhtml">
                  <table>
                     <caption>Toedieningsafspraak. Subject: J. XXX_Amaya. Id: MBH_513_1_TA_1 (urn:oid:2.16.840.1.113883.2.4.3.11.999.77.422037009.1), Categorie: <span title="Provider medication administration instructions (procedure) (422037009 - SNOMED CT)">Provider medication administration instructions (procedure)</span>
                        <span style="display: block;">Uitvoerende: Apotheek De Gulle Gaper</span>
                     </caption>
                     <tbody>
                        <tr>
                           <th>Medicamenteuze behandel-id</th>
                           <td>MBH_513_1 (urn:oid:2.16.840.1.113883.2.4.3.11.999.77.1.1)</td>
                        </tr>
                        <tr>
                           <th>Gemaakt</th>
                           <td>12:25:00, 3 september 2018</td>
                        </tr>
                        <tr>
                           <th>Gebaseerd op</th>
                           <td>relatie naar medicatieafspraak: MBH_513_1_MA_2 || 2.16.840.1.113883.2.4.3.11.999.77.16076005.1 (Id: MBH_513_1_MA_2 (urn:oid:2.16.840.1.113883.2.4.3.11.999.77.16076005.1))</td>
                        </tr>
                        <tr>
                           <th>Medicatie</th>
                           <td>ASPIRINE PROTECT EC TABLET MSR 100MG</td>
                        </tr>
                        <tr>
                           <th>Gebruiksduur</th>
                           <td>
                              <ul>
                                 <li>Vanaf 00:00:00, 3 september 2018</li>
                                 <li>1 jaar</li>
                              </ul>
                           </td>
                        </tr>
                        <tr>
                           <th>Doseerinstructie</th>
                           <td>
                              <div>Volgnummer: 1</div>
                              <div>Tekst: Vanaf 3 sep 2018, gedurende 1 jaar, 1 maal per dag 1 stuk, oraal</div>
                              <div>Timing: <div>eenmalig per dag</div>
                              </div>
                              <div>Toedieningsweg: <span title="Oraal (9 - G-Standaard thesaurus subtabel 0007)">Oraal</span>
                              </div>
                              <div>Dosering: 1 stuk</div>
                           </td>
                        </tr>
                     </tbody>
                  </table>
               </div>
            </text>
            <extension url="http://nictiz.nl/fhir/StructureDefinition/zib-AdministrationAgreement-AuthoredOn">
               <valueDateTime value="2018-09-03T12:25:00+02:00"/>
            </extension>
            <extension url="http://nictiz.nl/fhir/StructureDefinition/zib-Medication-PeriodOfUse">
               <valuePeriod>
                  <start value="2018-09-03T00:00:00+02:00"/>
               </valuePeriod>
            </extension>
            <extension url="http://nictiz.nl/fhir/StructureDefinition/zib-MedicationUse-Duration">
               <valueDuration>
                  <value value="1"/>
                  <unit value="jaar"/>
                  <system value="http://unitsofmeasure.org"/>
                  <code value="a"/>
               </valueDuration>
            </extension>
            <extension url="http://nictiz.nl/fhir/StructureDefinition/zib-Medication-MedicationTreatment">
               <valueIdentifier>
                  <system value="urn:oid:2.16.840.1.113883.2.4.3.11.999.77.1.1"/>
                  <value value="MBH_513_1"/>
               </valueIdentifier>
            </extension>
            <identifier>
               <system value="urn:oid:2.16.840.1.113883.2.4.3.11.999.77.422037009.1"/>
               <value value="MBH_513_1_TA_1"/>
            </identifier>
            <category>
               <coding>
                  <system value="http://snomed.info/sct"/>
                  <code value="422037009"/>
                  <display value="Provider medication administration instructions (procedure)"/>
               </coding>
               <text value="Toedieningsafspraak"/>
            </category>
            <medicationReference>
               <reference value="urn:oid:2.16.840.1.113883.2.4.4.7.1110837"/>
               <display value="ASPIRINE PROTECT EC TABLET MSR 100MG"/>
            </medicationReference>
            <subject>
               <reference value="urn:uuid:bba73acf-bd3e-11ea-8729-020000000000"/>
               <display value="J. XXX_Amaya"/>
            </subject>
            <performer>
               <actor>
                  <reference value="urn:oid:2.16.528.1.1007.3.3.1236578"/>
                  <display value="Apotheek De Gulle Gaper"/>
               </actor>
            </performer>
            <authorizingPrescription>
               <identifier>
                  <system value="urn:oid:2.16.840.1.113883.2.4.3.11.999.77.16076005.1"/>
                  <value value="MBH_513_1_MA_2"/>
               </identifier>
               <display value="relatie naar medicatieafspraak: MBH_513_1_MA_2 || 2.16.840.1.113883.2.4.3.11.999.77.16076005.1"/>
            </authorizingPrescription>
            <dosageInstruction>
               <sequence value="1"/>
               <text value="Vanaf 3 sep 2018, gedurende 1 jaar, 1 maal per dag 1 stuk, oraal"/>
               <timing>
                  <repeat>
                     <frequency value="1"/>
                     <period value="1"/>
                     <periodUnit value="d"/>
                  </repeat>
               </timing>
               <route>
                  <coding>
                     <system value="urn:oid:2.16.840.1.113883.2.4.4.9"/>
                     <code value="9"/>
                     <display value="Oraal"/>
                  </coding>
               </route>
               <doseQuantity>
                  <value value="1"/>
                  <unit value="stuk"/>
                  <system value="urn:oid:2.16.840.1.113883.2.4.4.1.900.2"/>
                  <code value="245"/>
               </doseQuantity>
            </dosageInstruction>
         </MedicationDispense>
      </resource>
      <search>
         <mode value="match"/>
      </search>
   </entry>
   <entry>
      <fullUrl value="urn:uuid:bba74198-bd3e-11ea-8729-020000000000"/>
      <resource>
         <MedicationDispense>
            <meta>
               <profile value="http://nictiz.nl/fhir/StructureDefinition/zib-AdministrationAgreement"/>
            </meta>
            <text>
               <status value="generated"/>
               <div xmlns="http://www.w3.org/1999/xhtml">
                  <table>
                     <caption>Toedieningsafspraak. Subject: J. XXX_Amaya. Id: MBH_513_2_TA_1 (urn:oid:2.16.840.1.113883.2.4.3.11.999.77.422037009.1), Categorie: <span title="Provider medication administration instructions (procedure) (422037009 - SNOMED CT)">Provider medication administration instructions (procedure)</span>
                        <span style="display: block;">Uitvoerende: Apotheek De Gulle Gaper</span>
                     </caption>
                     <tbody>
                        <tr>
                           <th>Medicamenteuze behandel-id</th>
                           <td>MBH_513_2 (urn:oid:2.16.840.1.113883.2.4.3.11.999.77.1.1)</td>
                        </tr>
                        <tr>
                           <th>Gemaakt</th>
                           <td>14:52:00, 27 augustus 2018</td>
                        </tr>
                        <tr>
                           <th>Gebaseerd op</th>
                           <td>relatie naar medicatieafspraak: MBH_513_2_MA_1 || 2.16.840.1.113883.2.4.3.11.999.77.16076005.1 (Id: MBH_513_2_MA_1 (urn:oid:2.16.840.1.113883.2.4.3.11.999.77.16076005.1))</td>
                        </tr>
                        <tr>
                           <th>Medicatie</th>
                           <td>FUROSEMIDE ACTAVIS TABLET 40MG</td>
                        </tr>
                        <tr>
                           <th>Gebruiksduur</th>
                           <td>Vanaf 00:00:00, 27 augustus 2018</td>
                        </tr>
                        <tr>
                           <th>Doseerinstructie</th>
                           <td>
                              <div>Volgnummer: 1</div>
                              <div>Tekst: Vanaf 27 aug 2018, tot nader order, 1 maal daags 1 stuk, oraal</div>
                              <div>Timing: <div>eenmalig per dag</div>
                              </div>
                              <div>Toedieningsweg: <span title="Oraal (9 - G-Standaard thesaurus subtabel 0007)">Oraal</span>
                              </div>
                              <div>Dosering: 1 stuk</div>
                           </td>
                        </tr>
                     </tbody>
                  </table>
               </div>
            </text>
            <extension url="http://nictiz.nl/fhir/StructureDefinition/zib-AdministrationAgreement-AuthoredOn">
               <valueDateTime value="2018-08-27T14:52:00+02:00"/>
            </extension>
            <extension url="http://nictiz.nl/fhir/StructureDefinition/zib-AdministrationAgreement-AgreementReason">
               <valueString value="Opname"/>
            </extension>
            <extension url="http://nictiz.nl/fhir/StructureDefinition/zib-Medication-PeriodOfUse">
               <valuePeriod>
                  <start value="2018-08-27T00:00:00+02:00"/>
               </valuePeriod>
            </extension>
            <extension url="http://nictiz.nl/fhir/StructureDefinition/zib-Medication-MedicationTreatment">
               <valueIdentifier>
                  <system value="urn:oid:2.16.840.1.113883.2.4.3.11.999.77.1.1"/>
                  <value value="MBH_513_2"/>
               </valueIdentifier>
            </extension>
            <identifier>
               <system value="urn:oid:2.16.840.1.113883.2.4.3.11.999.77.422037009.1"/>
               <value value="MBH_513_2_TA_1"/>
            </identifier>
            <category>
               <coding>
                  <system value="http://snomed.info/sct"/>
                  <code value="422037009"/>
                  <display value="Provider medication administration instructions (procedure)"/>
               </coding>
               <text value="Toedieningsafspraak"/>
            </category>
            <medicationReference>
               <reference value="urn:oid:2.16.840.1.113883.2.4.4.7.571148"/>
               <display value="FUROSEMIDE ACTAVIS TABLET 40MG"/>
            </medicationReference>
            <subject>
               <reference value="urn:uuid:bba73acf-bd3e-11ea-8729-020000000000"/>
               <display value="J. XXX_Amaya"/>
            </subject>
            <performer>
               <actor>
                  <reference value="urn:oid:2.16.528.1.1007.3.3.1236578"/>
                  <display value="Apotheek De Gulle Gaper"/>
               </actor>
            </performer>
            <authorizingPrescription>
               <identifier>
                  <system value="urn:oid:2.16.840.1.113883.2.4.3.11.999.77.16076005.1"/>
                  <value value="MBH_513_2_MA_1"/>
               </identifier>
               <display value="relatie naar medicatieafspraak: MBH_513_2_MA_1 || 2.16.840.1.113883.2.4.3.11.999.77.16076005.1"/>
            </authorizingPrescription>
            <dosageInstruction>
               <sequence value="1"/>
               <text value="Vanaf 27 aug 2018, tot nader order, 1 maal daags 1 stuk, oraal"/>
               <timing>
                  <repeat>
                     <frequency value="1"/>
                     <period value="1"/>
                     <periodUnit value="d"/>
                  </repeat>
               </timing>
               <route>
                  <coding>
                     <system value="urn:oid:2.16.840.1.113883.2.4.4.9"/>
                     <code value="9"/>
                     <display value="Oraal"/>
                  </coding>
               </route>
               <doseQuantity>
                  <value value="1"/>
                  <unit value="stuk"/>
                  <system value="urn:oid:2.16.840.1.113883.2.4.4.1.900.2"/>
                  <code value="245"/>
               </doseQuantity>
            </dosageInstruction>
         </MedicationDispense>
      </resource>
      <search>
         <mode value="match"/>
      </search>
   </entry>
   <entry>
      <fullUrl value="urn:uuid:bba741b9-bd3e-11ea-8729-020000000000"/>
      <resource>
         <MedicationDispense>
            <meta>
               <profile value="http://nictiz.nl/fhir/StructureDefinition/zib-AdministrationAgreement"/>
            </meta>
            <text>
               <status value="generated"/>
               <div xmlns="http://www.w3.org/1999/xhtml">
                  <table>
                     <caption>Toedieningsafspraak. Subject: J. XXX_Amaya. Id: MBH_513_4_TA_1 (urn:oid:2.16.840.1.113883.2.4.3.11.999.77.422037009.1), Categorie: <span title="Provider medication administration instructions (procedure) (422037009 - SNOMED CT)">Provider medication administration instructions (procedure)</span>
                        <span style="display: block;">Uitvoerende: Apotheek De Gulle Gaper</span>
                     </caption>
                     <tfoot>
                        <tr>
                           <td colspan="2">Wegens niet leverbaar zijn van Broxil</td>
                        </tr>
                     </tfoot>
                     <tbody>
                        <tr>
                           <th>Medicamenteuze behandel-id</th>
                           <td>MBH_513_4 (urn:oid:2.16.840.1.113883.2.4.3.11.999.77.1.1)</td>
                        </tr>
                        <tr>
                           <th>Gemaakt</th>
                           <td>09:45:00, 29 augustus 2018</td>
                        </tr>
                        <tr>
                           <th>Gebaseerd op</th>
                           <td>relatie naar medicatieafspraak: MBH_513_4_MA_1 || 2.16.840.1.113883.2.4.3.11.999.77.16076005.1 (Id: MBH_513_4_MA_1 (urn:oid:2.16.840.1.113883.2.4.3.11.999.77.16076005.1))</td>
                        </tr>
                        <tr>
                           <th>Medicatie</th>
                           <td>AMOXICILLINE PCH CAPSULE 500MG</td>
                        </tr>
                        <tr>
                           <th>Gebruiksduur</th>
                           <td>
                              <ul>
                                 <li>Vanaf 00:00:00, 29 augustus 2018</li>
                                 <li>10 dag</li>
                              </ul>
                           </td>
                        </tr>
                        <tr>
                           <th>Doseerinstructie</th>
                           <td>
                              <div>Volgnummer: 1</div>
                              <div>Tekst: Vanaf 29 aug 2018, gedurende 10 dagen, 3 maal per dag 1 stuk, oraal</div>
                              <div>Timing: <div>3 maal per dag</div>
                              </div>
                              <div>Toedieningsweg: <span title="Oraal (9 - G-Standaard thesaurus subtabel 0007)">Oraal</span>
                              </div>
                              <div>Dosering: 1 stuk</div>
                           </td>
                        </tr>
                     </tbody>
                  </table>
               </div>
            </text>
            <extension url="http://nictiz.nl/fhir/StructureDefinition/zib-AdministrationAgreement-AuthoredOn">
               <valueDateTime value="2018-08-29T09:45:00+02:00"/>
            </extension>
            <extension url="http://nictiz.nl/fhir/StructureDefinition/zib-Medication-PeriodOfUse">
               <valuePeriod>
                  <start value="2018-08-29T00:00:00+02:00"/>
               </valuePeriod>
            </extension>
            <extension url="http://nictiz.nl/fhir/StructureDefinition/zib-MedicationUse-Duration">
               <valueDuration>
                  <value value="10"/>
                  <unit value="dag"/>
                  <system value="http://unitsofmeasure.org"/>
                  <code value="d"/>
               </valueDuration>
            </extension>
            <extension url="http://nictiz.nl/fhir/StructureDefinition/zib-Medication-AdditionalInformation">
               <valueCodeableConcept>
                  <coding>
                     <system value="urn:oid:2.16.840.1.113883.2.4.3.11.60.20.77.5.2.14.2053"/>
                     <code value="10"/>
                     <display value="Gebruiksinstructie gegeven"/>
                  </coding>
               </valueCodeableConcept>
            </extension>
            <extension url="http://nictiz.nl/fhir/StructureDefinition/zib-Medication-MedicationTreatment">
               <valueIdentifier>
                  <system value="urn:oid:2.16.840.1.113883.2.4.3.11.999.77.1.1"/>
                  <value value="MBH_513_4"/>
               </valueIdentifier>
            </extension>
            <identifier>
               <system value="urn:oid:2.16.840.1.113883.2.4.3.11.999.77.422037009.1"/>
               <value value="MBH_513_4_TA_1"/>
            </identifier>
            <category>
               <coding>
                  <system value="http://snomed.info/sct"/>
                  <code value="422037009"/>
                  <display value="Provider medication administration instructions (procedure)"/>
               </coding>
               <text value="Toedieningsafspraak"/>
            </category>
            <medicationReference>
               <reference value="urn:oid:2.16.840.1.113883.2.4.4.7.646083"/>
               <display value="AMOXICILLINE PCH CAPSULE 500MG"/>
            </medicationReference>
            <subject>
               <reference value="urn:uuid:bba73acf-bd3e-11ea-8729-020000000000"/>
               <display value="J. XXX_Amaya"/>
            </subject>
            <performer>
               <actor>
                  <reference value="urn:oid:2.16.528.1.1007.3.3.1236578"/>
                  <display value="Apotheek De Gulle Gaper"/>
               </actor>
            </performer>
            <authorizingPrescription>
               <identifier>
                  <system value="urn:oid:2.16.840.1.113883.2.4.3.11.999.77.16076005.1"/>
                  <value value="MBH_513_4_MA_1"/>
               </identifier>
               <display value="relatie naar medicatieafspraak: MBH_513_4_MA_1 || 2.16.840.1.113883.2.4.3.11.999.77.16076005.1"/>
            </authorizingPrescription>
            <note>
               <text value="Wegens niet leverbaar zijn van Broxil"/>
            </note>
            <dosageInstruction>
               <sequence value="1"/>
               <text value="Vanaf 29 aug 2018, gedurende 10 dagen, 3 maal per dag 1 stuk, oraal"/>
               <timing>
                  <repeat>
                     <frequency value="3"/>
                     <period value="1"/>
                     <periodUnit value="d"/>
                  </repeat>
               </timing>
               <route>
                  <coding>
                     <system value="urn:oid:2.16.840.1.113883.2.4.4.9"/>
                     <code value="9"/>
                     <display value="Oraal"/>
                  </coding>
               </route>
               <doseQuantity>
                  <value value="1"/>
                  <unit value="stuk"/>
                  <system value="urn:oid:2.16.840.1.113883.2.4.4.1.900.2"/>
                  <code value="245"/>
               </doseQuantity>
            </dosageInstruction>
         </MedicationDispense>
      </resource>
      <search>
         <mode value="match"/>
      </search>
   </entry>
   <entry>
      <fullUrl value="urn:uuid:bba73acf-bd3e-11ea-8729-020000000000"/>
      <resource>
         <Patient>
            <meta>
               <profile value="http://fhir.nl/fhir/StructureDefinition/nl-core-patient"/>
            </meta>
            <text>
               <status value="generated"/>
               <div xmlns="http://www.w3.org/1999/xhtml">
                  <div>Id <i>afgeschermd (ontbrekend gegeven)</i> (BSN), Id 51107 (urn:oid:2.16.840.1.113883.2.4.3.11.999.77.19829.1), J. XXX_Amaya, Man, 6 augustus 1964</div>
               </div>
            </text>
            <identifier>
               <system value="http://fhir.nl/fhir/NamingSystem/bsn"/>
               <value>
                  <extension url="http://hl7.org/fhir/StructureDefinition/data-absent-reason">
                     <valueCode value="masked"/>
                  </extension>
               </value>
            </identifier>
            <identifier>
               <system value="urn:oid:2.16.840.1.113883.2.4.3.11.999.77.19829.1"/>
               <value value="51107"/>
            </identifier>
            <name>
               <extension url="http://hl7.org/fhir/StructureDefinition/humanname-assembly-order">
                  <valueCode value="NL1"/>
               </extension>
               <family value="XXX_Amaya">
                  <extension url="http://hl7.org/fhir/StructureDefinition/humanname-own-name">
                     <valueString value="XXX_Amaya"/>
                  </extension>
               </family>
               <given value="J.">
                  <extension url="http://hl7.org/fhir/StructureDefinition/iso21090-EN-qualifier">
                     <valueCode value="IN"/>
                  </extension>
               </given>
            </name>
            <gender value="male"/>
            <birthDate value="1964-08-06"/>
         </Patient>
      </resource>
      <search>
         <mode value="include"/>
      </search>
   </entry>
   <entry>
      <fullUrl value="urn:oid:2.16.528.1.1007.3.3.1236578"/>
      <resource>
         <Organization>
            <meta>
               <profile value="http://fhir.nl/fhir/StructureDefinition/nl-core-organization"/>
            </meta>
            <text>
               <status value="generated"/>
               <div xmlns="http://www.w3.org/1999/xhtml">
                  <table>
                     <caption>OrganisatieId: 01236578 (URA)</caption>
                     <tbody>
                        <tr>
                           <th>Naam</th>
                           <td>Apotheek De Gulle Gaper</td>
                        </tr>
                     </tbody>
                  </table>
               </div>
            </text>
            <identifier>
               <system value="http://fhir.nl/fhir/NamingSystem/ura"/>
               <value value="01236578"/>
            </identifier>
            <name value="Apotheek De Gulle Gaper"/>
         </Organization>
      </resource>
      <search>
         <mode value="include"/>
      </search>
   </entry>
   <entry>
      <fullUrl value="urn:oid:2.16.840.1.113883.2.4.4.7.1110837"/>
      <resource>
         <Medication>
            <meta>
               <profile value="http://nictiz.nl/fhir/StructureDefinition/zib-Product"/>
            </meta>
            <text>
               <status value="generated"/>
               <div xmlns="http://www.w3.org/1999/xhtml">
                  <table>
                     <tbody>
                        <tr>
                           <th>Code</th>
                           <td>
                              <span title="ASPIRINE PROTECT EC TABLET MSR 100MG (1110837 - G-Standaard HPK)">ASPIRINE PROTECT EC TABLET MSR 100MG</span>
                           </td>
                        </tr>
                     </tbody>
                  </table>
               </div>
            </text>
            <code>
               <coding>
                  <system value="urn:oid:2.16.840.1.113883.2.4.4.7"/>
                  <code value="1110837"/>
                  <display value="ASPIRINE PROTECT EC TABLET MSR 100MG"/>
                  <userSelected value="true"/>
               </coding>
               <coding>
                  <system value="urn:oid:2.16.840.1.113883.2.4.4.10"/>
                  <code value="49484"/>
                  <display value="ACETYLSALICYLZUUR TABLETMSR 100MG"/>
               </coding>
               <coding>
                  <system value="urn:oid:2.16.840.1.113883.2.4.4.1"/>
                  <code value="103039"/>
                  <display value="ACETYLSALICYLZUUR TABLETMSR 100MG"/>
               </coding>
               <text value="ASPIRINE PROTECT EC TABLET MSR 100MG"/>
            </code>
         </Medication>
      </resource>
      <search>
         <mode value="include"/>
      </search>
   </entry>
   <entry>
      <fullUrl value="urn:oid:2.16.840.1.113883.2.4.4.7.571148"/>
      <resource>
         <Medication>
            <meta>
               <profile value="http://nictiz.nl/fhir/StructureDefinition/zib-Product"/>
            </meta>
            <text>
               <status value="generated"/>
               <div xmlns="http://www.w3.org/1999/xhtml">
                  <table>
                     <tbody>
                        <tr>
                           <th>Code</th>
                           <td>
                              <span title="FUROSEMIDE ACTAVIS TABLET 40MG (571148 - G-Standaard HPK)">FUROSEMIDE ACTAVIS TABLET 40MG</span>
                           </td>
                        </tr>
                     </tbody>
                  </table>
               </div>
            </text>
            <code>
               <coding>
                  <system value="urn:oid:2.16.840.1.113883.2.4.4.7"/>
                  <code value="571148"/>
                  <display value="FUROSEMIDE ACTAVIS TABLET 40MG"/>
                  <userSelected value="true"/>
               </coding>
               <coding>
                  <system value="urn:oid:2.16.840.1.113883.2.4.4.10"/>
                  <code value="5967"/>
                  <display value="FUROSEMIDE TABLET 40MG"/>
               </coding>
               <coding>
                  <system value="urn:oid:2.16.840.1.113883.2.4.4.1"/>
                  <code value="16810"/>
                  <display value="FUROSEMIDE TABLET 40MG"/>
               </coding>
               <text value="FUROSEMIDE ACTAVIS TABLET 40MG"/>
            </code>
         </Medication>
      </resource>
      <search>
         <mode value="include"/>
      </search>
   </entry>
   <entry>
      <fullUrl value="urn:oid:2.16.840.1.113883.2.4.4.7.646083"/>
      <resource>
         <Medication>
            <meta>
               <profile value="http://nictiz.nl/fhir/StructureDefinition/zib-Product"/>
            </meta>
            <text>
               <status value="generated"/>
               <div xmlns="http://www.w3.org/1999/xhtml">
                  <table>
                     <tbody>
                        <tr>
                           <th>Code</th>
                           <td>
                              <span title="AMOXICILLINE PCH CAPSULE 500MG (646083 - G-Standaard HPK)">AMOXICILLINE PCH CAPSULE 500MG</span>
                           </td>
                        </tr>
                     </tbody>
                  </table>
               </div>
            </text>
            <code>
               <coding>
                  <system value="urn:oid:2.16.840.1.113883.2.4.4.7"/>
                  <code value="646083"/>
                  <display value="AMOXICILLINE PCH CAPSULE 500MG"/>
                  <userSelected value="true"/>
               </coding>
               <coding>
                  <system value="urn:oid:2.16.840.1.113883.2.4.4.10"/>
                  <code value="5223"/>
                  <display value="AMOXICILLINE 500MG CAPSULE"/>
               </coding>
               <coding>
                  <system value="urn:oid:2.16.840.1.113883.2.4.4.1"/>
                  <code value="15423"/>
                  <display value="AMOXICILLINE 500MG CAPSULE"/>
               </coding>
               <text value="AMOXICILLINE PCH CAPSULE 500MG"/>
            </code>
         </Medication>
      </resource>
      <search>
         <mode value="include"/>
      </search>
   </entry>
</Bundle>
