<?xml-model href="http://hl7.org/fhir/STU3/bundle.sch" type="application/xml" schematypens="http://purl.oclc.org/dsdl/schematron"?><Bundle xmlns="http://hl7.org/fhir"
        xmlns:xsi="http://www.w3.org/2001/XMLSchema-instance"
        xsi:schemaLocation="http://hl7.org/fhir http://hl7.org/fhir/STU3/bundle.xsd">
   <type value="searchset"/>
   <total value="4"/>
   <entry>
      <fullUrl value="urn:uuid:e81c8180-afdd-11ea-4554-020000000000"/>
      <resource>
         <AllergyIntolerance>
            <meta>
               <profile value="http://nictiz.nl/fhir/StructureDefinition/mp612-AllergyIntoleranceToFHIRConversion"/>
            </meta>
            <text>
               <status value="generated"/>
               <div xmlns="http://www.w3.org/1999/xhtml">
                  <table>
                     <caption>Allergie/intolerantie. Patiënt: M.P.H. Mike XXX_Smits. Id: CIO_02_01 (urn:oid:2.16.840.1.113883.2.4.3.11.999.26.1.1), Categorie: <span title="neiging tot ongewenste reactie op geneesmiddel (419511003 - SNOMED CT)">neiging tot ongewenste reactie op geneesmiddel</span>, Status: actief / <i>onbekend (ontbrekend gegeven)</i>
                        <span style="display: block;">Ingevoerd door: I.N. ter Nist || Medisch specialisten, inwendige geneeskunde || Test Medisch Centrum</span>
                     </caption>
                     <tfoot>
                        <tr>
                           <td colspan="2">Rode vlekken en jeuk. Geldt alleen voor dit merk.</td>
                        </tr>
                     </tfoot>
                     <tbody>
                        <tr>
                           <th>Code</th>
                           <td>
                              <span title="AMOXI/CLAV SANDOZ TABLET 500/125MG (1127039 - G-Standaard HPK)">AMOXI/CLAV SANDOZ TABLET 500/125MG</span>
                           </td>
                        </tr>
                        <tr>
                           <th>Informant</th>
                           <td>13:15:00, 17 mei 2020 - M.P.H. Mike XXX_Smits</td>
                        </tr>
                        <tr>
                           <th>Eerste symptomen</th>
                           <td>2020-04-27</td>
                        </tr>
                     </tbody>
                  </table>
               </div>
            </text>
            <identifier>
               <system value="urn:oid:2.16.840.1.113883.2.4.3.11.999.26.1.1"/>
               <value value="CIO_02_01"/>
            </identifier>
            <clinicalStatus value="active">
               <extension url="http://nictiz.nl/fhir/StructureDefinition/code-specification">
                  <valueCodeableConcept>
                     <coding>
                        <system value="http://hl7.org/fhir/v3/ActStatus"/>
                        <code value="active"/>
                        <display value="Actief"/>
                     </coding>
                  </valueCodeableConcept>
               </extension>
            </clinicalStatus>
            <verificationStatus>
               <extension url="http://hl7.org/fhir/StructureDefinition/data-absent-reason">
                  <valueCode value="unknown"/>
               </extension>
            </verificationStatus>
            <category value="medication">
               <extension url="http://nictiz.nl/fhir/StructureDefinition/code-specification">
                  <valueCodeableConcept>
                     <coding>
                        <system value="http://snomed.info/sct"/>
                        <code value="419511003"/>
                        <display value="neiging tot ongewenste reactie op geneesmiddel"/>
                     </coding>
                  </valueCodeableConcept>
               </extension>
            </category>
            <code>
               <coding>
                  <system value="urn:oid:2.16.840.1.113883.2.4.4.7"/>
                  <code value="1127039"/>
                  <display value="AMOXI/CLAV SANDOZ TABLET 500/125MG"/>
               </coding>
            </code>
            <patient>
               <reference value="urn:uuid:e81c74df-afdd-11ea-4554-020000000000"/>
               <display value="M.P.H. Mike XXX_Smits"/>
            </patient>
            <onsetDateTime value="2020-04-27"/>
            <assertedDate value="2020-05-17T13:15:00+02:00"/>
            <recorder>
               <extension url="http://nictiz.nl/fhir/StructureDefinition/practitionerrole-reference">
                  <valueReference>
                     <reference value="urn:uuid:e81c8188-afdd-11ea-4554-020000000000"/>
                     <display value="I.N. ter Nist || Medisch specialisten, inwendige geneeskunde || Test Medisch Centrum"/>
                  </valueReference>
               </extension>
               <display value="I.N. ter Nist || Medisch specialisten, inwendige geneeskunde || Test Medisch Centrum"/>
            </recorder>
            <asserter>
               <reference value="urn:uuid:e81c74df-afdd-11ea-4554-020000000000"/>
               <display value="M.P.H. Mike XXX_Smits"/>
            </asserter>
            <note>
               <text value="Rode vlekken en jeuk. Geldt alleen voor dit merk."/>
            </note>
         </AllergyIntolerance>
      </resource>
      <search>
         <mode value="match"/>
      </search>
   </entry>
   <entry>
      <fullUrl value="urn:uuid:e81c8192-afdd-11ea-4554-020000000000"/>
      <resource>
         <AllergyIntolerance>
            <meta>
               <profile value="http://nictiz.nl/fhir/StructureDefinition/mp612-AllergyIntoleranceToFHIRConversion"/>
            </meta>
            <text>
               <status value="generated"/>
               <div xmlns="http://www.w3.org/1999/xhtml">
                  <table>
                     <caption>Allergie/intolerantie. Patiënt: M.P.H. Mike XXX_Smits. Id: CIO_02_02 (urn:oid:2.16.840.1.113883.2.4.3.11.999.26.1.1), Categorie: <span title="neiging tot ongewenste reactie op geneesmiddel (419511003 - SNOMED CT)">neiging tot ongewenste reactie op geneesmiddel</span>, Status: inactief / <i>onbekend (ontbrekend gegeven)</i>
                        <span style="display: block;">Ingevoerd door: I.N. ter Nist || Medisch specialisten, inwendige geneeskunde || Test Medisch Centrum</span>
                     </caption>
                     <tfoot>
                        <tr>
                           <td colspan="2">Betreft nu Ciprofloxacine. Leidt tot paarse vlekjes op de huid en jeuk.</td>
                        </tr>
                     </tfoot>
                     <tbody>
                        <tr>
                           <th>Code</th>
                           <td>
                              <span title="Amoxicilline (23167 - G-Standaard Bestand 750)">Amoxicilline</span>
                           </td>
                        </tr>
                        <tr>
                           <th>Informant</th>
                           <td>2020-04-17 - I.N. ter Nist || Medisch specialisten, inwendige geneeskunde || Test Medisch Centrum</td>
                        </tr>
                        <tr>
                           <th>Eerste symptomen</th>
                           <td>2020-03-08</td>
                        </tr>
                     </tbody>
                  </table>
               </div>
            </text>
            <identifier>
               <system value="urn:oid:2.16.840.1.113883.2.4.3.11.999.26.1.1"/>
               <value value="CIO_02_02"/>
            </identifier>
            <clinicalStatus value="inactive">
               <extension url="http://nictiz.nl/fhir/StructureDefinition/code-specification">
                  <valueCodeableConcept>
                     <coding>
                        <system value="http://hl7.org/fhir/v3/ActStatus"/>
                        <code value="obsolete"/>
                        <display value="Achterhaald"/>
                     </coding>
                  </valueCodeableConcept>
               </extension>
            </clinicalStatus>
            <verificationStatus>
               <extension url="http://hl7.org/fhir/StructureDefinition/data-absent-reason">
                  <valueCode value="unknown"/>
               </extension>
            </verificationStatus>
            <category value="medication">
               <extension url="http://nictiz.nl/fhir/StructureDefinition/code-specification">
                  <valueCodeableConcept>
                     <coding>
                        <system value="http://snomed.info/sct"/>
                        <code value="419511003"/>
                        <display value="neiging tot ongewenste reactie op geneesmiddel"/>
                     </coding>
                  </valueCodeableConcept>
               </extension>
            </category>
            <code>
               <coding>
                  <system value="urn:oid:2.16.840.1.113883.2.4.4.1.750"/>
                  <code value="23167"/>
                  <display value="Amoxicilline"/>
               </coding>
            </code>
            <patient>
               <reference value="urn:uuid:e81c74df-afdd-11ea-4554-020000000000"/>
               <display value="M.P.H. Mike XXX_Smits"/>
            </patient>
            <onsetDateTime value="2020-03-08"/>
            <assertedDate value="2020-04-17"/>
            <recorder>
               <extension url="http://nictiz.nl/fhir/StructureDefinition/practitionerrole-reference">
                  <valueReference>
                     <reference value="urn:uuid:e81c8188-afdd-11ea-4554-020000000000"/>
                     <display value="I.N. ter Nist || Medisch specialisten, inwendige geneeskunde || Test Medisch Centrum"/>
                  </valueReference>
               </extension>
               <display value="I.N. ter Nist || Medisch specialisten, inwendige geneeskunde || Test Medisch Centrum"/>
            </recorder>
            <asserter>
               <extension url="http://nictiz.nl/fhir/StructureDefinition/practitionerrole-reference">
                  <valueReference>
                     <reference value="urn:uuid:e81c8188-afdd-11ea-4554-020000000000"/>
                     <display value="I.N. ter Nist || Medisch specialisten, inwendige geneeskunde || Test Medisch Centrum"/>
                  </valueReference>
               </extension>
               <display value="I.N. ter Nist || Medisch specialisten, inwendige geneeskunde || Test Medisch Centrum"/>
            </asserter>
            <note>
               <text value="Betreft nu Ciprofloxacine. Leidt tot paarse vlekjes op de huid en jeuk."/>
            </note>
         </AllergyIntolerance>
      </resource>
      <search>
         <mode value="match"/>
      </search>
   </entry>
   <entry>
      <fullUrl value="urn:uuid:e81c81a4-afdd-11ea-4554-020000000000"/>
      <resource>
         <AllergyIntolerance>
            <meta>
               <profile value="http://nictiz.nl/fhir/StructureDefinition/mp612-AllergyIntoleranceToFHIRConversion"/>
            </meta>
            <text>
               <status value="generated"/>
               <div xmlns="http://www.w3.org/1999/xhtml">
                  <table>
                     <caption>Allergie/intolerantie. Patiënt: M.P.H. Mike XXX_Smits. Id: CIO_02_03 (urn:oid:2.16.840.1.113883.2.4.3.11.999.26.1.1), Categorie: <span title="neiging tot ongewenste reactie op geneesmiddel (419511003 - SNOMED CT)">neiging tot ongewenste reactie op geneesmiddel</span>, Status: opgelost / <i>onbekend (ontbrekend gegeven)</i>
                        <span style="display: block;">Ingevoerd door: S. Calpel || Medisch specialisten, chirurgie || Test Medisch Centrum</span>
                     </caption>
                     <tfoot>
                        <tr>
                           <td colspan="2">Geconstateerd tijdens operatie en leidt tot jeuk.</td>
                        </tr>
                     </tfoot>
                     <tbody>
                        <tr>
                           <th>Code</th>
                           <td>
                              <span title="Amoxicilline oraal (16322 - G-Standaard Bestand 725)">Amoxicilline oraal</span>
                           </td>
                        </tr>
                        <tr>
                           <th>Informant</th>
                           <td>2020-03-18 - S. Calpel || Medisch specialisten, chirurgie || Test Medisch Centrum</td>
                        </tr>
                     </tbody>
                  </table>
               </div>
            </text>
            <identifier>
               <system value="urn:oid:2.16.840.1.113883.2.4.3.11.999.26.1.1"/>
               <value value="CIO_02_03"/>
            </identifier>
            <clinicalStatus value="resolved">
               <extension url="http://nictiz.nl/fhir/StructureDefinition/code-specification">
                  <valueCodeableConcept>
                     <coding>
                        <system value="http://hl7.org/fhir/v3/ActStatus"/>
                        <code value="completed"/>
                        <display value="Niet meer aanwezig"/>
                     </coding>
                  </valueCodeableConcept>
               </extension>
            </clinicalStatus>
            <verificationStatus>
               <extension url="http://hl7.org/fhir/StructureDefinition/data-absent-reason">
                  <valueCode value="unknown"/>
               </extension>
            </verificationStatus>
            <category value="medication">
               <extension url="http://nictiz.nl/fhir/StructureDefinition/code-specification">
                  <valueCodeableConcept>
                     <coding>
                        <system value="http://snomed.info/sct"/>
                        <code value="419511003"/>
                        <display value="neiging tot ongewenste reactie op geneesmiddel"/>
                     </coding>
                  </valueCodeableConcept>
               </extension>
            </category>
            <code>
               <coding>
                  <system value="urn:oid:2.16.840.1.113883.2.4.4.1.725"/>
                  <code value="16322"/>
                  <display value="Amoxicilline oraal"/>
               </coding>
            </code>
            <patient>
               <reference value="urn:uuid:e81c74df-afdd-11ea-4554-020000000000"/>
               <display value="M.P.H. Mike XXX_Smits"/>
            </patient>
            <assertedDate value="2020-03-18"/>
            <recorder>
               <extension url="http://nictiz.nl/fhir/StructureDefinition/practitionerrole-reference">
                  <valueReference>
                     <reference value="urn:uuid:e81c81a9-afdd-11ea-4554-020000000000"/>
                     <display value="S. Calpel || Medisch specialisten, chirurgie || Test Medisch Centrum"/>
                  </valueReference>
               </extension>
               <display value="S. Calpel || Medisch specialisten, chirurgie || Test Medisch Centrum"/>
            </recorder>
            <asserter>
               <extension url="http://nictiz.nl/fhir/StructureDefinition/practitionerrole-reference">
                  <valueReference>
                     <reference value="urn:uuid:e81c81a9-afdd-11ea-4554-020000000000"/>
                     <display value="S. Calpel || Medisch specialisten, chirurgie || Test Medisch Centrum"/>
                  </valueReference>
               </extension>
               <display value="S. Calpel || Medisch specialisten, chirurgie || Test Medisch Centrum"/>
            </asserter>
            <note>
               <text value="Geconstateerd tijdens operatie en leidt tot jeuk."/>
            </note>
         </AllergyIntolerance>
      </resource>
      <search>
         <mode value="match"/>
      </search>
   </entry>
   <entry>
      <fullUrl value="urn:uuid:e81c81b5-afdd-11ea-4554-020000000000"/>
      <resource>
         <AllergyIntolerance>
            <meta>
               <profile value="http://nictiz.nl/fhir/StructureDefinition/mp612-AllergyIntoleranceToFHIRConversion"/>
            </meta>
            <text>
               <status value="generated"/>
               <div xmlns="http://www.w3.org/1999/xhtml">
                  <table>
                     <caption>Allergie/intolerantie. Patiënt: M.P.H. Mike XXX_Smits. Id: CIO_02_04 (urn:oid:2.16.840.1.113883.2.4.3.11.999.26.1.1), Categorie: <span title="neiging tot ongewenste reactie op geneesmiddel (419511003 - SNOMED CT)">neiging tot ongewenste reactie op geneesmiddel</span>, Status: <i>onbekend (ontbrekend gegeven)</i>
                        <span style="display: block;">Ingevoerd door: O. Orthopeed || Medisch specialisten, orthopedie || Test Medisch Centrum</span>
                     </caption>
                     <tfoot>
                        <tr>
                           <td colspan="2">Verkeerd geregistreerd</td>
                        </tr>
                     </tfoot>
                     <tbody>
                        <tr>
                           <th>Code</th>
                           <td>
                              <span title="Penicillines (35 - G-Standaard Tabel 122)">Penicillines</span>
                           </td>
                        </tr>
                        <tr>
                           <th>Informant</th>
                           <td>2020-02-17 - Meike M.G.J. van Hoof</td>
                        </tr>
                        <tr>
                           <th>Eerste symptomen</th>
                           <td>2019-11-29</td>
                        </tr>
                     </tbody>
                  </table>
               </div>
            </text>
            <identifier>
               <system value="urn:oid:2.16.840.1.113883.2.4.3.11.999.26.1.1"/>
               <value value="CIO_02_04"/>
            </identifier>
            <verificationStatus>
               <extension url="http://hl7.org/fhir/StructureDefinition/data-absent-reason">
                  <valueCode value="unknown"/>
               </extension>
            </verificationStatus>
            <category value="medication">
               <extension url="http://nictiz.nl/fhir/StructureDefinition/code-specification">
                  <valueCodeableConcept>
                     <coding>
                        <system value="http://snomed.info/sct"/>
                        <code value="419511003"/>
                        <display value="neiging tot ongewenste reactie op geneesmiddel"/>
                     </coding>
                  </valueCodeableConcept>
               </extension>
            </category>
            <code>
               <coding>
                  <system value="urn:oid:2.16.840.1.113883.2.4.4.1.902.122"/>
                  <code value="35"/>
                  <display value="Penicillines"/>
               </coding>
            </code>
            <patient>
               <reference value="urn:uuid:e81c74df-afdd-11ea-4554-020000000000"/>
               <display value="M.P.H. Mike XXX_Smits"/>
            </patient>
            <onsetDateTime value="2019-11-29"/>
            <assertedDate value="2020-02-17"/>
            <recorder>
               <extension url="http://nictiz.nl/fhir/StructureDefinition/practitionerrole-reference">
                  <valueReference>
                     <reference value="urn:uuid:e81c81bd-afdd-11ea-4554-020000000000"/>
                     <display value="O. Orthopeed || Medisch specialisten, orthopedie || Test Medisch Centrum"/>
                  </valueReference>
               </extension>
               <display value="O. Orthopeed || Medisch specialisten, orthopedie || Test Medisch Centrum"/>
            </recorder>
            <asserter>
               <reference value="urn:uuid:e81c8a3d-afdd-11ea-4554-020000000000"/>
               <display value="Meike M.G.J. van Hoof"/>
            </asserter>
            <note>
               <text value="Verkeerd geregistreerd"/>
            </note>
         </AllergyIntolerance>
      </resource>
      <search>
         <mode value="match"/>
      </search>
   </entry>
   <entry>
      <fullUrl value="urn:uuid:e81c74df-afdd-11ea-4554-020000000000"/>
      <resource>
         <Patient>
            <meta>
               <profile value="http://fhir.nl/fhir/StructureDefinition/nl-core-patient"/>
            </meta>
            <text>
               <status value="generated"/>
               <div xmlns="http://www.w3.org/1999/xhtml">
                  <div>Id 999911223 (BSN), M.P.H. XXX_Smits (Mike), Man, 30 juli 1964</div>
                  <div>
                     <a href="tel:06-12345678">06-12345678</a> (Tel Mobiel)</div>
                  <div>Knolweg 1000 f, 9999 XA Stitswerd (Privé Bezoek)</div>
               </div>
            </text>
            <identifier>
               <system value="http://fhir.nl/fhir/NamingSystem/bsn"/>
               <value value="999911223"/>
            </identifier>
            <name>
               <extension url="http://hl7.org/fhir/StructureDefinition/humanname-assembly-order">
                  <valueCode value="NL1"/>
               </extension>
               <family value="XXX_Smits">
                  <extension url="http://hl7.org/fhir/StructureDefinition/humanname-own-name">
                     <valueString value="XXX_Smits"/>
                  </extension>
               </family>
               <given value="M.P.H.">
                  <extension url="http://hl7.org/fhir/StructureDefinition/iso21090-EN-qualifier">
                     <valueCode value="IN"/>
                  </extension>
               </given>
               <given value="Mike">
                  <extension url="http://hl7.org/fhir/StructureDefinition/iso21090-EN-qualifier">
                     <valueCode value="CL"/>
                  </extension>
               </given>
            </name>
            <telecom>
               <system value="phone">
                  <extension url="http://nictiz.nl/fhir/StructureDefinition/code-specification">
                     <valueCodeableConcept>
                        <coding>
                           <system value="http://hl7.org/fhir/v3/AddressUse"/>
                           <code value="MC"/>
                           <display value="Mobiel telefoonnummer"/>
                        </coding>
                     </valueCodeableConcept>
                  </extension>
               </system>
               <value value="06-12345678"/>
               <use value="mobile">
                  <extension url="http://nictiz.nl/fhir/StructureDefinition/code-specification">
                     <valueCodeableConcept>
                        <coding>
                           <system value="http://hl7.org/fhir/v3/AddressUse"/>
                           <code value="HP"/>
                           <display value="Telefoonnummer thuis"/>
                        </coding>
                     </valueCodeableConcept>
                  </extension>
               </use>
            </telecom>
            <gender value="male"/>
            <birthDate value="1964-07-30"/>
            <address>
               <extension url="http://hl7.org/fhir/StructureDefinition/iso21090-AD-use">
                  <valueCode value="PHYS"/>
               </extension>
               <use value="home"/>
               <type value="physical"/>
               <line value="Knolweg 1000 f">
                  <extension url="http://hl7.org/fhir/StructureDefinition/iso21090-ADXP-streetName">
                     <valueString value="Knolweg"/>
                  </extension>
                  <extension url="http://hl7.org/fhir/StructureDefinition/iso21090-ADXP-houseNumber">
                     <valueString value="1000"/>
                  </extension>
                  <extension url="http://hl7.org/fhir/StructureDefinition/iso21090-ADXP-buildingNumberSuffix">
                     <valueString value="f"/>
                  </extension>
               </line>
               <city value="Stitswerd"/>
               <postalCode value="9999 XA"/>
            </address>
         </Patient>
      </resource>
      <search>
         <mode value="include"/>
      </search>
   </entry>
   <entry>
      <fullUrl value="urn:oid:2.16.528.1.1007.3.1.111111112"/>
      <resource>
         <Practitioner>
            <meta>
               <profile value="http://fhir.nl/fhir/StructureDefinition/nl-core-practitioner"/>
            </meta>
            <text>
               <status value="generated"/>
               <div xmlns="http://www.w3.org/1999/xhtml">
                  <div>Id 111111112 (UZI-NR-PERS), I.N. ter Nist</div>
                  <div>Valkendael 45 1 hoog, 6245 HK Maastricht (Werk)</div>
               </div>
            </text>
            <identifier>
               <system value="http://fhir.nl/fhir/NamingSystem/uzi-nr-pers"/>
               <value value="111111112"/>
            </identifier>
            <name>
               <extension url="http://hl7.org/fhir/StructureDefinition/humanname-assembly-order">
                  <valueCode value="NL1"/>
               </extension>
               <family value="ter Nist">
                  <extension url="http://hl7.org/fhir/StructureDefinition/humanname-own-prefix">
                     <valueString value="ter"/>
                  </extension>
                  <extension url="http://hl7.org/fhir/StructureDefinition/humanname-own-name">
                     <valueString value="Nist"/>
                  </extension>
               </family>
               <given value="I.N.">
                  <extension url="http://hl7.org/fhir/StructureDefinition/iso21090-EN-qualifier">
                     <valueCode value="IN"/>
                  </extension>
               </given>
            </name>
            <address>
               <use value="work"/>
               <line value="Valkendael 45 1 hoog">
                  <extension url="http://hl7.org/fhir/StructureDefinition/iso21090-ADXP-streetName">
                     <valueString value="Valkendael"/>
                  </extension>
                  <extension url="http://hl7.org/fhir/StructureDefinition/iso21090-ADXP-houseNumber">
                     <valueString value="45"/>
                  </extension>
                  <extension url="http://hl7.org/fhir/StructureDefinition/iso21090-ADXP-buildingNumberSuffix">
                     <valueString value="1 hoog"/>
                  </extension>
               </line>
               <city value="Maastricht"/>
               <postalCode value="6245 HK"/>
            </address>
         </Practitioner>
      </resource>
      <search>
         <mode value="include"/>
      </search>
   </entry>
   <entry>
      <fullUrl value="urn:oid:2.16.528.1.1007.3.1.222222223"/>
      <resource>
         <Practitioner>
            <meta>
               <profile value="http://fhir.nl/fhir/StructureDefinition/nl-core-practitioner"/>
            </meta>
            <text>
               <status value="generated"/>
               <div xmlns="http://www.w3.org/1999/xhtml">
                  <div>Id 222222223 (UZI-NR-PERS), O. Orthopeed</div>
                  <div>Valkendael 45 2 hoog, 6245 HK Maastricht (Werk)</div>
               </div>
            </text>
            <identifier>
               <system value="http://fhir.nl/fhir/NamingSystem/uzi-nr-pers"/>
               <value value="222222223"/>
            </identifier>
            <name>
               <extension url="http://hl7.org/fhir/StructureDefinition/humanname-assembly-order">
                  <valueCode value="NL1"/>
               </extension>
               <family value="Orthopeed">
                  <extension url="http://hl7.org/fhir/StructureDefinition/humanname-own-name">
                     <valueString value="Orthopeed"/>
                  </extension>
               </family>
               <given value="O.">
                  <extension url="http://hl7.org/fhir/StructureDefinition/iso21090-EN-qualifier">
                     <valueCode value="IN"/>
                  </extension>
               </given>
            </name>
            <address>
               <use value="work"/>
               <line value="Valkendael 45 2 hoog">
                  <extension url="http://hl7.org/fhir/StructureDefinition/iso21090-ADXP-streetName">
                     <valueString value="Valkendael"/>
                  </extension>
                  <extension url="http://hl7.org/fhir/StructureDefinition/iso21090-ADXP-houseNumber">
                     <valueString value="45"/>
                  </extension>
                  <extension url="http://hl7.org/fhir/StructureDefinition/iso21090-ADXP-buildingNumberSuffix">
                     <valueString value="2 hoog"/>
                  </extension>
               </line>
               <city value="Maastricht"/>
               <postalCode value="6245 HK"/>
            </address>
         </Practitioner>
      </resource>
      <search>
         <mode value="include"/>
      </search>
   </entry>
   <entry>
      <fullUrl value="urn:oid:2.16.528.1.1007.3.1.333333334"/>
      <resource>
         <Practitioner>
            <meta>
               <profile value="http://fhir.nl/fhir/StructureDefinition/nl-core-practitioner"/>
            </meta>
            <text>
               <status value="generated"/>
               <div xmlns="http://www.w3.org/1999/xhtml">
                  <div>Id 333333334 (UZI-NR-PERS), S. Calpel</div>
                  <div>Valkendael 45 3 hoog, 6245 HK Maastricht (Werk)</div>
               </div>
            </text>
            <identifier>
               <system value="http://fhir.nl/fhir/NamingSystem/uzi-nr-pers"/>
               <value value="333333334"/>
            </identifier>
            <name>
               <extension url="http://hl7.org/fhir/StructureDefinition/humanname-assembly-order">
                  <valueCode value="NL1"/>
               </extension>
               <family value="Calpel">
                  <extension url="http://hl7.org/fhir/StructureDefinition/humanname-own-name">
                     <valueString value="Calpel"/>
                  </extension>
               </family>
               <given value="S.">
                  <extension url="http://hl7.org/fhir/StructureDefinition/iso21090-EN-qualifier">
                     <valueCode value="IN"/>
                  </extension>
               </given>
            </name>
            <address>
               <use value="work"/>
               <line value="Valkendael 45 3 hoog">
                  <extension url="http://hl7.org/fhir/StructureDefinition/iso21090-ADXP-streetName">
                     <valueString value="Valkendael"/>
                  </extension>
                  <extension url="http://hl7.org/fhir/StructureDefinition/iso21090-ADXP-houseNumber">
                     <valueString value="45"/>
                  </extension>
                  <extension url="http://hl7.org/fhir/StructureDefinition/iso21090-ADXP-buildingNumberSuffix">
                     <valueString value="3 hoog"/>
                  </extension>
               </line>
               <city value="Maastricht"/>
               <postalCode value="6245 HK"/>
            </address>
         </Practitioner>
      </resource>
      <search>
         <mode value="include"/>
      </search>
   </entry>
   <entry>
      <fullUrl value="urn:oid:2.16.528.1.1007.3.3.3999999"/>
      <resource>
         <Organization>
            <meta>
               <profile value="http://fhir.nl/fhir/StructureDefinition/nl-core-organization"/>
            </meta>
            <text>
               <status value="generated"/>
               <div xmlns="http://www.w3.org/1999/xhtml">
                  <table>
                     <caption>OrganisatieId: 03999999 (URA)</caption>
                     <tbody>
                        <tr>
                           <th>Naam</th>
                           <td>Test Medisch Centrum</td>
                        </tr>
                        <tr>
                           <th>Type</th>
                           <td>
                              <span title="Zelfstandig behandelcentrum (Z4 - RoleCodeNL Zorgaanbiedertype)">Zelfstandig behandelcentrum</span>
                           </td>
                        </tr>
                        <tr>
                           <th>Adres</th>
                           <td>Valkendael 45, 6245 HK Maastricht (Werk)</td>
                        </tr>
                     </tbody>
                  </table>
               </div>
            </text>
            <identifier>
               <system value="http://fhir.nl/fhir/NamingSystem/ura"/>
               <value value="03999999"/>
            </identifier>
            <type>
               <coding>
                  <system value="urn:oid:2.16.840.1.113883.2.4.15.1060"/>
                  <code value="Z4"/>
                  <display value="Zelfstandig behandelcentrum"/>
               </coding>
            </type>
            <name value="Test Medisch Centrum"/>
            <address>
               <use value="work"/>
               <line value="Valkendael 45">
                  <extension url="http://hl7.org/fhir/StructureDefinition/iso21090-ADXP-streetName">
                     <valueString value="Valkendael"/>
                  </extension>
                  <extension url="http://hl7.org/fhir/StructureDefinition/iso21090-ADXP-houseNumber">
                     <valueString value="45"/>
                  </extension>
               </line>
               <city value="Maastricht"/>
               <postalCode value="6245 HK"/>
            </address>
         </Organization>
      </resource>
      <search>
         <mode value="include"/>
      </search>
   </entry>
   <entry>
      <fullUrl value="urn:uuid:e81c8188-afdd-11ea-4554-020000000000"/>
      <resource>
         <PractitionerRole>
            <meta>
               <profile value="http://fhir.nl/fhir/StructureDefinition/nl-core-practitionerrole"/>
            </meta>
            <text>
               <status value="generated"/>
               <div xmlns="http://www.w3.org/1999/xhtml">
                  <table>
                     <caption>Zorgverlenerrol</caption>
                     <tbody>
                        <tr>
                           <th>Zorgverlener</th>
                           <td>
                              <div>I.N. ter Nist</div>
                              <div>Test Medisch Centrum</div>
                           </td>
                        </tr>
                        <tr>
                           <th>Specialisme</th>
                           <td>
                              <span title="Medisch specialisten, inwendige geneeskunde (0313 - AGB-medisch specialisme)">Medisch specialisten, inwendige geneeskunde</span>
                           </td>
                        </tr>
                     </tbody>
                  </table>
               </div>
            </text>
            <practitioner>
               <reference value="urn:oid:2.16.528.1.1007.3.1.111111112"/>
               <display value="I.N. ter Nist"/>
            </practitioner>
            <organization>
               <reference value="urn:oid:2.16.528.1.1007.3.3.3999999"/>
               <display value="Test Medisch Centrum"/>
            </organization>
            <specialty>
               <coding>
                  <system value="urn:oid:2.16.840.1.113883.2.4.6.7"/>
                  <version value="2017-12-14T00:00:00"/>
                  <code value="0313"/>
                  <display value="Medisch specialisten, inwendige geneeskunde"/>
               </coding>
            </specialty>
         </PractitionerRole>
      </resource>
      <search>
         <mode value="include"/>
      </search>
   </entry>
   <entry>
      <fullUrl value="urn:uuid:e81c81bd-afdd-11ea-4554-020000000000"/>
      <resource>
         <PractitionerRole>
            <meta>
               <profile value="http://fhir.nl/fhir/StructureDefinition/nl-core-practitionerrole"/>
            </meta>
            <text>
               <status value="generated"/>
               <div xmlns="http://www.w3.org/1999/xhtml">
                  <table>
                     <caption>Zorgverlenerrol</caption>
                     <tbody>
                        <tr>
                           <th>Zorgverlener</th>
                           <td>
                              <div>O. Orthopeed</div>
                              <div>Test Medisch Centrum</div>
                           </td>
                        </tr>
                        <tr>
                           <th>Specialisme</th>
                           <td>
                              <span title="Medisch specialisten, orthopedie (0305 - AGB-medisch specialisme)">Medisch specialisten, orthopedie</span>
                           </td>
                        </tr>
                     </tbody>
                  </table>
               </div>
            </text>
            <practitioner>
               <reference value="urn:oid:2.16.528.1.1007.3.1.222222223"/>
               <display value="O. Orthopeed"/>
            </practitioner>
            <organization>
               <reference value="urn:oid:2.16.528.1.1007.3.3.3999999"/>
               <display value="Test Medisch Centrum"/>
            </organization>
            <specialty>
               <coding>
                  <system value="urn:oid:2.16.840.1.113883.2.4.6.7"/>
                  <version value="2017-12-14T00:00:00"/>
                  <code value="0305"/>
                  <display value="Medisch specialisten, orthopedie"/>
               </coding>
            </specialty>
         </PractitionerRole>
      </resource>
      <search>
         <mode value="include"/>
      </search>
   </entry>
   <entry>
      <fullUrl value="urn:uuid:e81c81a9-afdd-11ea-4554-020000000000"/>
      <resource>
         <PractitionerRole>
            <meta>
               <profile value="http://fhir.nl/fhir/StructureDefinition/nl-core-practitionerrole"/>
            </meta>
            <text>
               <status value="generated"/>
               <div xmlns="http://www.w3.org/1999/xhtml">
                  <table>
                     <caption>Zorgverlenerrol</caption>
                     <tbody>
                        <tr>
                           <th>Zorgverlener</th>
                           <td>
                              <div>S. Calpel</div>
                              <div>Test Medisch Centrum</div>
                           </td>
                        </tr>
                        <tr>
                           <th>Specialisme</th>
                           <td>
                              <span title="Medisch specialisten, chirurgie (0303 - AGB-medisch specialisme)">Medisch specialisten, chirurgie</span>
                           </td>
                        </tr>
                     </tbody>
                  </table>
               </div>
            </text>
            <practitioner>
               <reference value="urn:oid:2.16.528.1.1007.3.1.333333334"/>
               <display value="S. Calpel"/>
            </practitioner>
            <organization>
               <reference value="urn:oid:2.16.528.1.1007.3.3.3999999"/>
               <display value="Test Medisch Centrum"/>
            </organization>
            <specialty>
               <coding>
                  <system value="urn:oid:2.16.840.1.113883.2.4.6.7"/>
                  <version value="2017-12-14T00:00:00"/>
                  <code value="0303"/>
                  <display value="Medisch specialisten, chirurgie"/>
               </coding>
            </specialty>
         </PractitionerRole>
      </resource>
      <search>
         <mode value="include"/>
      </search>
   </entry>
   <entry>
      <fullUrl value="urn:uuid:e81c8a3d-afdd-11ea-4554-020000000000"/>
      <resource>
         <RelatedPerson>
            <meta>
               <profile value="http://fhir.nl/fhir/StructureDefinition/nl-core-relatedperson"/>
            </meta>
            <text>
               <status value="generated"/>
               <div xmlns="http://www.w3.org/1999/xhtml">
                  <div>Meike M.G.J. van Hoof</div>
                  <div>
                     <a href="tel:06-12345678">06-12345678</a> (Tel Mobiel), <a href="mailto:m.vanhoof@werkmail.nl">m.vanhoof@werkmail.nl</a> (E-mail Werk)</div>
                  <div>Heuvellaan 10 b, 9999 XX Ons Dorp (Privé Bezoek)</div>
                  <div>
                     <span title="Eerste relatie/contactpersoon (1 - RoleCodeLijst (COD472-VEKT))">Eerste relatie/contactpersoon</span> van M.P.H. Mike XXX_Smits</div>
               </div>
            </text>
            <extension url="http://fhir.nl/fhir/StructureDefinition/nl-core-relatedperson-role">
               <valueCodeableConcept>
                  <coding>
                     <system value="urn:oid:2.16.840.1.113883.2.4.3.11.22.472"/>
                     <code value="1"/>
                     <display value="Eerste relatie/contactpersoon"/>
                  </coding>
               </valueCodeableConcept>
            </extension>
            <patient>
               <reference value="urn:uuid:e81c74df-afdd-11ea-4554-020000000000"/>
               <display value="M.P.H. Mike XXX_Smits"/>
            </patient>
            <name>
               <extension url="http://hl7.org/fhir/StructureDefinition/humanname-assembly-order">
                  <valueCode value="NL1"/>
               </extension>
               <family value="van Hoof">
                  <extension url="http://hl7.org/fhir/StructureDefinition/humanname-own-prefix">
                     <valueString value="van"/>
                  </extension>
                  <extension url="http://hl7.org/fhir/StructureDefinition/humanname-own-name">
                     <valueString value="Hoof"/>
                  </extension>
               </family>
               <given value="Meike">
                  <extension url="http://hl7.org/fhir/StructureDefinition/iso21090-EN-qualifier">
                     <valueCode value="BR"/>
                  </extension>
               </given>
               <given value="M.G.J.">
                  <extension url="http://hl7.org/fhir/StructureDefinition/iso21090-EN-qualifier">
                     <valueCode value="IN"/>
                  </extension>
               </given>
            </name>
            <telecom>
               <system value="phone">
                  <extension url="http://nictiz.nl/fhir/StructureDefinition/code-specification">
                     <valueCodeableConcept>
                        <coding>
                           <system value="http://hl7.org/fhir/v3/AddressUse"/>
                           <code value="MC"/>
                           <display value="Mobiel telefoonnummer"/>
                        </coding>
                     </valueCodeableConcept>
                  </extension>
               </system>
               <value value="06-12345678"/>
               <use value="mobile">
                  <extension url="http://nictiz.nl/fhir/StructureDefinition/code-specification">
                     <valueCodeableConcept>
                        <coding>
                           <system value="http://hl7.org/fhir/v3/AddressUse"/>
                           <code value="WP"/>
                           <display value="Zakelijk telefoonnummer"/>
                        </coding>
                     </valueCodeableConcept>
                  </extension>
               </use>
            </telecom>
            <telecom>
               <system value="email"/>
               <value value="m.vanhoof@werkmail.nl"/>
               <use value="work">
                  <extension url="http://nictiz.nl/fhir/StructureDefinition/code-specification">
                     <valueCodeableConcept>
                        <coding>
                           <system value="http://hl7.org/fhir/v3/AddressUse"/>
                           <code value="WP"/>
                           <display value="Zakelijk e-mailadres"/>
                        </coding>
                     </valueCodeableConcept>
                  </extension>
               </use>
            </telecom>
            <address>
               <extension url="http://hl7.org/fhir/StructureDefinition/iso21090-AD-use">
                  <valueCode value="PHYS"/>
               </extension>
               <use value="home"/>
               <type value="physical"/>
               <line value="Heuvellaan 10 b">
                  <extension url="http://hl7.org/fhir/StructureDefinition/iso21090-ADXP-streetName">
                     <valueString value="Heuvellaan"/>
                  </extension>
                  <extension url="http://hl7.org/fhir/StructureDefinition/iso21090-ADXP-houseNumber">
                     <valueString value="10"/>
                  </extension>
                  <extension url="http://hl7.org/fhir/StructureDefinition/iso21090-ADXP-buildingNumberSuffix">
                     <valueString value="b"/>
                  </extension>
               </line>
               <city value="Ons Dorp"/>
               <postalCode value="9999 XX"/>
            </address>
         </RelatedPerson>
      </resource>
      <search>
         <mode value="include"/>
      </search>
   </entry>
</Bundle>
