<?xml-model href="http://hl7.org/fhir/STU3/bundle.sch" type="application/xml" schematypens="http://purl.oclc.org/dsdl/schematron"?><Bundle xmlns="http://hl7.org/fhir"
        xmlns:xsi="http://www.w3.org/2001/XMLSchema-instance"
        xsi:schemaLocation="http://hl7.org/fhir http://hl7.org/fhir/STU3/fhir-all.xsd">
   <type value="searchset"/>
   <total value="24"/>
   <entry>
      <fullUrl value="urn:oid:2.16.840.1.113883.2.4.6.6.90000258.4.7.21103"/>
      <resource>
         <Observation>
            <meta>
               <profile value="http://nictiz.nl/fhir/StructureDefinition/gp-DiagnosticResult"/>
            </meta>
            <identifier>
               <system value="urn:oid:2.16.840.1.113883.2.4.6.6.90000258.4.7"/>
               <value value="21103"/>
            </identifier>
            <status value="final"/>
            <code>
               <coding>
                  <system value="https://referentiemodel.nhg.org/tabellen/nhg-tabel-45-diagnostische-bepalingen"/>
                  <code value="1744"/>
                  <display value="systolische bloeddruk"/>
               </coding>
            </code>
            <subject>
               <reference value="urn:uuid:4e2b1d46-ab72-11e9-1480-28f10e481d92"/>
               <display value="E. XXX_Zegers"/>
            </subject>
            <effectiveDateTime value="2017-07-09"/>
            <performer>
               <extension url="http://nictiz.nl/fhir/StructureDefinition/practitionerrole-reference">
                  <valueReference>
                     <reference value="urn:uuid:4e2b1d53-ab72-11e9-1480-28f10e481d92"/>
                     <display value="Responsible Party"/>
                  </valueReference>
               </extension>
               <reference value="urn:oid:2.16.528.1.1007.3.1.900014718"/>
               <display value="Responsible Party"/>
            </performer>
            <valueQuantity>
               <value value="184"/>
               <unit value="mm[Hg]"/>
               <system value="http://unitsofmeasure.org"/>
               <code value="mm[Hg]"/>
            </valueQuantity>
            <interpretation>
               <coding>
                  <system value="http://hl7.org/fhir/v3/ObservationInterpretation"/>
                  <code value="H"/>
                  <display value="High"/>
               </coding>
            </interpretation>
         </Observation>
      </resource>
      <search>
         <mode value="match"/>
      </search>
   </entry>
   <entry>
      <fullUrl value="urn:oid:2.16.840.1.113883.2.4.6.6.90000258.4.7.21104"/>
      <resource>
         <Observation>
            <meta>
               <profile value="http://nictiz.nl/fhir/StructureDefinition/gp-DiagnosticResult"/>
            </meta>
            <identifier>
               <system value="urn:oid:2.16.840.1.113883.2.4.6.6.90000258.4.7"/>
               <value value="21104"/>
            </identifier>
            <status value="final"/>
            <code>
               <coding>
                  <system value="https://referentiemodel.nhg.org/tabellen/nhg-tabel-45-diagnostische-bepalingen"/>
                  <code value="1740"/>
                  <display value="diastolische bloeddruk"/>
               </coding>
            </code>
            <subject>
               <reference value="urn:uuid:4e2b1d46-ab72-11e9-1480-28f10e481d92"/>
               <display value="E. XXX_Zegers"/>
            </subject>
            <effectiveDateTime value="2017-07-09"/>
            <performer>
               <extension url="http://nictiz.nl/fhir/StructureDefinition/practitionerrole-reference">
                  <valueReference>
                     <reference value="urn:uuid:4e2b1d53-ab72-11e9-1480-28f10e481d92"/>
                     <display value="Responsible Party"/>
                  </valueReference>
               </extension>
               <reference value="urn:oid:2.16.528.1.1007.3.1.900014718"/>
               <display value="Responsible Party"/>
            </performer>
            <valueQuantity>
               <value value="93"/>
               <unit value="mm[Hg]"/>
               <system value="http://unitsofmeasure.org"/>
               <code value="mm[Hg]"/>
            </valueQuantity>
            <interpretation>
               <coding>
                  <system value="http://hl7.org/fhir/v3/ObservationInterpretation"/>
                  <code value="H"/>
                  <display value="High"/>
               </coding>
            </interpretation>
         </Observation>
      </resource>
      <search>
         <mode value="match"/>
      </search>
   </entry>
   <entry>
      <fullUrl value="urn:oid:2.16.840.1.113883.2.4.6.6.90000258.4.7.21105"/>
      <resource>
         <Observation>
            <meta>
               <profile value="http://nictiz.nl/fhir/StructureDefinition/gp-DiagnosticResult"/>
            </meta>
            <identifier>
               <system value="urn:oid:2.16.840.1.113883.2.4.6.6.90000258.4.7"/>
               <value value="21105"/>
            </identifier>
            <status value="final"/>
            <code>
               <coding>
                  <system value="https://referentiemodel.nhg.org/tabellen/nhg-tabel-45-diagnostische-bepalingen"/>
                  <code value="1875"/>
                  <display value="polsfrequentie"/>
               </coding>
            </code>
            <subject>
               <reference value="urn:uuid:4e2b1d46-ab72-11e9-1480-28f10e481d92"/>
               <display value="E. XXX_Zegers"/>
            </subject>
            <effectiveDateTime value="2017-07-09"/>
            <performer>
               <extension url="http://nictiz.nl/fhir/StructureDefinition/practitionerrole-reference">
                  <valueReference>
                     <reference value="urn:uuid:4e2b1d53-ab72-11e9-1480-28f10e481d92"/>
                     <display value="Responsible Party"/>
                  </valueReference>
               </extension>
               <reference value="urn:oid:2.16.528.1.1007.3.1.900014718"/>
               <display value="Responsible Party"/>
            </performer>
            <valueQuantity>
               <value value="120"/>
               <unit value="/min"/>
               <system value="http://unitsofmeasure.org"/>
               <code value="/min"/>
            </valueQuantity>
            <interpretation>
               <coding>
                  <system value="http://hl7.org/fhir/v3/ObservationInterpretation"/>
                  <code value="H"/>
                  <display value="High"/>
               </coding>
            </interpretation>
         </Observation>
      </resource>
      <search>
         <mode value="match"/>
      </search>
   </entry>
   <entry>
      <fullUrl value="urn:oid:2.16.840.1.113883.2.4.6.6.90000258.4.7.21106"/>
      <resource>
         <Observation>
            <meta>
               <profile value="http://nictiz.nl/fhir/StructureDefinition/gp-DiagnosticResult"/>
            </meta>
            <identifier>
               <system value="urn:oid:2.16.840.1.113883.2.4.6.6.90000258.4.7"/>
               <value value="21106"/>
            </identifier>
            <status value="final"/>
            <code>
               <coding>
                  <system value="https://referentiemodel.nhg.org/tabellen/nhg-tabel-45-diagnostische-bepalingen"/>
                  <code value="2102"/>
                  <display value="polsritme"/>
               </coding>
            </code>
            <subject>
               <reference value="urn:uuid:4e2b1d46-ab72-11e9-1480-28f10e481d92"/>
               <display value="E. XXX_Zegers"/>
            </subject>
            <effectiveDateTime value="2017-07-09"/>
            <performer>
               <extension url="http://nictiz.nl/fhir/StructureDefinition/practitionerrole-reference">
                  <valueReference>
                     <reference value="urn:uuid:4e2b1d53-ab72-11e9-1480-28f10e481d92"/>
                     <display value="Responsible Party"/>
                  </valueReference>
               </extension>
               <reference value="urn:oid:2.16.528.1.1007.3.1.900014718"/>
               <display value="Responsible Party"/>
            </performer>
            <valueCodeableConcept>
               <coding>
                  <system value="https://referentiemodel.nhg.org/tabellen/nhg-tabel-45-diagnostische-bepalingen#resultaten"/>
                  <code value="202"/>
                  <display value="irregulair"/>
               </coding>
            </valueCodeableConcept>
         </Observation>
      </resource>
      <search>
         <mode value="match"/>
      </search>
   </entry>
   <entry>
      <fullUrl value="urn:oid:2.16.840.1.113883.2.4.6.6.90000258.4.7.21107"/>
      <resource>
         <Observation>
            <meta>
               <profile value="http://nictiz.nl/fhir/StructureDefinition/gp-DiagnosticResult"/>
            </meta>
            <identifier>
               <system value="urn:oid:2.16.840.1.113883.2.4.6.6.90000258.4.7"/>
               <value value="21107"/>
            </identifier>
            <status value="final"/>
            <code>
               <coding>
                  <system value="https://referentiemodel.nhg.org/tabellen/nhg-tabel-45-diagnostische-bepalingen"/>
                  <code value="2126"/>
                  <display value="pols opmerkingen"/>
               </coding>
            </code>
            <subject>
               <reference value="urn:uuid:4e2b1d46-ab72-11e9-1480-28f10e481d92"/>
               <display value="E. XXX_Zegers"/>
            </subject>
            <effectiveDateTime value="2017-07-09"/>
            <performer>
               <extension url="http://nictiz.nl/fhir/StructureDefinition/practitionerrole-reference">
                  <valueReference>
                     <reference value="urn:uuid:4e2b1d53-ab72-11e9-1480-28f10e481d92"/>
                     <display value="Responsible Party"/>
                  </valueReference>
               </extension>
               <reference value="urn:oid:2.16.528.1.1007.3.1.900014718"/>
               <display value="Responsible Party"/>
            </performer>
            <valueString value="linker pols C01@ST-600@"/>
         </Observation>
      </resource>
      <search>
         <mode value="match"/>
      </search>
   </entry>
   <entry>
      <fullUrl value="urn:oid:2.16.840.1.113883.2.4.6.6.90000258.4.7.21108"/>
      <resource>
         <Observation>
            <meta>
               <profile value="http://nictiz.nl/fhir/StructureDefinition/gp-DiagnosticResult"/>
            </meta>
            <identifier>
               <system value="urn:oid:2.16.840.1.113883.2.4.6.6.90000258.4.7"/>
               <value value="21108"/>
            </identifier>
            <status value="final"/>
            <code>
               <coding>
                  <system value="https://referentiemodel.nhg.org/tabellen/nhg-tabel-45-diagnostische-bepalingen"/>
                  <code value="1744"/>
                  <display value="systolische bloeddruk"/>
               </coding>
            </code>
            <subject>
               <reference value="urn:uuid:4e2b1d46-ab72-11e9-1480-28f10e481d92"/>
               <display value="E. XXX_Zegers"/>
            </subject>
            <effectiveDateTime value="2019-01-30"/>
            <performer>
               <extension url="http://nictiz.nl/fhir/StructureDefinition/practitionerrole-reference">
                  <valueReference>
                     <reference value="urn:uuid:4e2b1d53-ab72-11e9-1480-28f10e481d92"/>
                     <display value="Responsible Party"/>
                  </valueReference>
               </extension>
               <reference value="urn:oid:2.16.528.1.1007.3.1.900014718"/>
               <display value="Responsible Party"/>
            </performer>
            <valueQuantity>
               <value value="180"/>
               <unit value="mm[Hg]"/>
               <system value="http://unitsofmeasure.org"/>
               <code value="mm[Hg]"/>
            </valueQuantity>
            <interpretation>
               <coding>
                  <system value="http://hl7.org/fhir/v3/ObservationInterpretation"/>
                  <code value="H"/>
                  <display value="High"/>
               </coding>
            </interpretation>
         </Observation>
      </resource>
      <search>
         <mode value="match"/>
      </search>
   </entry>
   <entry>
      <fullUrl value="urn:oid:2.16.840.1.113883.2.4.6.6.90000258.4.7.21109"/>
      <resource>
         <Observation>
            <meta>
               <profile value="http://nictiz.nl/fhir/StructureDefinition/gp-DiagnosticResult"/>
            </meta>
            <identifier>
               <system value="urn:oid:2.16.840.1.113883.2.4.6.6.90000258.4.7"/>
               <value value="21109"/>
            </identifier>
            <status value="final"/>
            <code>
               <coding>
                  <system value="https://referentiemodel.nhg.org/tabellen/nhg-tabel-45-diagnostische-bepalingen"/>
                  <code value="1740"/>
                  <display value="diastolische bloeddruk"/>
               </coding>
            </code>
            <subject>
               <reference value="urn:uuid:4e2b1d46-ab72-11e9-1480-28f10e481d92"/>
               <display value="E. XXX_Zegers"/>
            </subject>
            <effectiveDateTime value="2019-01-30"/>
            <performer>
               <extension url="http://nictiz.nl/fhir/StructureDefinition/practitionerrole-reference">
                  <valueReference>
                     <reference value="urn:uuid:4e2b1d53-ab72-11e9-1480-28f10e481d92"/>
                     <display value="Responsible Party"/>
                  </valueReference>
               </extension>
               <reference value="urn:oid:2.16.528.1.1007.3.1.900014718"/>
               <display value="Responsible Party"/>
            </performer>
            <valueQuantity>
               <value value="89"/>
               <unit value="mm[Hg]"/>
               <system value="http://unitsofmeasure.org"/>
               <code value="mm[Hg]"/>
            </valueQuantity>
            <interpretation>
               <coding>
                  <system value="http://hl7.org/fhir/v3/ObservationInterpretation"/>
                  <code value="N"/>
                  <display value="Normal"/>
               </coding>
            </interpretation>
         </Observation>
      </resource>
      <search>
         <mode value="match"/>
      </search>
   </entry>
   <entry>
      <fullUrl value="urn:oid:2.16.840.1.113883.2.4.6.6.90000258.4.7.21110"/>
      <resource>
         <Observation>
            <meta>
               <profile value="http://nictiz.nl/fhir/StructureDefinition/gp-DiagnosticResult"/>
            </meta>
            <identifier>
               <system value="urn:oid:2.16.840.1.113883.2.4.6.6.90000258.4.7"/>
               <value value="21110"/>
            </identifier>
            <status value="final"/>
            <code>
               <coding>
                  <system value="https://referentiemodel.nhg.org/tabellen/nhg-tabel-45-diagnostische-bepalingen"/>
                  <code value="2102"/>
                  <display value="polsritme"/>
               </coding>
            </code>
            <subject>
               <reference value="urn:uuid:4e2b1d46-ab72-11e9-1480-28f10e481d92"/>
               <display value="E. XXX_Zegers"/>
            </subject>
            <effectiveDateTime value="2019-01-30"/>
            <performer>
               <extension url="http://nictiz.nl/fhir/StructureDefinition/practitionerrole-reference">
                  <valueReference>
                     <reference value="urn:uuid:4e2b1d53-ab72-11e9-1480-28f10e481d92"/>
                     <display value="Responsible Party"/>
                  </valueReference>
               </extension>
               <reference value="urn:oid:2.16.528.1.1007.3.1.900014718"/>
               <display value="Responsible Party"/>
            </performer>
            <valueCodeableConcept>
               <coding>
                  <system value="https://referentiemodel.nhg.org/tabellen/nhg-tabel-45-diagnostische-bepalingen#resultaten"/>
                  <code value="201"/>
                  <display value="regulair"/>
               </coding>
            </valueCodeableConcept>
         </Observation>
      </resource>
      <search>
         <mode value="match"/>
      </search>
   </entry>
   <entry>
      <fullUrl value="urn:oid:2.16.840.1.113883.2.4.6.6.90000258.4.7.21111"/>
      <resource>
         <Observation>
            <meta>
               <profile value="http://nictiz.nl/fhir/StructureDefinition/gp-DiagnosticResult"/>
            </meta>
            <identifier>
               <system value="urn:oid:2.16.840.1.113883.2.4.6.6.90000258.4.7"/>
               <value value="21111"/>
            </identifier>
            <status value="final"/>
            <code>
               <coding>
                  <system value="https://referentiemodel.nhg.org/tabellen/nhg-tabel-45-diagnostische-bepalingen"/>
                  <code value="560"/>
                  <display value="lengte patiënt"/>
               </coding>
            </code>
            <subject>
               <reference value="urn:uuid:4e2b1d46-ab72-11e9-1480-28f10e481d92"/>
               <display value="E. XXX_Zegers"/>
            </subject>
            <effectiveDateTime value="2019-01-30"/>
            <performer>
               <extension url="http://nictiz.nl/fhir/StructureDefinition/practitionerrole-reference">
                  <valueReference>
                     <reference value="urn:uuid:4e2b1d53-ab72-11e9-1480-28f10e481d92"/>
                     <display value="Responsible Party"/>
                  </valueReference>
               </extension>
               <reference value="urn:oid:2.16.528.1.1007.3.1.900014718"/>
               <display value="Responsible Party"/>
            </performer>
            <valueQuantity>
               <value value="1.72"/>
               <unit value="m"/>
               <system value="http://unitsofmeasure.org"/>
               <code value="m"/>
            </valueQuantity>
         </Observation>
      </resource>
      <search>
         <mode value="match"/>
      </search>
   </entry>
   <entry>
      <fullUrl value="urn:oid:2.16.840.1.113883.2.4.6.6.90000258.4.7.21112"/>
      <resource>
         <Observation>
            <meta>
               <profile value="http://nictiz.nl/fhir/StructureDefinition/gp-DiagnosticResult"/>
            </meta>
            <identifier>
               <system value="urn:oid:2.16.840.1.113883.2.4.6.6.90000258.4.7"/>
               <value value="21112"/>
            </identifier>
            <status value="final"/>
            <code>
               <coding>
                  <system value="https://referentiemodel.nhg.org/tabellen/nhg-tabel-45-diagnostische-bepalingen"/>
                  <code value="357"/>
                  <display value="gewicht patiënt"/>
               </coding>
            </code>
            <subject>
               <reference value="urn:uuid:4e2b1d46-ab72-11e9-1480-28f10e481d92"/>
               <display value="E. XXX_Zegers"/>
            </subject>
            <effectiveDateTime value="2019-01-30"/>
            <performer>
               <extension url="http://nictiz.nl/fhir/StructureDefinition/practitionerrole-reference">
                  <valueReference>
                     <reference value="urn:uuid:4e2b1d53-ab72-11e9-1480-28f10e481d92"/>
                     <display value="Responsible Party"/>
                  </valueReference>
               </extension>
               <reference value="urn:oid:2.16.528.1.1007.3.1.900014718"/>
               <display value="Responsible Party"/>
            </performer>
            <valueQuantity>
               <value value="80"/>
               <unit value="kg"/>
               <system value="http://unitsofmeasure.org"/>
               <code value="kg"/>
            </valueQuantity>
         </Observation>
      </resource>
      <search>
         <mode value="match"/>
      </search>
   </entry>
   <entry>
      <fullUrl value="urn:oid:2.16.840.1.113883.2.4.6.6.90000258.4.7.21113"/>
      <resource>
         <Observation>
            <meta>
               <profile value="http://nictiz.nl/fhir/StructureDefinition/gp-DiagnosticResult"/>
            </meta>
            <identifier>
               <system value="urn:oid:2.16.840.1.113883.2.4.6.6.90000258.4.7"/>
               <value value="21113"/>
            </identifier>
            <status value="final"/>
            <code>
               <coding>
                  <system value="https://referentiemodel.nhg.org/tabellen/nhg-tabel-45-diagnostische-bepalingen"/>
                  <code value="1589"/>
                  <display value="ademhalingsfrequentie"/>
               </coding>
            </code>
            <subject>
               <reference value="urn:uuid:4e2b1d46-ab72-11e9-1480-28f10e481d92"/>
               <display value="E. XXX_Zegers"/>
            </subject>
            <effectiveDateTime value="2019-01-30"/>
            <performer>
               <extension url="http://nictiz.nl/fhir/StructureDefinition/practitionerrole-reference">
                  <valueReference>
                     <reference value="urn:uuid:4e2b1d53-ab72-11e9-1480-28f10e481d92"/>
                     <display value="Responsible Party"/>
                  </valueReference>
               </extension>
               <reference value="urn:oid:2.16.528.1.1007.3.1.900014718"/>
               <display value="Responsible Party"/>
            </performer>
            <valueQuantity>
               <value value="19"/>
               <unit value="/min"/>
               <system value="http://unitsofmeasure.org"/>
               <code value="/min"/>
            </valueQuantity>
            <interpretation>
               <coding>
                  <system value="http://hl7.org/fhir/v3/ObservationInterpretation"/>
                  <code value="N"/>
                  <display value="Normal"/>
               </coding>
            </interpretation>
         </Observation>
      </resource>
      <search>
         <mode value="match"/>
      </search>
   </entry>
   <entry>
      <fullUrl value="urn:oid:2.16.840.1.113883.2.4.6.6.90000258.4.7.21114"/>
      <resource>
         <Observation>
            <meta>
               <profile value="http://nictiz.nl/fhir/StructureDefinition/gp-DiagnosticResult"/>
            </meta>
            <identifier>
               <system value="urn:oid:2.16.840.1.113883.2.4.6.6.90000258.4.7"/>
               <value value="21114"/>
            </identifier>
            <status value="final"/>
            <code>
               <coding>
                  <system value="https://referentiemodel.nhg.org/tabellen/nhg-tabel-45-diagnostische-bepalingen"/>
                  <code value="1675"/>
                  <display value="FEV1/FVC ratio pré-BD"/>
               </coding>
            </code>
            <subject>
               <reference value="urn:uuid:4e2b1d46-ab72-11e9-1480-28f10e481d92"/>
               <display value="E. XXX_Zegers"/>
            </subject>
            <effectiveDateTime value="2019-01-30"/>
            <performer>
               <extension url="http://nictiz.nl/fhir/StructureDefinition/practitionerrole-reference">
                  <valueReference>
                     <reference value="urn:uuid:4e2b1d53-ab72-11e9-1480-28f10e481d92"/>
                     <display value="Responsible Party"/>
                  </valueReference>
               </extension>
               <reference value="urn:oid:2.16.528.1.1007.3.1.900014718"/>
               <display value="Responsible Party"/>
            </performer>
            <valueQuantity>
               <value value="66"/>
               <unit value="%"/>
               <system value="http://unitsofmeasure.org"/>
               <code value="%"/>
            </valueQuantity>
            <interpretation>
               <coding>
                  <system value="http://hl7.org/fhir/v3/ObservationInterpretation"/>
                  <code value="L"/>
                  <display value="Low"/>
               </coding>
            </interpretation>
         </Observation>
      </resource>
      <search>
         <mode value="match"/>
      </search>
   </entry>
   <entry>
      <fullUrl value="urn:oid:2.16.840.1.113883.2.4.6.6.90000258.4.7.21115"/>
      <resource>
         <Observation>
            <meta>
               <profile value="http://nictiz.nl/fhir/StructureDefinition/gp-DiagnosticResult"/>
            </meta>
            <identifier>
               <system value="urn:oid:2.16.840.1.113883.2.4.6.6.90000258.4.7"/>
               <value value="21115"/>
            </identifier>
            <status value="final"/>
            <code>
               <coding>
                  <system value="https://referentiemodel.nhg.org/tabellen/nhg-tabel-45-diagnostische-bepalingen"/>
                  <code value="1704"/>
                  <display value="conclusie longfunctieonderzoek"/>
               </coding>
            </code>
            <subject>
               <reference value="urn:uuid:4e2b1d46-ab72-11e9-1480-28f10e481d92"/>
               <display value="E. XXX_Zegers"/>
            </subject>
            <effectiveDateTime value="2019-01-30"/>
            <performer>
               <extension url="http://nictiz.nl/fhir/StructureDefinition/practitionerrole-reference">
                  <valueReference>
                     <reference value="urn:uuid:4e2b1d53-ab72-11e9-1480-28f10e481d92"/>
                     <display value="Responsible Party"/>
                  </valueReference>
               </extension>
               <reference value="urn:oid:2.16.528.1.1007.3.1.900014718"/>
               <display value="Responsible Party"/>
            </performer>
            <valueString value="CPOD C03@ST-30@"/>
         </Observation>
      </resource>
      <search>
         <mode value="match"/>
      </search>
   </entry>
   <entry>
      <fullUrl value="urn:oid:2.16.840.1.113883.2.4.6.6.90000258.4.7.21116"/>
      <resource>
         <Observation>
            <meta>
               <profile value="http://nictiz.nl/fhir/StructureDefinition/gp-DiagnosticResult"/>
            </meta>
            <identifier>
               <system value="urn:oid:2.16.840.1.113883.2.4.6.6.90000258.4.7"/>
               <value value="21116"/>
            </identifier>
            <status value="final"/>
            <code>
               <coding>
                  <system value="https://referentiemodel.nhg.org/tabellen/nhg-tabel-45-diagnostische-bepalingen"/>
                  <code value="1739"/>
                  <display value="roken"/>
               </coding>
            </code>
            <subject>
               <reference value="urn:uuid:4e2b1d46-ab72-11e9-1480-28f10e481d92"/>
               <display value="E. XXX_Zegers"/>
            </subject>
            <effectiveDateTime value="2019-01-30"/>
            <performer>
               <extension url="http://nictiz.nl/fhir/StructureDefinition/practitionerrole-reference">
                  <valueReference>
                     <reference value="urn:uuid:4e2b1d53-ab72-11e9-1480-28f10e481d92"/>
                     <display value="Responsible Party"/>
                  </valueReference>
               </extension>
               <reference value="urn:oid:2.16.528.1.1007.3.1.900014718"/>
               <display value="Responsible Party"/>
            </performer>
            <valueCodeableConcept>
               <coding>
                  <system value="https://referentiemodel.nhg.org/tabellen/nhg-tabel-45-diagnostische-bepalingen#resultaten"/>
                  <code value="4"/>
                  <display value="voorheen"/>
               </coding>
            </valueCodeableConcept>
         </Observation>
      </resource>
      <search>
         <mode value="match"/>
      </search>
   </entry>
   <entry>
      <fullUrl value="urn:oid:2.16.840.1.113883.2.4.6.6.90000258.4.7.21117"/>
      <resource>
         <Observation>
            <meta>
               <profile value="http://nictiz.nl/fhir/StructureDefinition/gp-DiagnosticResult"/>
            </meta>
            <identifier>
               <system value="urn:oid:2.16.840.1.113883.2.4.6.6.90000258.4.7"/>
               <value value="21117"/>
            </identifier>
            <status value="final"/>
            <code>
               <coding>
                  <system value="https://referentiemodel.nhg.org/tabellen/nhg-tabel-45-diagnostische-bepalingen"/>
                  <code value="1991"/>
                  <display value="aantal jaren gerookt"/>
               </coding>
            </code>
            <subject>
               <reference value="urn:uuid:4e2b1d46-ab72-11e9-1480-28f10e481d92"/>
               <display value="E. XXX_Zegers"/>
            </subject>
            <effectiveDateTime value="2019-01-30"/>
            <performer>
               <extension url="http://nictiz.nl/fhir/StructureDefinition/practitionerrole-reference">
                  <valueReference>
                     <reference value="urn:uuid:4e2b1d53-ab72-11e9-1480-28f10e481d92"/>
                     <display value="Responsible Party"/>
                  </valueReference>
               </extension>
               <reference value="urn:oid:2.16.528.1.1007.3.1.900014718"/>
               <display value="Responsible Party"/>
            </performer>
            <valueQuantity>
               <value value="10"/>
               <unit value="a"/>
               <system value="http://unitsofmeasure.org"/>
               <code value="a"/>
            </valueQuantity>
         </Observation>
      </resource>
      <search>
         <mode value="match"/>
      </search>
   </entry>
   <entry>
      <fullUrl value="urn:uuid:4e2b3317-ab72-11e9-1480-28f10e481d92"/>
      <resource>
         <Observation>
            <meta>
               <profile value="http://nictiz.nl/fhir/StructureDefinition/gp-DiagnosticResult"/>
            </meta>
            <identifier>
               <system value="urn:oid:2.16.840.1.113883.2.4.6.6.90000258.4.7"/>
               <value value="21118.0.97"/>
            </identifier>
            <status value="final"/>
            <code>
               <coding>
                  <system value="https://referentiemodel.nhg.org/tabellen/nhg-tabel-45-diagnostische-bepalingen"/>
                  <code value="2025"/>
                  <display value="specificatie longaandoeningen in familie"/>
               </coding>
            </code>
            <subject>
               <reference value="urn:uuid:4e2b1d46-ab72-11e9-1480-28f10e481d92"/>
               <display value="E. XXX_Zegers"/>
            </subject>
            <effectiveDateTime value="2019-01-30"/>
            <performer>
               <extension url="http://nictiz.nl/fhir/StructureDefinition/practitionerrole-reference">
                  <valueReference>
                     <reference value="urn:uuid:4e2b1d53-ab72-11e9-1480-28f10e481d92"/>
                     <display value="Responsible Party"/>
                  </valueReference>
               </extension>
               <reference value="urn:oid:2.16.528.1.1007.3.1.900014718"/>
               <display value="Responsible Party"/>
            </performer>
            <valueCodeableConcept>
               <coding>
                  <system value="https://referentiemodel.nhg.org/tabellen/nhg-tabel-45-diagnostische-bepalingen#resultaten"/>
                  <code value="97"/>
                  <display value="astma"/>
               </coding>
            </valueCodeableConcept>
         </Observation>
      </resource>
      <search>
         <mode value="match"/>
      </search>
   </entry>
   <entry>
      <fullUrl value="urn:oid:2.16.840.1.113883.2.4.6.6.90000258.4.7.21122"/>
      <resource>
         <Observation>
            <meta>
               <profile value="http://nictiz.nl/fhir/StructureDefinition/gp-DiagnosticResult"/>
            </meta>
            <identifier>
               <system value="urn:oid:2.16.840.1.113883.2.4.6.6.90000258.4.7"/>
               <value value="21122"/>
            </identifier>
            <status value="final"/>
            <code>
               <coding>
                  <system value="https://referentiemodel.nhg.org/tabellen/nhg-tabel-45-diagnostische-bepalingen"/>
                  <code value="1272"/>
                  <display value="Quetelet-index (BMI) patiënt"/>
               </coding>
            </code>
            <subject>
               <reference value="urn:uuid:4e2b1d46-ab72-11e9-1480-28f10e481d92"/>
               <display value="E. XXX_Zegers"/>
            </subject>
            <effectiveDateTime value="2019-02-03"/>
            <performer>
               <extension url="http://nictiz.nl/fhir/StructureDefinition/practitionerrole-reference">
                  <valueReference>
                     <reference value="urn:uuid:4e2b1d53-ab72-11e9-1480-28f10e481d92"/>
                     <display value="Responsible Party"/>
                  </valueReference>
               </extension>
               <reference value="urn:oid:2.16.528.1.1007.3.1.900014718"/>
               <display value="Responsible Party"/>
            </performer>
            <valueQuantity>
               <value value="27"/>
               <unit value="kg/m2"/>
               <system value="http://unitsofmeasure.org"/>
               <code value="kg/m2"/>
            </valueQuantity>
            <interpretation>
               <coding>
                  <system value="http://hl7.org/fhir/v3/ObservationInterpretation"/>
                  <code value="N"/>
                  <display value="Normal"/>
               </coding>
            </interpretation>
         </Observation>
      </resource>
      <search>
         <mode value="match"/>
      </search>
   </entry>
   <entry>
      <fullUrl value="urn:oid:2.16.840.1.113883.2.4.6.6.90000258.4.7.21125"/>
      <resource>
         <Observation>
            <meta>
               <profile value="http://nictiz.nl/fhir/StructureDefinition/gp-DiagnosticResult"/>
            </meta>
            <identifier>
               <system value="urn:oid:2.16.840.1.113883.2.4.6.6.90000258.4.7"/>
               <value value="21125"/>
            </identifier>
            <status value="final"/>
            <code>
               <coding>
                  <system value="https://referentiemodel.nhg.org/tabellen/nhg-tabel-45-diagnostische-bepalingen"/>
                  <code value="1744"/>
                  <display value="systolische bloeddruk"/>
               </coding>
            </code>
            <subject>
               <reference value="urn:uuid:4e2b1d46-ab72-11e9-1480-28f10e481d92"/>
               <display value="E. XXX_Zegers"/>
            </subject>
            <effectiveDateTime value="2019-02-02"/>
            <performer>
               <extension url="http://nictiz.nl/fhir/StructureDefinition/practitionerrole-reference">
                  <valueReference>
                     <reference value="urn:uuid:4e2b1d53-ab72-11e9-1480-28f10e481d92"/>
                     <display value="Responsible Party"/>
                  </valueReference>
               </extension>
               <reference value="urn:oid:2.16.528.1.1007.3.1.900014718"/>
               <display value="Responsible Party"/>
            </performer>
            <valueQuantity>
               <value value="160"/>
               <unit value="mm[Hg]"/>
               <system value="http://unitsofmeasure.org"/>
               <code value="mm[Hg]"/>
            </valueQuantity>
            <interpretation>
               <coding>
                  <system value="http://hl7.org/fhir/v3/ObservationInterpretation"/>
                  <code value="H"/>
                  <display value="High"/>
               </coding>
            </interpretation>
         </Observation>
      </resource>
      <search>
         <mode value="match"/>
      </search>
   </entry>
   <entry>
      <fullUrl value="urn:oid:2.16.840.1.113883.2.4.6.6.90000258.4.7.21126"/>
      <resource>
         <Observation>
            <meta>
               <profile value="http://nictiz.nl/fhir/StructureDefinition/gp-DiagnosticResult"/>
            </meta>
            <identifier>
               <system value="urn:oid:2.16.840.1.113883.2.4.6.6.90000258.4.7"/>
               <value value="21126"/>
            </identifier>
            <status value="final"/>
            <code>
               <coding>
                  <system value="https://referentiemodel.nhg.org/tabellen/nhg-tabel-45-diagnostische-bepalingen"/>
                  <code value="1740"/>
                  <display value="diastolische bloeddruk"/>
               </coding>
            </code>
            <subject>
               <reference value="urn:uuid:4e2b1d46-ab72-11e9-1480-28f10e481d92"/>
               <display value="E. XXX_Zegers"/>
            </subject>
            <effectiveDateTime value="2019-02-02"/>
            <performer>
               <extension url="http://nictiz.nl/fhir/StructureDefinition/practitionerrole-reference">
                  <valueReference>
                     <reference value="urn:uuid:4e2b1d53-ab72-11e9-1480-28f10e481d92"/>
                     <display value="Responsible Party"/>
                  </valueReference>
               </extension>
               <reference value="urn:oid:2.16.528.1.1007.3.1.900014718"/>
               <display value="Responsible Party"/>
            </performer>
            <valueQuantity>
               <value value="80"/>
               <unit value="mm[Hg]"/>
               <system value="http://unitsofmeasure.org"/>
               <code value="mm[Hg]"/>
            </valueQuantity>
            <interpretation>
               <coding>
                  <system value="http://hl7.org/fhir/v3/ObservationInterpretation"/>
                  <code value="N"/>
                  <display value="Normal"/>
               </coding>
            </interpretation>
         </Observation>
      </resource>
      <search>
         <mode value="match"/>
      </search>
   </entry>
   <entry>
      <fullUrl value="urn:oid:2.16.840.1.113883.2.4.6.6.90000258.4.7.21127"/>
      <resource>
         <Observation>
            <meta>
               <profile value="http://nictiz.nl/fhir/StructureDefinition/gp-DiagnosticResult"/>
            </meta>
            <identifier>
               <system value="urn:oid:2.16.840.1.113883.2.4.6.6.90000258.4.7"/>
               <value value="21127"/>
            </identifier>
            <status value="final"/>
            <code>
               <coding>
                  <system value="https://referentiemodel.nhg.org/tabellen/nhg-tabel-45-diagnostische-bepalingen"/>
                  <code value="1875"/>
                  <display value="polsfrequentie"/>
               </coding>
            </code>
            <subject>
               <reference value="urn:uuid:4e2b1d46-ab72-11e9-1480-28f10e481d92"/>
               <display value="E. XXX_Zegers"/>
            </subject>
            <effectiveDateTime value="2019-02-02"/>
            <performer>
               <extension url="http://nictiz.nl/fhir/StructureDefinition/practitionerrole-reference">
                  <valueReference>
                     <reference value="urn:uuid:4e2b1d53-ab72-11e9-1480-28f10e481d92"/>
                     <display value="Responsible Party"/>
                  </valueReference>
               </extension>
               <reference value="urn:oid:2.16.528.1.1007.3.1.900014718"/>
               <display value="Responsible Party"/>
            </performer>
            <valueQuantity>
               <value value="72"/>
               <unit value="/min"/>
               <system value="http://unitsofmeasure.org"/>
               <code value="/min"/>
            </valueQuantity>
            <interpretation>
               <coding>
                  <system value="http://hl7.org/fhir/v3/ObservationInterpretation"/>
                  <code value="N"/>
                  <display value="Normal"/>
               </coding>
            </interpretation>
         </Observation>
      </resource>
      <search>
         <mode value="match"/>
      </search>
   </entry>
   <entry>
      <fullUrl value="urn:oid:2.16.840.1.113883.2.4.6.6.90000258.4.7.21128"/>
      <resource>
         <Observation>
            <meta>
               <profile value="http://nictiz.nl/fhir/StructureDefinition/gp-DiagnosticResult"/>
            </meta>
            <identifier>
               <system value="urn:oid:2.16.840.1.113883.2.4.6.6.90000258.4.7"/>
               <value value="21128"/>
            </identifier>
            <status value="final"/>
            <code>
               <coding>
                  <system value="https://referentiemodel.nhg.org/tabellen/nhg-tabel-45-diagnostische-bepalingen"/>
                  <code value="2209"/>
                  <display value="ernst/stadium COPD (GOLD classificatie)"/>
               </coding>
            </code>
            <subject>
               <reference value="urn:uuid:4e2b1d46-ab72-11e9-1480-28f10e481d92"/>
               <display value="E. XXX_Zegers"/>
            </subject>
            <effectiveDateTime value="2019-02-02"/>
            <performer>
               <extension url="http://nictiz.nl/fhir/StructureDefinition/practitionerrole-reference">
                  <valueReference>
                     <reference value="urn:uuid:4e2b1d53-ab72-11e9-1480-28f10e481d92"/>
                     <display value="Responsible Party"/>
                  </valueReference>
               </extension>
               <reference value="urn:oid:2.16.528.1.1007.3.1.900014718"/>
               <display value="Responsible Party"/>
            </performer>
            <valueCodeableConcept>
               <coding>
                  <system value="https://referentiemodel.nhg.org/tabellen/nhg-tabel-45-diagnostische-bepalingen#resultaten"/>
                  <code value="255"/>
                  <display value="1: mild COPD"/>
               </coding>
            </valueCodeableConcept>
         </Observation>
      </resource>
      <search>
         <mode value="match"/>
      </search>
   </entry>
   <entry>
      <fullUrl value="urn:oid:2.16.840.1.113883.2.4.6.6.90000258.4.7.21129"/>
      <resource>
         <Observation>
            <meta>
               <profile value="http://nictiz.nl/fhir/StructureDefinition/gp-DiagnosticResult"/>
            </meta>
            <identifier>
               <system value="urn:oid:2.16.840.1.113883.2.4.6.6.90000258.4.7"/>
               <value value="21129"/>
            </identifier>
            <status value="final"/>
            <code>
               <coding>
                  <system value="https://referentiemodel.nhg.org/tabellen/nhg-tabel-45-diagnostische-bepalingen"/>
                  <code value="1913"/>
                  <display value="temperatuur patiënt (in oor gemeten)"/>
               </coding>
            </code>
            <subject>
               <reference value="urn:uuid:4e2b1d46-ab72-11e9-1480-28f10e481d92"/>
               <display value="E. XXX_Zegers"/>
            </subject>
            <effectiveDateTime value="2019-02-02"/>
            <performer>
               <extension url="http://nictiz.nl/fhir/StructureDefinition/practitionerrole-reference">
                  <valueReference>
                     <reference value="urn:uuid:4e2b1d53-ab72-11e9-1480-28f10e481d92"/>
                     <display value="Responsible Party"/>
                  </valueReference>
               </extension>
               <reference value="urn:oid:2.16.528.1.1007.3.1.900014718"/>
               <display value="Responsible Party"/>
            </performer>
            <valueQuantity>
               <value value="37.5"/>
               <unit value="Cel"/>
               <system value="http://unitsofmeasure.org"/>
               <code value="Cel"/>
            </valueQuantity>
         </Observation>
      </resource>
      <search>
         <mode value="match"/>
      </search>
   </entry>
   <entry>
      <fullUrl value="urn:oid:2.16.840.1.113883.2.4.6.6.90000258.4.7.21130"/>
      <resource>
         <Observation>
            <meta>
               <profile value="http://nictiz.nl/fhir/StructureDefinition/gp-DiagnosticResult"/>
            </meta>
            <identifier>
               <system value="urn:oid:2.16.840.1.113883.2.4.6.6.90000258.4.7"/>
               <value value="21130"/>
            </identifier>
            <status value="final"/>
            <code>
               <coding>
                  <system value="https://referentiemodel.nhg.org/tabellen/nhg-tabel-45-diagnostische-bepalingen"/>
                  <code value="1659"/>
                  <display value="kortademigheid (anamnese)"/>
               </coding>
            </code>
            <subject>
               <reference value="urn:uuid:4e2b1d46-ab72-11e9-1480-28f10e481d92"/>
               <display value="E. XXX_Zegers"/>
            </subject>
            <effectiveDateTime value="2019-02-02"/>
            <performer>
               <extension url="http://nictiz.nl/fhir/StructureDefinition/practitionerrole-reference">
                  <valueReference>
                     <reference value="urn:uuid:4e2b1d53-ab72-11e9-1480-28f10e481d92"/>
                     <display value="Responsible Party"/>
                  </valueReference>
               </extension>
               <reference value="urn:oid:2.16.528.1.1007.3.1.900014718"/>
               <display value="Responsible Party"/>
            </performer>
            <valueCodeableConcept>
               <coding>
                  <system value="https://referentiemodel.nhg.org/tabellen/nhg-tabel-45-diagnostische-bepalingen#resultaten"/>
                  <code value="1"/>
                  <display value="ja"/>
               </coding>
            </valueCodeableConcept>
         </Observation>
      </resource>
      <search>
         <mode value="match"/>
      </search>
   </entry>
   <entry>
      <fullUrl value="urn:oid:2.16.840.1.113883.2.4.6.6.90000258.4.7.21131"/>
      <resource>
         <Observation>
            <meta>
               <profile value="http://nictiz.nl/fhir/StructureDefinition/gp-DiagnosticResult"/>
            </meta>
            <identifier>
               <system value="urn:oid:2.16.840.1.113883.2.4.6.6.90000258.4.7"/>
               <value value="21131"/>
            </identifier>
            <status value="final"/>
            <code>
               <coding>
                  <system value="https://referentiemodel.nhg.org/tabellen/nhg-tabel-45-diagnostische-bepalingen"/>
                  <code value="3258"/>
                  <display value="hartkloppingen (anamnese)"/>
               </coding>
            </code>
            <subject>
               <reference value="urn:uuid:4e2b1d46-ab72-11e9-1480-28f10e481d92"/>
               <display value="E. XXX_Zegers"/>
            </subject>
            <effectiveDateTime value="2019-02-02"/>
            <performer>
               <extension url="http://nictiz.nl/fhir/StructureDefinition/practitionerrole-reference">
                  <valueReference>
                     <reference value="urn:uuid:4e2b1d53-ab72-11e9-1480-28f10e481d92"/>
                     <display value="Responsible Party"/>
                  </valueReference>
               </extension>
               <reference value="urn:oid:2.16.528.1.1007.3.1.900014718"/>
               <display value="Responsible Party"/>
            </performer>
            <valueCodeableConcept>
               <coding>
                  <system value="https://referentiemodel.nhg.org/tabellen/nhg-tabel-45-diagnostische-bepalingen#resultaten"/>
                  <code value="8"/>
                  <display value="onduidelijk"/>
               </coding>
            </valueCodeableConcept>
         </Observation>
      </resource>
      <search>
         <mode value="match"/>
      </search>
   </entry>
   <entry>
      <fullUrl value="urn:uuid:4e2b1d46-ab72-11e9-1480-28f10e481d92"/>
      <resource>
         <Patient>
            <meta>
               <profile value="http://fhir.nl/fhir/StructureDefinition/nl-core-patient"/>
            </meta>
            <identifier>
               <extension url="http://hl7.org/fhir/StructureDefinition/data-absent-reason">
                  <valueCode value="masked"/>
               </extension>
               <system value="http://fhir.nl/fhir/NamingSystem/bsn"/>
            </identifier>
            <name>
               <extension url="http://hl7.org/fhir/StructureDefinition/humanname-assembly-order">
                  <valueCode value="NL1"/>
               </extension>
               <family value="XXX_Zegers">
                  <extension url="http://hl7.org/fhir/StructureDefinition/humanname-own-name">
                     <valueString value="XXX_Zegers"/>
                  </extension>
               </family>
               <given value="E.">
                  <extension url="http://hl7.org/fhir/StructureDefinition/iso21090-EN-qualifier">
                     <valueCode value="IN"/>
                  </extension>
               </given>
            </name>
            <gender value="female"/>
            <birthDate value="1964-08-02"/>
         </Patient>
      </resource>
      <search>
         <mode value="include"/>
      </search>
   </entry>
   <entry>
      <fullUrl value="urn:uuid:4e2b1d53-ab72-11e9-1480-28f10e481d92"/>
      <resource>
         <PractitionerRole>
            <meta>
               <profile value="http://fhir.nl/fhir/StructureDefinition/nl-core-practitionerrole"/>
            </meta>
            <practitioner>
               <reference value="urn:oid:2.16.528.1.1007.3.1.900014718"/>
               <display value="Responsible Party"/>
            </practitioner>
            <code>
               <coding>
                  <system value="http://hl7.org/fhir/v3/ParticipationType"/>
                  <code value="RESP"/>
                  <display value="Responsible Party"/>
               </coding>
            </code>
         </PractitionerRole>
      </resource>
      <search>
         <mode value="include"/>
      </search>
   </entry>
   <entry>
      <fullUrl value="urn:oid:2.16.528.1.1007.3.1.900014718"/>
      <resource>
         <Practitioner>
            <meta>
               <profile value="http://fhir.nl/fhir/StructureDefinition/nl-core-practitioner"/>
            </meta>
            <identifier>
               <system value="http://fhir.nl/fhir/NamingSystem/uzi-nr-pers"/>
               <value value="900014718"/>
            </identifier>
         </Practitioner>
      </resource>
      <search>
         <mode value="include"/>
      </search>
   </entry>
   <entry>
      <fullUrl value="urn:oid:2.16.528.1.1007.3.3.90000381"/>
      <resource>
         <Organization>
            <meta>
               <profile value="http://fhir.nl/fhir/StructureDefinition/nl-core-organization"/>
            </meta>
            <identifier>
               <system value="http://fhir.nl/fhir/NamingSystem/ura"/>
               <value value="90000381"/>
            </identifier>
            <name value="Tést Zorginstelling 04"/>
         </Organization>
      </resource>
      <search>
         <mode value="include"/>
      </search>
   </entry>
</Bundle>