<?xml-model href="http://hl7.org/fhir/STU3/bundle.sch" type="application/xml" schematypens="http://purl.oclc.org/dsdl/schematron"?><Bundle xmlns="http://hl7.org/fhir"
        xmlns:xsi="http://www.w3.org/2001/XMLSchema-instance"
        xsi:schemaLocation="http://hl7.org/fhir http://hl7.org/fhir/STU3/fhir-all.xsd">
   <type value="searchset"/>
   <total value="1"/>
   <entry>
      <fullUrl value="urn:uuid:b4de03bc-acbf-11e9-1579-28f10e481d92"/>
      <resource>
         <MedicationRequest>
            <meta>
               <profile value="http://nictiz.nl/fhir/StructureDefinition/zib-MedicationAgreement"/>
            </meta>
            <extension url="http://nictiz.nl/fhir/StructureDefinition/zib-Medication-PeriodOfUse">
               <valuePeriod>
                  <start value="2017-06-12"/>
               </valuePeriod>
            </extension>
            <extension url="http://nictiz.nl/fhir/StructureDefinition/zib-Medication-MedicationTreatment">
               <valueIdentifier>
                  <system value="urn:oid:2.16.840.1.113883.2.4.3.11.999.77.1.1"/>
                  <value value="#MB_01h"/>
               </valueIdentifier>
            </extension>
            <identifier>
               <system value="urn:oid:2.16.840.1.113883.2.4.3.11.999.77.16076005.1"/>
               <value value="#MB_01h#MA_01"/>
            </identifier>
            <intent value="order"/>
            <category>
               <coding>
                  <system value="http://snomed.info/sct"/>
                  <code value="16076005"/>
                  <display value="Prescription (procedure)"/>
               </coding>
               <text value="Medicatieafspraak"/>
            </category>
            <medicationReference>
               <reference value="urn:oid:2.16.840.1.113883.2.4.4.10.6939"/>
               <display value="Metoclopramide zetpil 20mg"/>
            </medicationReference>
            <subject>
               <reference value="urn:uuid:b4de0192-acbf-11e9-1579-28f10e481d92"/>
               <display value="Joris J. Hansman"/>
            </subject>
            <authoredOn value="2016-06-23T16:54:23+02:00"/>
            <requester>
               <agent>
                  <extension url="http://nictiz.nl/fhir/StructureDefinition/practitionerrole-reference">
                     <valueReference>
                        <reference value="urn:uuid:b4de03be-acbf-11e9-1579-28f10e481d92"/>
                        <display value="Dr Jansen || Internist || Ziekenhuis zus en zo"/>
                     </valueReference>
                  </extension>
                  <display value="Dr Jansen || Internist || Ziekenhuis zus en zo"/>
               </agent>
            </requester>
            <dosageInstruction>
               <sequence value="1"/>
               <text value="Vanaf 12 juni 2017, tot nader order, 1 maal daags 1 stuk"/>
               <timing>
                  <repeat>
                     <frequency value="1"/>
                     <period value="1"/>
                     <periodUnit value="d"/>
                  </repeat>
               </timing>
               <asNeededCodeableConcept>
                  <coding>
                     <system value="https://referentiemodel.nhg.org/tabellen/nhg-tabel-25-gebruiksvoorschrift#aanvullend-numeriek"/>
                     <code value="1137"/>
                     <display value="zo nodig"/>
                  </coding>
               </asNeededCodeableConcept>
               <route>
                  <coding>
                     <system value="urn:oid:2.16.840.1.113883.2.4.4.9"/>
                     <code value="12"/>
                     <display value="rectaal"/>
                  </coding>
               </route>
               <doseQuantity>
                  <value value="1"/>
                  <unit value="stuk"/>
                  <system value="urn:oid:2.16.840.1.113883.2.4.4.1.900.2"/>
                  <code value="245"/>
               </doseQuantity>
            </dosageInstruction>
         </MedicationRequest>
      </resource>
      <search>
         <mode value="match"/>
      </search>
   </entry>
   <entry>
      <fullUrl value="urn:oid:2.16.840.1.113883.2.4.4.10.6939"/>
      <resource>
         <Medication>
            <meta>
               <profile value="http://nictiz.nl/fhir/StructureDefinition/zib-Product"/>
            </meta>
            <code>
               <coding>
                  <system value="urn:oid:2.16.840.1.113883.2.4.4.10"/>
                  <code value="6939"/>
                  <display value="Metoclopramide zetpil 20mg"/>
                  <userSelected value="true"/>
               </coding>
               <coding>
                  <system value="urn:oid:2.16.840.1.113883.2.4.4.1"/>
                  <code value="63630"/>
                  <display value="METOCLOPRAMIDE ZETPIL 20MG"/>
               </coding>
            </code>
         </Medication>
      </resource>
      <search>
         <mode value="include"/>
      </search>
   </entry>
   <entry>
      <fullUrl value="urn:uuid:b4de0192-acbf-11e9-1579-28f10e481d92"/>
      <resource>
         <Patient>
            <meta>
               <profile value="http://fhir.nl/fhir/StructureDefinition/nl-core-patient"/>
            </meta>
            <identifier>
               <extension url="http://hl7.org/fhir/StructureDefinition/data-absent-reason">
                  <valueCode value="masked"/>
               </extension>
               <system value="http://fhir.nl/fhir/NamingSystem/bsn"/>
            </identifier>
            <name>
               <extension url="http://hl7.org/fhir/StructureDefinition/humanname-assembly-order">
                  <valueCode value="UNK"/>
               </extension>
               <family value="Hansman">
                  <extension url="http://hl7.org/fhir/StructureDefinition/humanname-own-name">
                     <valueString value="Hansman"/>
                  </extension>
               </family>
               <given value="Joris">
                  <extension url="http://hl7.org/fhir/StructureDefinition/iso21090-EN-qualifier">
                     <valueCode value="BR"/>
                  </extension>
               </given>
               <given value="J.">
                  <extension url="http://hl7.org/fhir/StructureDefinition/iso21090-EN-qualifier">
                     <valueCode value="IN"/>
                  </extension>
               </given>
            </name>
            <gender value="male"/>
         </Patient>
      </resource>
      <search>
         <mode value="include"/>
      </search>
   </entry>
   <entry>
      <fullUrl value="urn:uuid:b4de03be-acbf-11e9-1579-28f10e481d92"/>
      <resource>
         <PractitionerRole>
            <meta>
               <profile value="http://fhir.nl/fhir/StructureDefinition/nl-core-practitionerrole"/>
            </meta>
            <practitioner>
               <reference value="urn:oid:2.16.528.1.1007.3.1.12345678"/>
               <display value="Dr Jansen"/>
            </practitioner>
            <organization>
               <reference value="urn:uuid:b4de03c8-acbf-11e9-1579-28f10e481d92"/>
               <display value="Ziekenhuis zus en zo"/>
            </organization>
            <specialty>
               <coding>
                  <system value="http://fhir.nl/fhir/NamingSystem/uzi-rolcode"/>
                  <code value="01.016"/>
                  <display value="Internist"/>
               </coding>
            </specialty>
         </PractitionerRole>
      </resource>
      <search>
         <mode value="include"/>
      </search>
   </entry>
   <entry>
      <fullUrl value="urn:oid:2.16.528.1.1007.3.1.12345678"/>
      <resource>
         <Practitioner>
            <meta>
               <profile value="http://fhir.nl/fhir/StructureDefinition/nl-core-practitioner"/>
            </meta>
            <identifier>
               <system value="http://fhir.nl/fhir/NamingSystem/uzi-nr-pers"/>
               <value value="012345678"/>
            </identifier>
            <name>
               <text value="Dr Jansen"/>
            </name>
         </Practitioner>
      </resource>
      <search>
         <mode value="include"/>
      </search>
   </entry>
   <entry>
      <fullUrl value="urn:uuid:b4de03c8-acbf-11e9-1579-28f10e481d92"/>
      <resource>
         <Organization>
            <meta>
               <profile value="http://fhir.nl/fhir/StructureDefinition/nl-core-organization"/>
            </meta>
            <identifier>
               <system value="urn:oid:1.2.3.4"/>
               <value value="URAnummer"/>
            </identifier>
            <name value="Ziekenhuis zus en zo"/>
            <address>
               <use value="work"/>
               <line value="Dorpsstraat 10">
                  <extension url="http://hl7.org/fhir/StructureDefinition/iso21090-ADXP-streetName">
                     <valueString value="Dorpsstraat"/>
                  </extension>
                  <extension url="http://hl7.org/fhir/StructureDefinition/iso21090-ADXP-houseNumber">
                     <valueString value="10"/>
                  </extension>
               </line>
               <city value="Ons Dorp"/>
               <postalCode value="1111 AA"/>
            </address>
         </Organization>
      </resource>
      <search>
         <mode value="include"/>
      </search>
   </entry>
</Bundle>