<?xml-model href="http://hl7.org/fhir/STU3/bundle.sch" type="application/xml" schematypens="http://purl.oclc.org/dsdl/schematron"?><Bundle xmlns="http://hl7.org/fhir"
        xmlns:xsi="http://www.w3.org/2001/XMLSchema-instance"
        xsi:schemaLocation="http://hl7.org/fhir http://hl7.org/fhir/STU3/bundle.xsd">
   <type value="searchset"/>
   <total value="2"/>
   <entry>
      <fullUrl value="urn:uuid:a379dc44-a302-11e9-1759-020000000000"/>
      <resource>
         <EpisodeOfCare>
            <meta>
               <profile value="http://fhir.nl/fhir/StructureDefinition/nl-core-episodeofcare"/>
            </meta>
            <extension url="http://nictiz.nl/fhir/StructureDefinition/EpisodeOfCare-Title">
               <valueString value="Diabetes Mellitus type II"/>
            </extension>
            <status value="active">
               <extension url="http://nictiz.nl/fhir/StructureDefinition/code-specification">
                  <valueCodeableConcept>
                     <coding>
                        <system value="http://hl7.org/fhir/v3/ActStatus"/>
                        <code value="active"/>
                        <display value="active"/>
                     </coding>
                  </valueCodeableConcept>
               </extension>
            </status>
            <type>
               <coding>
                  <system value="http://snomed.info/sct"/>
                  <code value="64572001"/>
                  <display value="Condition"/>
               </coding>
            </type>
            <diagnosis>
               <condition>
                  <reference value="urn:uuid:a379dc43-a302-11e9-1759-020000000000"/>
                  <display value="T90.02 Diabetes Mellitus type II"/>
               </condition>
            </diagnosis>
            <managingOrganization>
               <reference value="urn:oid:2.16.528.1.1007.3.3.3131"/>
               <display value="Huisarts Prins ZAB"/>
            </managingOrganization>
         </EpisodeOfCare>
      </resource>
      <search>
         <mode value="match"/>
      </search>
   </entry>
   <entry>
      <fullUrl value="urn:uuid:a379dc50-a302-11e9-1759-020000000000"/>
      <resource>
         <EpisodeOfCare>
            <meta>
               <profile value="http://fhir.nl/fhir/StructureDefinition/nl-core-episodeofcare"/>
            </meta>
            <extension url="http://nictiz.nl/fhir/StructureDefinition/EpisodeOfCare-Title">
               <valueString value="Diabetes Mellitus type II"/>
            </extension>
            <status value="active">
               <extension url="http://nictiz.nl/fhir/StructureDefinition/code-specification">
                  <valueCodeableConcept>
                     <coding>
                        <system value="http://hl7.org/fhir/v3/ActStatus"/>
                        <code value="active"/>
                        <display value="active"/>
                     </coding>
                  </valueCodeableConcept>
               </extension>
            </status>
            <type>
               <coding>
                  <system value="http://snomed.info/sct"/>
                  <code value="64572001"/>
                  <display value="Condition"/>
               </coding>
            </type>
            <diagnosis>
               <condition>
                  <reference value="urn:uuid:a379dc43-a302-11e9-1759-020000000000"/>
                  <display value="T90.02 Diabetes Mellitus type II"/>
               </condition>
            </diagnosis>
            <managingOrganization>
               <reference value="urn:oid:2.16.528.1.1007.3.3.3131"/>
               <display value="Huisarts Prins ZAB"/>
            </managingOrganization>
         </EpisodeOfCare>
      </resource>
      <search>
         <mode value="match"/>
      </search>
   </entry>
   <entry>
      <fullUrl value="urn:uuid:a379dc43-a302-11e9-1759-020000000000"/>
      <resource>
         <Condition>
            <meta>
               <profile value="http://nictiz.nl/fhir/StructureDefinition/zib-Problem"/>
            </meta>
            <clinicalStatus value="active"/>
            <category>
               <coding>
                  <system value="http://snomed.info/sct"/>
                  <code value="282291009"/>
                  <display value="Diagnosis"/>
               </coding>
            </category>
            <code>
               <coding>
                  <system value="http://hl7.org/fhir/sid/icpc-1-nl"/>
                  <code value="T90.02"/>
                  <display value="Diabetes Mellitus type II"/>
               </coding>
            </code>
            <onsetPeriod>
               <start value="2007-04-02"/>
            </onsetPeriod>
         </Condition>
      </resource>
      <search>
         <mode value="include"/>
      </search>
   </entry>
   <entry>
      <fullUrl value="urn:oid:2.16.528.1.1007.3.3.3131"/>
      <resource>
         <Organization>
            <meta>
               <profile value="http://fhir.nl/fhir/StructureDefinition/nl-core-organization"/>
            </meta>
            <identifier>
               <system value="http://fhir.nl/fhir/NamingSystem/ura"/>
               <value value="00003131"/>
            </identifier>
            <name value="Huisarts Prins ZAB"/>
            <address>
               <line/>
               <city value="Rotterdam"/>
            </address>
         </Organization>
      </resource>
      <search>
         <mode value="include"/>
      </search>
   </entry>
</Bundle>
