<?xml-model href="http://hl7.org/fhir/STU3/bundle.sch" type="application/xml" schematypens="http://purl.oclc.org/dsdl/schematron"?><Bundle xmlns="http://hl7.org/fhir"
        xmlns:xsi="http://www.w3.org/2001/XMLSchema-instance"
        xsi:schemaLocation="http://hl7.org/fhir http://hl7.org/fhir/STU3/fhir-all.xsd">
   <type value="searchset"/>
   <total value="3"/>
   <entry>
      <fullUrl value="urn:uuid:cc6bc621-ac9e-11e9-1800-28f10e481d92"/>
      <resource>
         <Flag>
            <identifier>
               <system value="urn:oid:2.16.840.1.113883.2.4.3.11.999.66.4577"/>
               <value value="400-1"/>
            </identifier>
            <status value="active"/>
            <category>
               <coding>
                  <system value="http://loinc.org"/>
                  <code value="74018-3"/>
                  <display value="Alert"/>
               </coding>
            </category>
            <code>
               <coding>
                  <system value="urn:oid:2.16.840.1.113883.2.4.4.1.902.40"/>
                  <code value="1348"/>
                  <display value="COPD"/>
               </coding>
            </code>
            <subject>
               <reference value="urn:uuid:cc6bc613-ac9e-11e9-1800-28f10e481d92"/>
               <display value="Jacqueline J. XXX_Cevat"/>
            </subject>
            <period>
               <start value="${CURRENTDATETIME, d, -400}"/>
            </period>
            <author>
               <extension url="http://nictiz.nl/fhir/StructureDefinition/practitionerrole-reference">
                  <valueReference>
                     <reference value="urn:uuid:cc6bb07a-ac9e-11e9-1800-28f10e481d92"/>
                     <display value="Vaste V. Huisarts 1 Responsible Party"/>
                  </valueReference>
               </extension>
               <reference value="urn:oid:2.16.528.1.1007.3.1.1111"/>
               <display value="Vaste V. Huisarts 1 Responsible Party"/>
            </author>
         </Flag>
      </resource>
   </entry>
   <entry>
      <fullUrl value="urn:uuid:cc6bc627-ac9e-11e9-1800-28f10e481d92"/>
      <resource>
         <Flag>
            <identifier>
               <system value="urn:oid:2.16.840.1.113883.2.4.3.11.999.66.4577"/>
               <value value="200-1"/>
            </identifier>
            <status value="active"/>
            <category>
               <coding>
                  <system value="http://loinc.org"/>
                  <code value="74018-3"/>
                  <display value="Alert"/>
               </coding>
            </category>
            <code>
               <coding>
                  <system value="urn:oid:2.16.840.1.113883.2.4.4.1.902.40"/>
                  <code value="210"/>
                  <display value="Sportbeoefening"/>
               </coding>
            </code>
            <subject>
               <reference value="urn:uuid:cc6bc613-ac9e-11e9-1800-28f10e481d92"/>
               <display value="Jacqueline J. XXX_Cevat"/>
            </subject>
            <period>
               <start value="${CURRENTDATETIME, d, -200}"/>
            </period>
            <author>
               <extension url="http://nictiz.nl/fhir/StructureDefinition/practitionerrole-reference">
                  <valueReference>
                     <reference value="urn:uuid:cc6bb07a-ac9e-11e9-1800-28f10e481d92"/>
                     <display value="Vaste V. Huisarts 1 Responsible Party"/>
                  </valueReference>
               </extension>
               <reference value="urn:oid:2.16.528.1.1007.3.1.1111"/>
               <display value="Vaste V. Huisarts 1 Responsible Party"/>
            </author>
         </Flag>
      </resource>
   </entry>
   <entry>
      <fullUrl value="urn:uuid:cc6bc62d-ac9e-11e9-1800-28f10e481d92"/>
      <resource>
         <Flag>
            <identifier>
               <system value="urn:oid:2.16.840.1.113883.2.4.3.11.999.66.4577"/>
               <value value="100-1"/>
            </identifier>
            <status value="active"/>
            <category>
               <coding>
                  <system value="http://loinc.org"/>
                  <code value="74018-3"/>
                  <display value="Alert"/>
               </coding>
            </category>
            <code>
               <coding>
                  <system value="urn:oid:2.16.840.1.113883.2.4.4.1.902.40"/>
                  <code value="219"/>
                  <display value="Verkeersdeelname"/>
               </coding>
            </code>
            <subject>
               <reference value="urn:uuid:cc6bc613-ac9e-11e9-1800-28f10e481d92"/>
               <display value="Jacqueline J. XXX_Cevat"/>
            </subject>
            <period>
               <start value="${CURRENTDATETIME, d, -100}"/>
            </period>
            <author>
               <extension url="http://nictiz.nl/fhir/StructureDefinition/practitionerrole-reference">
                  <valueReference>
                     <reference value="urn:uuid:cc6bb07a-ac9e-11e9-1800-28f10e481d92"/>
                     <display value="Vaste V. Huisarts 1 Responsible Party"/>
                  </valueReference>
               </extension>
               <reference value="urn:oid:2.16.528.1.1007.3.1.1111"/>
               <display value="Vaste V. Huisarts 1 Responsible Party"/>
            </author>
         </Flag>
      </resource>
   </entry>
   <entry>
      <fullUrl value="urn:uuid:cc6bc613-ac9e-11e9-1800-28f10e481d92"/>
      <resource>
         <Patient>
            <meta>
               <profile value="http://fhir.nl/fhir/StructureDefinition/nl-core-patient"/>
            </meta>
            <identifier>
               <system value="http://example-xis.org/fhir/NamingSystem/patientID"/>
               <value value="1000000003"/>
            </identifier>
            <name>
               <family value="XXX_Cevat">
                  <extension url="http://hl7.org/fhir/StructureDefinition/humanname-own-name">
                     <valueString value="XXX_Cevat"/>
                  </extension>
               </family>
               <given value="Jacqueline">
                  <extension url="http://hl7.org/fhir/StructureDefinition/iso21090-EN-qualifier">
                     <valueCode value="BR"/>
                  </extension>
               </given>
               <given value="J.">
                  <extension url="http://hl7.org/fhir/StructureDefinition/iso21090-EN-qualifier">
                     <valueCode value="IN"/>
                  </extension>
               </given>
            </name>
            <gender value="female"/>
            <birthDate value="1964-07-25"/>
         </Patient>
      </resource>
      <search>
         <mode value="include"/>
      </search>
   </entry>
   <entry>
      <fullUrl value="urn:uuid:cc6bb07a-ac9e-11e9-1800-28f10e481d92"/>
      <resource>
         <PractitionerRole>
            <meta>
               <profile value="http://fhir.nl/fhir/StructureDefinition/nl-core-practitionerrole"/>
            </meta>
            <practitioner>
               <reference value="urn:oid:2.16.528.1.1007.3.1.1111"/>
               <display value="Vaste V. Huisarts 1 Responsible Party"/>
            </practitioner>
            <organization>
               <reference value="urn:oid:2.16.528.1.1007.3.3.3333"/>
               <display value="Aesculaap"/>
            </organization>
            <code>
               <coding>
                  <system value="http://hl7.org/fhir/v3/ParticipationType"/>
                  <code value="RESP"/>
                  <display value="Responsible Party"/>
               </coding>
            </code>
         </PractitionerRole>
      </resource>
      <search>
         <mode value="include"/>
      </search>
   </entry>
   <entry>
      <fullUrl value="urn:oid:2.16.528.1.1007.3.1.1111"/>
      <resource>
         <Practitioner>
            <meta>
               <profile value="http://fhir.nl/fhir/StructureDefinition/nl-core-practitioner"/>
            </meta>
            <identifier>
               <system value="http://fhir.nl/fhir/NamingSystem/uzi-nr-pers"/>
               <value value="000001111"/>
            </identifier>
            <name>
               <family value="Huisarts 1">
                  <extension url="http://hl7.org/fhir/StructureDefinition/humanname-own-name">
                     <valueString value="Huisarts 1"/>
                  </extension>
               </family>
               <given value="Vaste">
                  <extension url="http://hl7.org/fhir/StructureDefinition/iso21090-EN-qualifier">
                     <valueCode value="BR"/>
                  </extension>
               </given>
               <given value="V.">
                  <extension url="http://hl7.org/fhir/StructureDefinition/iso21090-EN-qualifier">
                     <valueCode value="IN"/>
                  </extension>
               </given>
            </name>
         </Practitioner>
      </resource>
      <search>
         <mode value="include"/>
      </search>
   </entry>
   <entry>
      <fullUrl value="urn:oid:2.16.528.1.1007.3.3.3333"/>
      <resource>
         <Organization>
            <meta>
               <profile value="http://fhir.nl/fhir/StructureDefinition/nl-core-organization"/>
            </meta>
            <identifier>
               <system value="http://fhir.nl/fhir/NamingSystem/ura"/>
               <value value="00003333"/>
            </identifier>
            <identifier>
               <system value="http://fhir.nl/fhir/NamingSystem/agb-z"/>
               <value value="06029999"/>
            </identifier>
            <name value="Aesculaap"/>
         </Organization>
      </resource>
      <search>
         <mode value="include"/>
      </search>
   </entry>
   <entry>
      <fullUrl value="urn:uuid:cc6bc607-ac9e-11e9-1800-28f10e481d92"/>
      <resource>
         <Organization>
            <meta>
               <profile value="http://fhir.nl/fhir/StructureDefinition/nl-core-organization"/>
            </meta>
            <identifier>
               <system value="http://fhir.nl/fhir/NamingSystem/ura"/>
               <value value="00003333"/>
            </identifier>
            <identifier>
               <system value="http://fhir.nl/fhir/NamingSystem/agb-z"/>
               <value value="06029999"/>
            </identifier>
            <name value="Aesculaap"/>
            <address>
               <line value="Valkendael 46">
                  <extension url="http://hl7.org/fhir/StructureDefinition/iso21090-ADXP-streetName">
                     <valueString value="Valkendael"/>
                  </extension>
                  <extension url="http://hl7.org/fhir/StructureDefinition/iso21090-ADXP-houseNumber">
                     <valueString value="46"/>
                  </extension>
               </line>
               <city value="Maastricht"/>
               <postalCode value="6245HK"/>
            </address>
         </Organization>
      </resource>
      <search>
         <mode value="include"/>
      </search>
   </entry>
</Bundle>