<?xml-model href="http://hl7.org/fhir/STU3/bundle.sch" type="application/xml" schematypens="http://purl.oclc.org/dsdl/schematron"?><Bundle xmlns="http://hl7.org/fhir"
        xmlns:xsi="http://www.w3.org/2001/XMLSchema-instance"
        xsi:schemaLocation="http://hl7.org/fhir http://hl7.org/fhir/STU3/bundle.xsd">
   <type value="searchset"/>
   <total value="1"/>
   <entry>
      <fullUrl value="urn:uuid:a37cadc8-a302-11e9-6326-020000000000"/>
      <resource>
         <EpisodeOfCare>
            <meta>
               <profile value="http://fhir.nl/fhir/StructureDefinition/nl-core-episodeofcare"/>
            </meta>
            <extension url="http://nictiz.nl/fhir/StructureDefinition/EpisodeOfCare-Title">
               <valueString value="COPD"/>
            </extension>
            <status value="active">
               <extension url="http://nictiz.nl/fhir/StructureDefinition/code-specification">
                  <valueCodeableConcept>
                     <coding>
                        <system value="http://hl7.org/fhir/v3/ActStatus"/>
                        <code value="active"/>
                        <display value="active"/>
                     </coding>
                  </valueCodeableConcept>
               </extension>
            </status>
            <type>
               <coding>
                  <system value="http://snomed.info/sct"/>
                  <code value="64572001"/>
                  <display value="Condition"/>
               </coding>
            </type>
            <diagnosis>
               <condition>
                  <reference value="urn:uuid:a37cadc7-a302-11e9-6326-020000000000"/>
                  <display value="R95 Emfyseem/COPD"/>
               </condition>
            </diagnosis>
            <patient>
               <reference value="urn:uuid:a37cadbe-a302-11e9-6326-020000000000"/>
               <display value="Joris Hansman"/>
            </patient>
            <managingOrganization>
               <reference value="urn:oid:2.16.528.1.1007.3.3.2234567"/>
               <display value="Bester"/>
            </managingOrganization>
         </EpisodeOfCare>
      </resource>
      <search>
         <mode value="match"/>
      </search>
   </entry>
   <entry>
      <fullUrl value="urn:uuid:a37cadc7-a302-11e9-6326-020000000000"/>
      <resource>
         <Condition>
            <meta>
               <profile value="http://nictiz.nl/fhir/StructureDefinition/zib-Problem"/>
            </meta>
            <clinicalStatus value="active"/>
            <category>
               <coding>
                  <system value="http://snomed.info/sct"/>
                  <code value="282291009"/>
                  <display value="Diagnosis"/>
               </coding>
            </category>
            <code>
               <coding>
                  <system value="http://hl7.org/fhir/sid/icpc-1-nl"/>
                  <code value="R95"/>
                  <display value="Emfyseem/COPD"/>
               </coding>
            </code>
            <subject>
               <reference value="urn:uuid:a37cadbe-a302-11e9-6326-020000000000"/>
               <display value="Joris Hansman"/>
            </subject>
            <onsetPeriod>
               <start value="2015-08-10"/>
            </onsetPeriod>
         </Condition>
      </resource>
      <search>
         <mode value="include"/>
      </search>
   </entry>
   <entry>
      <fullUrl value="urn:uuid:a37cadbe-a302-11e9-6326-020000000000"/>
      <resource>
         <Patient>
            <meta>
               <profile value="http://fhir.nl/fhir/StructureDefinition/nl-core-patient"/>
            </meta>
            <identifier>
               <system value="http://fhir.nl/fhir/NamingSystem/bsn"/>
               <value value="012345672"/>
            </identifier>
            <name>
               <extension url="http://hl7.org/fhir/StructureDefinition/humanname-assembly-order">
                  <valueCode value="UNK"/>
               </extension>
               <family value="Hansman">
                  <extension url="http://hl7.org/fhir/StructureDefinition/humanname-own-name">
                     <valueString value="Hansman"/>
                  </extension>
               </family>
               <given value="Joris">
                  <extension url="http://hl7.org/fhir/StructureDefinition/iso21090-EN-qualifier">
                     <valueCode value="BR"/>
                  </extension>
               </given>
            </name>
            <gender value="male"/>
         </Patient>
      </resource>
      <search>
         <mode value="include"/>
      </search>
   </entry>
   <entry>
      <fullUrl value="urn:oid:2.16.528.1.1007.3.3.2234567"/>
      <resource>
         <Organization>
            <meta>
               <profile value="http://fhir.nl/fhir/StructureDefinition/nl-core-organization"/>
            </meta>
            <identifier>
               <system value="http://fhir.nl/fhir/NamingSystem/ura"/>
               <value value="02234567"/>
            </identifier>
            <name value="Bester"/>
         </Organization>
      </resource>
      <search>
         <mode value="include"/>
      </search>
   </entry>
</Bundle>
