<?xml-model href="http://hl7.org/fhir/STU3/bundle.sch" type="application/xml" schematypens="http://purl.oclc.org/dsdl/schematron"?>
<Bundle xsi:schemaLocation="http://hl7.org/fhir http://hl7.org/fhir/STU3/fhir-all.xsd"
        xmlns:xsi="http://www.w3.org/2001/XMLSchema-instance"
        xmlns="http://hl7.org/fhir">
   <id value="7d57f78a-a2da-11ef-6540-020000000000"/>
   <type value="searchset"/>
   <total value="21"/>
   <link>
      <relation value="self"/>
      <url value="http://dummy.nictiz.nl/dummyquery"/>
   </link>
   <entry>
      <fullUrl value="https://example.org/fhir/Observation/2.16.840.1.113883.2.4.3.39.6101.64740.90001234.22-647660"/>
      <resource>
         <Observation>
            <id value="2.16.840.1.113883.2.4.3.39.6101.64740.90001234.22-647660"/>
            <meta>
               <profile value="http://nictiz.nl/fhir/StructureDefinition/gp-DiagnosticResult"/>
            </meta>
            <text>
               <status value="extensions"/>
               <div xmlns="http://www.w3.org/1999/xhtml">
                  <table>
                     <caption>Observatie/bepaling. Subject: J. XXX_Cevat. Id: 647660 (urn:oid:2.16.840.1.113883.2.4.3.39.6101.64740.90001234.22), Status: definitief</caption>
                     <tbody>
                        <tr>
                           <th>Context</th>
                           <td colspan="2">Contact ID: 2116503 2.16.840.1.113883.2.4.3.39.6101.62128.90012345.4 (Id: 2116503 (urn:oid:2.16.840.1.113883.2.4.3.39.6101.62128.90012345.4))</td>
                        </tr>
                        <tr>
                           <th>Bepalingdatum/tijd</th>
                           <td colspan="2">28 februari 2024</td>
                        </tr>
                        <tr>
                           <th>Code</th>
                           <th>Waarde</th>
                           <th>Referentiewaarden</th>
                        </tr>
                        <tr>
                           <td>
                              <span title="4DKL angstscore (2811 - nhg-tabel-45-diagnostische-bepalingen)">4DKL angstscore</span>
                           </td>
                           <td>0</td>
                           <td>
                              <div>
                                 <span title="Normal Range (normal - referencerange-meaning)">Normal Range</span> 0.00 - 3.00</div>
                           </td>
                        </tr>
                     </tbody>
                  </table>
               </div>
            </text>
            <identifier>
               <system value="urn:oid:2.16.840.1.113883.2.4.3.39.6101.64740.90001234.22"/>
               <value value="647660"/>
            </identifier>
            <status value="final"/>
            <code>
               <coding>
                  <system value="https://referentiemodel.nhg.org/tabellen/nhg-tabel-45-diagnostische-bepalingen"/>
                  <version value="v41"/>
                  <code value="2811"/>
                  <display value="4DKL angstscore"/>
               </coding>
            </code>
            <subject>
               <reference value="urn:uuid:7d580582-a2da-11ef-6540-020000000000"/>
               <display value="J. XXX_Cevat"/>
            </subject>
            <context>
               <identifier>
                  <system value="urn:oid:2.16.840.1.113883.2.4.3.39.6101.62128.90012345.4"/>
                  <value value="2116503"/>
               </identifier>
               <display value="Contact ID: 2116503 2.16.840.1.113883.2.4.3.39.6101.62128.90012345.4"/>
            </context>
            <effectiveDateTime value="2024-02-28"/>
            <valueBoolean value="0"/>
            <referenceRange>
               <low>
                  <value value="0.00"/>
               </low>
               <high>
                  <value value="3.00"/>
               </high>
               <type>
                  <coding>
                     <system value="http://hl7.org/fhir/referencerange-meaning"/>
                     <code value="normal"/>
                     <display value="Normal Range"/>
                  </coding>
               </type>
            </referenceRange>
         </Observation>
      </resource>
      <search>
         <mode value="match"/>
      </search>
   </entry>
   <entry>
      <fullUrl value="https://example.org/fhir/Observation/2.16.840.1.113883.2.4.3.39.6101.64740.90001234.22-647659"/>
      <resource>
         <Observation>
            <id value="2.16.840.1.113883.2.4.3.39.6101.64740.90001234.22-647659"/>
            <meta>
               <profile value="http://nictiz.nl/fhir/StructureDefinition/gp-DiagnosticResult"/>
            </meta>
            <text>
               <status value="extensions"/>
               <div xmlns="http://www.w3.org/1999/xhtml">
                  <table>
                     <caption>Observatie/bepaling. Subject: J. XXX_Cevat. Id: 647659 (urn:oid:2.16.840.1.113883.2.4.3.39.6101.64740.90001234.22), Status: definitief</caption>
                     <tbody>
                        <tr>
                           <th>Context</th>
                           <td>Contact ID: 1139712 2.16.840.1.113883.2.4.3.39.6101.64740.90001234.4 (Id: 1139712 (urn:oid:2.16.840.1.113883.2.4.3.39.6101.64740.90001234.4))</td>
                        </tr>
                        <tr>
                           <th>Bepalingdatum/tijd</th>
                           <td>26 juli 2024</td>
                        </tr>
                        <tr>
                           <th>Code</th>
                           <th>Waarde</th>
                        </tr>
                        <tr>
                           <td>
                              <span title="alcoholgebruik (1591 - nhg-tabel-45-diagnostische-bepalingen)">alcoholgebruik</span>
                           </td>
                           <td>0</td>
                        </tr>
                     </tbody>
                  </table>
               </div>
            </text>
            <identifier>
               <system value="urn:oid:2.16.840.1.113883.2.4.3.39.6101.64740.90001234.22"/>
               <value value="647659"/>
            </identifier>
            <status value="final"/>
            <code>
               <coding>
                  <system value="https://referentiemodel.nhg.org/tabellen/nhg-tabel-45-diagnostische-bepalingen"/>
                  <version value="v42"/>
                  <code value="1591"/>
                  <display value="alcoholgebruik"/>
               </coding>
            </code>
            <subject>
               <reference value="urn:uuid:7d580582-a2da-11ef-6540-020000000000"/>
               <display value="J. XXX_Cevat"/>
            </subject>
            <context>
               <identifier>
                  <system value="urn:oid:2.16.840.1.113883.2.4.3.39.6101.64740.90001234.4"/>
                  <value value="1139712"/>
               </identifier>
               <display value="Contact ID: 1139712 2.16.840.1.113883.2.4.3.39.6101.64740.90001234.4"/>
            </context>
            <effectiveDateTime value="2024-07-26"/>
            <valueBoolean value="0"/>
         </Observation>
      </resource>
      <search>
         <mode value="match"/>
      </search>
   </entry>
   <entry>
      <fullUrl value="https://example.org/fhir/Observation/2.16.840.1.113883.2.4.3.111.19.1-MedMijHG-AlgBep-C12-01"/>
      <resource>
         <Observation>
            <id value="2.16.840.1.113883.2.4.3.111.19.1-MedMijHG-AlgBep-C12-01"/>
            <meta>
               <profile value="http://nictiz.nl/fhir/StructureDefinition/gp-DiagnosticResult"/>
            </meta>
            <text>
               <status value="extensions"/>
               <div xmlns="http://www.w3.org/1999/xhtml">
                  <table>
                     <caption>Observatie/bepaling. Subject: J. XXX_Cevat. Id: MedMijHG-AlgBep-C12-01 (urn:oid:2.16.840.1.113883.2.4.3.111.19.1), Status: definitief</caption>
                     <tbody>
                        <tr>
                           <th>Context</th>
                           <td>
                              <ul>
                                 <li>Episode ID: MedMijHG-concern-R21.01 2.16.840.1.113883.2.4.3.111.19.1 (Id: MedMijHG-concern-R21.01 (urn:oid:2.16.840.1.113883.2.4.3.111.19.1))</li>
                                 <li>Contact ID: MedMijHG-contactmoment12 2.16.840.1.113883.2.4.3.111.19.1 (Id: MedMijHG-contactmoment12 (urn:oid:2.16.840.1.113883.2.4.3.111.19.1))</li>
                              </ul>
                           </td>
                        </tr>
                        <tr>
                           <th>Bepalingdatum/tijd</th>
                           <td>15:43:59, 13 juni 2021</td>
                        </tr>
                        <tr>
                           <th>Code</th>
                           <th>Waarde</th>
                        </tr>
                        <tr>
                           <td>
                              <span title="Temperatuur (oraal gemeten) (1915 - nhg-tabel-45-diagnostische-bepalingen)">Temperatuur (oraal gemeten)</span>
                           </td>
                           <td>37.4 Cel</td>
                        </tr>
                     </tbody>
                  </table>
               </div>
            </text>
            <extension url="http://nictiz.nl/fhir/StructureDefinition/extension-context-nl-core-episodeofcare">
               <valueReference>
                  <identifier>
                     <system value="urn:oid:2.16.840.1.113883.2.4.3.111.19.1"/>
                     <value value="MedMijHG-concern-R21.01"/>
                  </identifier>
                  <display value="Episode ID: MedMijHG-concern-R21.01 2.16.840.1.113883.2.4.3.111.19.1"/>
               </valueReference>
            </extension>
            <identifier>
               <system value="urn:oid:2.16.840.1.113883.2.4.3.111.19.1"/>
               <value value="MedMijHG-AlgBep-C12-01"/>
            </identifier>
            <status value="final"/>
            <code>
               <coding>
                  <system value="https://referentiemodel.nhg.org/tabellen/nhg-tabel-45-diagnostische-bepalingen"/>
                  <version value="20"/>
                  <code value="1915"/>
                  <display value="Temperatuur (oraal gemeten)"/>
               </coding>
            </code>
            <subject>
               <reference value="urn:uuid:7d580582-a2da-11ef-6540-020000000000"/>
               <display value="J. XXX_Cevat"/>
            </subject>
            <context>
               <identifier>
                  <system value="urn:oid:2.16.840.1.113883.2.4.3.111.19.1"/>
                  <value value="MedMijHG-contactmoment12"/>
               </identifier>
               <display value="Contact ID: MedMijHG-contactmoment12 2.16.840.1.113883.2.4.3.111.19.1"/>
            </context>
            <effectiveDateTime value="2021-06-13T15:43:59+02:00"/>
            <valueQuantity>
               <value value="37.4"/>
               <unit value="Cel"/>
               <system value="http://unitsofmeasure.org"/>
               <code value="Cel"/>
            </valueQuantity>
         </Observation>
      </resource>
      <search>
         <mode value="match"/>
      </search>
   </entry>
   <entry>
      <fullUrl value="https://example.org/fhir/Observation/2.16.840.1.113883.2.4.3.111.19.1-MedMijHG-AlgBep-C16-01"/>
      <resource>
         <Observation>
            <id value="2.16.840.1.113883.2.4.3.111.19.1-MedMijHG-AlgBep-C16-01"/>
            <meta>
               <profile value="http://nictiz.nl/fhir/StructureDefinition/gp-DiagnosticResult"/>
            </meta>
            <text>
               <status value="extensions"/>
               <div xmlns="http://www.w3.org/1999/xhtml">
                  <table>
                     <caption>Observatie/bepaling. Subject: J. XXX_Cevat. Id: MedMijHG-AlgBep-C16-01 (urn:oid:2.16.840.1.113883.2.4.3.111.19.1), Status: definitief</caption>
                     <tbody>
                        <tr>
                           <th>Context</th>
                           <td>
                              <ul>
                                 <li>Episode ID: MedMijHG-concern-L86.01 2.16.840.1.113883.2.4.3.111.19.1 (Id: MedMijHG-concern-L86.01 (urn:oid:2.16.840.1.113883.2.4.3.111.19.1))</li>
                                 <li>Contact ID: MedMijHG-contactmoment16 2.16.840.1.113883.2.4.3.111.19.1 (Id: MedMijHG-contactmoment16 (urn:oid:2.16.840.1.113883.2.4.3.111.19.1))</li>
                              </ul>
                           </td>
                        </tr>
                        <tr>
                           <th>Bepalingdatum/tijd</th>
                           <td>15:43:59, 8 juni 2021</td>
                        </tr>
                        <tr>
                           <th>Code</th>
                           <th>Waarde</th>
                        </tr>
                        <tr>
                           <td>
                              <span title="CT-onderrug/lumbale wervelkolom (2283 - nhg-tabel-45-diagnostische-bepalingen)">CT-onderrug/lumbale wervelkolom</span>
                           </td>
                           <td>Duidelijke uitstulping L02</td>
                        </tr>
                     </tbody>
                  </table>
               </div>
            </text>
            <extension url="http://nictiz.nl/fhir/StructureDefinition/extension-context-nl-core-episodeofcare">
               <valueReference>
                  <identifier>
                     <system value="urn:oid:2.16.840.1.113883.2.4.3.111.19.1"/>
                     <value value="MedMijHG-concern-L86.01"/>
                  </identifier>
                  <display value="Episode ID: MedMijHG-concern-L86.01 2.16.840.1.113883.2.4.3.111.19.1"/>
               </valueReference>
            </extension>
            <identifier>
               <system value="urn:oid:2.16.840.1.113883.2.4.3.111.19.1"/>
               <value value="MedMijHG-AlgBep-C16-01"/>
            </identifier>
            <status value="final"/>
            <code>
               <coding>
                  <system value="https://referentiemodel.nhg.org/tabellen/nhg-tabel-45-diagnostische-bepalingen"/>
                  <version value="20"/>
                  <code value="2283"/>
                  <display value="CT-onderrug/lumbale wervelkolom"/>
               </coding>
            </code>
            <subject>
               <reference value="urn:uuid:7d580582-a2da-11ef-6540-020000000000"/>
               <display value="J. XXX_Cevat"/>
            </subject>
            <context>
               <identifier>
                  <system value="urn:oid:2.16.840.1.113883.2.4.3.111.19.1"/>
                  <value value="MedMijHG-contactmoment16"/>
               </identifier>
               <display value="Contact ID: MedMijHG-contactmoment16 2.16.840.1.113883.2.4.3.111.19.1"/>
            </context>
            <effectiveDateTime value="2021-06-08T15:43:59+02:00"/>
            <valueString value="Duidelijke uitstulping L02"/>
         </Observation>
      </resource>
      <search>
         <mode value="match"/>
      </search>
   </entry>
   <entry>
      <fullUrl value="https://example.org/fhir/Observation/2.16.840.1.113883.2.4.3.111.19.1-MedMijHG-AlgBep-C11-01"/>
      <resource>
         <Observation>
            <id value="2.16.840.1.113883.2.4.3.111.19.1-MedMijHG-AlgBep-C11-01"/>
            <meta>
               <profile value="http://nictiz.nl/fhir/StructureDefinition/gp-DiagnosticResult"/>
            </meta>
            <text>
               <status value="extensions"/>
               <div xmlns="http://www.w3.org/1999/xhtml">
                  <table>
                     <caption>Observatie/bepaling. Subject: J. XXX_Cevat. Id: MedMijHG-AlgBep-C11-01 (urn:oid:2.16.840.1.113883.2.4.3.111.19.1), Status: definitief</caption>
                     <tbody>
                        <tr>
                           <th>Context</th>
                           <td>
                              <ul>
                                 <li>Episode ID: MedMijHG-concern-R21.01 2.16.840.1.113883.2.4.3.111.19.1 (Id: MedMijHG-concern-R21.01 (urn:oid:2.16.840.1.113883.2.4.3.111.19.1))</li>
                                 <li>Contact ID: MedMijHG-contactmoment11 2.16.840.1.113883.2.4.3.111.19.1 (Id: MedMijHG-contactmoment11 (urn:oid:2.16.840.1.113883.2.4.3.111.19.1))</li>
                              </ul>
                           </td>
                        </tr>
                        <tr>
                           <th>Bepalingdatum/tijd</th>
                           <td>15:43:59, 4 mei 2021</td>
                        </tr>
                        <tr>
                           <th>Code</th>
                           <th>Waarde</th>
                        </tr>
                        <tr>
                           <td>
                              <span title="Temperatuur (oraal gemeten) (1915 - nhg-tabel-45-diagnostische-bepalingen)">Temperatuur (oraal gemeten)</span>
                           </td>
                           <td>37.7 Cel</td>
                        </tr>
                     </tbody>
                  </table>
               </div>
            </text>
            <extension url="http://nictiz.nl/fhir/StructureDefinition/extension-context-nl-core-episodeofcare">
               <valueReference>
                  <identifier>
                     <system value="urn:oid:2.16.840.1.113883.2.4.3.111.19.1"/>
                     <value value="MedMijHG-concern-R21.01"/>
                  </identifier>
                  <display value="Episode ID: MedMijHG-concern-R21.01 2.16.840.1.113883.2.4.3.111.19.1"/>
               </valueReference>
            </extension>
            <identifier>
               <system value="urn:oid:2.16.840.1.113883.2.4.3.111.19.1"/>
               <value value="MedMijHG-AlgBep-C11-01"/>
            </identifier>
            <status value="final"/>
            <code>
               <coding>
                  <system value="https://referentiemodel.nhg.org/tabellen/nhg-tabel-45-diagnostische-bepalingen"/>
                  <version value="20"/>
                  <code value="1915"/>
                  <display value="Temperatuur (oraal gemeten)"/>
               </coding>
            </code>
            <subject>
               <reference value="urn:uuid:7d580582-a2da-11ef-6540-020000000000"/>
               <display value="J. XXX_Cevat"/>
            </subject>
            <context>
               <identifier>
                  <system value="urn:oid:2.16.840.1.113883.2.4.3.111.19.1"/>
                  <value value="MedMijHG-contactmoment11"/>
               </identifier>
               <display value="Contact ID: MedMijHG-contactmoment11 2.16.840.1.113883.2.4.3.111.19.1"/>
            </context>
            <effectiveDateTime value="2021-05-04T15:43:59+02:00"/>
            <valueQuantity>
               <value value="37.7"/>
               <unit value="Cel"/>
               <system value="http://unitsofmeasure.org"/>
               <code value="Cel"/>
            </valueQuantity>
         </Observation>
      </resource>
      <search>
         <mode value="match"/>
      </search>
   </entry>
   <entry>
      <fullUrl value="https://example.org/fhir/Observation/2.16.840.1.113883.2.4.3.111.19.1-MedMijHG-AlgBep-C10-01"/>
      <resource>
         <Observation>
            <id value="2.16.840.1.113883.2.4.3.111.19.1-MedMijHG-AlgBep-C10-01"/>
            <meta>
               <profile value="http://nictiz.nl/fhir/StructureDefinition/gp-DiagnosticResult"/>
            </meta>
            <text>
               <status value="extensions"/>
               <div xmlns="http://www.w3.org/1999/xhtml">
                  <table>
                     <caption>Observatie/bepaling. Subject: J. XXX_Cevat. Id: MedMijHG-AlgBep-C10-01 (urn:oid:2.16.840.1.113883.2.4.3.111.19.1), Status: definitief</caption>
                     <tbody>
                        <tr>
                           <th>Context</th>
                           <td>
                              <ul>
                                 <li>Episode ID: MedMijHG-concern-R21.01 2.16.840.1.113883.2.4.3.111.19.1 (Id: MedMijHG-concern-R21.01 (urn:oid:2.16.840.1.113883.2.4.3.111.19.1))</li>
                                 <li>Contact ID: MedMijHG-contactmoment10 2.16.840.1.113883.2.4.3.111.19.1 (Id: MedMijHG-contactmoment10 (urn:oid:2.16.840.1.113883.2.4.3.111.19.1))</li>
                              </ul>
                           </td>
                        </tr>
                        <tr>
                           <th>Bepalingdatum/tijd</th>
                           <td>15:43:59, 4 mei 2021</td>
                        </tr>
                        <tr>
                           <th>Code</th>
                           <th>Waarde</th>
                        </tr>
                        <tr>
                           <td>
                              <span title="Temperatuur (oraal gemeten) (1915 - nhg-tabel-45-diagnostische-bepalingen)">Temperatuur (oraal gemeten)</span>
                           </td>
                           <td>37.3 Cel</td>
                        </tr>
                     </tbody>
                  </table>
               </div>
            </text>
            <extension url="http://nictiz.nl/fhir/StructureDefinition/extension-context-nl-core-episodeofcare">
               <valueReference>
                  <identifier>
                     <system value="urn:oid:2.16.840.1.113883.2.4.3.111.19.1"/>
                     <value value="MedMijHG-concern-R21.01"/>
                  </identifier>
                  <display value="Episode ID: MedMijHG-concern-R21.01 2.16.840.1.113883.2.4.3.111.19.1"/>
               </valueReference>
            </extension>
            <identifier>
               <system value="urn:oid:2.16.840.1.113883.2.4.3.111.19.1"/>
               <value value="MedMijHG-AlgBep-C10-01"/>
            </identifier>
            <status value="final"/>
            <code>
               <coding>
                  <system value="https://referentiemodel.nhg.org/tabellen/nhg-tabel-45-diagnostische-bepalingen"/>
                  <version value="20"/>
                  <code value="1915"/>
                  <display value="Temperatuur (oraal gemeten)"/>
               </coding>
            </code>
            <subject>
               <reference value="urn:uuid:7d580582-a2da-11ef-6540-020000000000"/>
               <display value="J. XXX_Cevat"/>
            </subject>
            <context>
               <identifier>
                  <system value="urn:oid:2.16.840.1.113883.2.4.3.111.19.1"/>
                  <value value="MedMijHG-contactmoment10"/>
               </identifier>
               <display value="Contact ID: MedMijHG-contactmoment10 2.16.840.1.113883.2.4.3.111.19.1"/>
            </context>
            <effectiveDateTime value="2021-05-04T15:43:59+02:00"/>
            <valueQuantity>
               <value value="37.3"/>
               <unit value="Cel"/>
               <system value="http://unitsofmeasure.org"/>
               <code value="Cel"/>
            </valueQuantity>
         </Observation>
      </resource>
      <search>
         <mode value="match"/>
      </search>
   </entry>
   <entry>
      <fullUrl value="https://example.org/fhir/Observation/2.16.840.1.113883.2.4.3.111.19.1-MedMijHG-AlgBep-C06-01"/>
      <resource>
         <Observation>
            <id value="2.16.840.1.113883.2.4.3.111.19.1-MedMijHG-AlgBep-C06-01"/>
            <meta>
               <profile value="http://nictiz.nl/fhir/StructureDefinition/gp-DiagnosticResult"/>
            </meta>
            <text>
               <status value="extensions"/>
               <div xmlns="http://www.w3.org/1999/xhtml">
                  <table>
                     <caption>Observatie/bepaling. Subject: J. XXX_Cevat. Id: MedMijHG-AlgBep-C06-01 (urn:oid:2.16.840.1.113883.2.4.3.111.19.1), Status: definitief</caption>
                     <tbody>
                        <tr>
                           <th>Context</th>
                           <td>
                              <ul>
                                 <li>Episode ID: MedMijHG-concern-R21.01 2.16.840.1.113883.2.4.3.111.19.1 (Id: MedMijHG-concern-R21.01 (urn:oid:2.16.840.1.113883.2.4.3.111.19.1))</li>
                                 <li>Contact ID: MedMijHG-contactmoment06 2.16.840.1.113883.2.4.3.111.19.1 (Id: MedMijHG-contactmoment06 (urn:oid:2.16.840.1.113883.2.4.3.111.19.1))</li>
                              </ul>
                           </td>
                        </tr>
                        <tr>
                           <th>Bepalingdatum/tijd</th>
                           <td>15:43:59, 5 maart 2021</td>
                        </tr>
                        <tr>
                           <th>Code</th>
                           <th>Waarde</th>
                        </tr>
                        <tr>
                           <td>
                              <span title="Temperatuur (oraal gemeten) (1915 - nhg-tabel-45-diagnostische-bepalingen)">Temperatuur (oraal gemeten)</span>
                           </td>
                           <td>37.4 Cel</td>
                        </tr>
                     </tbody>
                  </table>
               </div>
            </text>
            <extension url="http://nictiz.nl/fhir/StructureDefinition/extension-context-nl-core-episodeofcare">
               <valueReference>
                  <identifier>
                     <system value="urn:oid:2.16.840.1.113883.2.4.3.111.19.1"/>
                     <value value="MedMijHG-concern-R21.01"/>
                  </identifier>
                  <display value="Episode ID: MedMijHG-concern-R21.01 2.16.840.1.113883.2.4.3.111.19.1"/>
               </valueReference>
            </extension>
            <identifier>
               <system value="urn:oid:2.16.840.1.113883.2.4.3.111.19.1"/>
               <value value="MedMijHG-AlgBep-C06-01"/>
            </identifier>
            <status value="final"/>
            <code>
               <coding>
                  <system value="https://referentiemodel.nhg.org/tabellen/nhg-tabel-45-diagnostische-bepalingen"/>
                  <version value="20"/>
                  <code value="1915"/>
                  <display value="Temperatuur (oraal gemeten)"/>
               </coding>
            </code>
            <subject>
               <reference value="urn:uuid:7d580582-a2da-11ef-6540-020000000000"/>
               <display value="J. XXX_Cevat"/>
            </subject>
            <context>
               <identifier>
                  <system value="urn:oid:2.16.840.1.113883.2.4.3.111.19.1"/>
                  <value value="MedMijHG-contactmoment06"/>
               </identifier>
               <display value="Contact ID: MedMijHG-contactmoment06 2.16.840.1.113883.2.4.3.111.19.1"/>
            </context>
            <effectiveDateTime value="2021-03-05T15:43:59+01:00"/>
            <valueQuantity>
               <value value="37.4"/>
               <unit value="Cel"/>
               <system value="http://unitsofmeasure.org"/>
               <code value="Cel"/>
            </valueQuantity>
         </Observation>
      </resource>
      <search>
         <mode value="match"/>
      </search>
   </entry>
   <entry>
      <fullUrl value="https://example.org/fhir/Observation/2.16.840.1.113883.2.4.3.111.19.1-MedMijHG-AlgBep-C03-01"/>
      <resource>
         <Observation>
            <id value="2.16.840.1.113883.2.4.3.111.19.1-MedMijHG-AlgBep-C03-01"/>
            <meta>
               <profile value="http://nictiz.nl/fhir/StructureDefinition/gp-DiagnosticResult"/>
            </meta>
            <text>
               <status value="extensions"/>
               <div xmlns="http://www.w3.org/1999/xhtml">
                  <table>
                     <caption>Observatie/bepaling. Subject: J. XXX_Cevat. Id: MedMijHG-AlgBep-C03-01 (urn:oid:2.16.840.1.113883.2.4.3.111.19.1), Status: definitief</caption>
                     <tbody>
                        <tr>
                           <th>Context</th>
                           <td>Contact ID: MedMijHG-contactmoment03 2.16.840.1.113883.2.4.3.111.19.1 (Id: MedMijHG-contactmoment03 (urn:oid:2.16.840.1.113883.2.4.3.111.19.1))</td>
                        </tr>
                        <tr>
                           <th>Bepalingdatum/tijd</th>
                           <td>15:43:59, 7 augustus 2020</td>
                        </tr>
                        <tr>
                           <th>Code</th>
                           <th>Waarde</th>
                        </tr>
                        <tr>
                           <td>
                              <span title="Systolische bloeddruk (1744 - nhg-tabel-45-diagnostische-bepalingen)">Systolische bloeddruk</span>
                           </td>
                           <td>188 mm[Hg]</td>
                        </tr>
                     </tbody>
                  </table>
               </div>
            </text>
            <identifier>
               <system value="urn:oid:2.16.840.1.113883.2.4.3.111.19.1"/>
               <value value="MedMijHG-AlgBep-C03-01"/>
            </identifier>
            <status value="final"/>
            <code>
               <coding>
                  <system value="https://referentiemodel.nhg.org/tabellen/nhg-tabel-45-diagnostische-bepalingen"/>
                  <version value="20"/>
                  <code value="1744"/>
                  <display value="Systolische bloeddruk"/>
               </coding>
            </code>
            <subject>
               <reference value="urn:uuid:7d580582-a2da-11ef-6540-020000000000"/>
               <display value="J. XXX_Cevat"/>
            </subject>
            <context>
               <identifier>
                  <system value="urn:oid:2.16.840.1.113883.2.4.3.111.19.1"/>
                  <value value="MedMijHG-contactmoment03"/>
               </identifier>
               <display value="Contact ID: MedMijHG-contactmoment03 2.16.840.1.113883.2.4.3.111.19.1"/>
            </context>
            <effectiveDateTime value="2020-08-07T15:43:59+02:00"/>
            <valueQuantity>
               <value value="188"/>
               <unit value="mm[Hg]"/>
               <system value="http://unitsofmeasure.org"/>
               <code value="mm[Hg]"/>
            </valueQuantity>
         </Observation>
      </resource>
      <search>
         <mode value="match"/>
      </search>
   </entry>
   <entry>
      <fullUrl value="https://example.org/fhir/Observation/2.16.840.1.113883.2.4.3.111.19.1-MedMijHG-AlgBep-C03-02"/>
      <resource>
         <Observation>
            <id value="2.16.840.1.113883.2.4.3.111.19.1-MedMijHG-AlgBep-C03-02"/>
            <meta>
               <profile value="http://nictiz.nl/fhir/StructureDefinition/gp-DiagnosticResult"/>
            </meta>
            <text>
               <status value="extensions"/>
               <div xmlns="http://www.w3.org/1999/xhtml">
                  <table>
                     <caption>Observatie/bepaling. Subject: J. XXX_Cevat. Id: MedMijHG-AlgBep-C03-02 (urn:oid:2.16.840.1.113883.2.4.3.111.19.1), Status: definitief</caption>
                     <tbody>
                        <tr>
                           <th>Context</th>
                           <td>Contact ID: MedMijHG-contactmoment03 2.16.840.1.113883.2.4.3.111.19.1 (Id: MedMijHG-contactmoment03 (urn:oid:2.16.840.1.113883.2.4.3.111.19.1))</td>
                        </tr>
                        <tr>
                           <th>Bepalingdatum/tijd</th>
                           <td>15:43:59, 7 augustus 2020</td>
                        </tr>
                        <tr>
                           <th>Code</th>
                           <th>Waarde</th>
                        </tr>
                        <tr>
                           <td>
                              <span title="Diastolische bloeddruk (1740 - nhg-tabel-45-diagnostische-bepalingen)">Diastolische bloeddruk</span>
                           </td>
                           <td>96 mm[Hg]</td>
                        </tr>
                     </tbody>
                  </table>
               </div>
            </text>
            <identifier>
               <system value="urn:oid:2.16.840.1.113883.2.4.3.111.19.1"/>
               <value value="MedMijHG-AlgBep-C03-02"/>
            </identifier>
            <status value="final"/>
            <code>
               <coding>
                  <system value="https://referentiemodel.nhg.org/tabellen/nhg-tabel-45-diagnostische-bepalingen"/>
                  <version value="20"/>
                  <code value="1740"/>
                  <display value="Diastolische bloeddruk"/>
               </coding>
            </code>
            <subject>
               <reference value="urn:uuid:7d580582-a2da-11ef-6540-020000000000"/>
               <display value="J. XXX_Cevat"/>
            </subject>
            <context>
               <identifier>
                  <system value="urn:oid:2.16.840.1.113883.2.4.3.111.19.1"/>
                  <value value="MedMijHG-contactmoment03"/>
               </identifier>
               <display value="Contact ID: MedMijHG-contactmoment03 2.16.840.1.113883.2.4.3.111.19.1"/>
            </context>
            <effectiveDateTime value="2020-08-07T15:43:59+02:00"/>
            <valueQuantity>
               <value value="96"/>
               <unit value="mm[Hg]"/>
               <system value="http://unitsofmeasure.org"/>
               <code value="mm[Hg]"/>
            </valueQuantity>
         </Observation>
      </resource>
      <search>
         <mode value="match"/>
      </search>
   </entry>
   <entry>
      <fullUrl value="https://example.org/fhir/Observation/2.16.840.1.113883.2.4.3.111.19.1-MedMijHG-AlgBep-C03-03"/>
      <resource>
         <Observation>
            <id value="2.16.840.1.113883.2.4.3.111.19.1-MedMijHG-AlgBep-C03-03"/>
            <meta>
               <profile value="http://nictiz.nl/fhir/StructureDefinition/gp-DiagnosticResult"/>
            </meta>
            <text>
               <status value="extensions"/>
               <div xmlns="http://www.w3.org/1999/xhtml">
                  <table>
                     <caption>Observatie/bepaling. Subject: J. XXX_Cevat. Id: MedMijHG-AlgBep-C03-03 (urn:oid:2.16.840.1.113883.2.4.3.111.19.1), Status: definitief</caption>
                     <tbody>
                        <tr>
                           <th>Context</th>
                           <td>Contact ID: MedMijHG-contactmoment03 2.16.840.1.113883.2.4.3.111.19.1 (Id: MedMijHG-contactmoment03 (urn:oid:2.16.840.1.113883.2.4.3.111.19.1))</td>
                        </tr>
                        <tr>
                           <th>Bepalingdatum/tijd</th>
                           <td>15:43:59, 7 augustus 2020</td>
                        </tr>
                        <tr>
                           <th>Code</th>
                           <th>Waarde</th>
                        </tr>
                        <tr>
                           <td>
                              <span title="Polsfrequentie (1875 - nhg-tabel-45-diagnostische-bepalingen)">Polsfrequentie</span>
                           </td>
                           <td>104 /min</td>
                        </tr>
                     </tbody>
                  </table>
               </div>
            </text>
            <identifier>
               <system value="urn:oid:2.16.840.1.113883.2.4.3.111.19.1"/>
               <value value="MedMijHG-AlgBep-C03-03"/>
            </identifier>
            <status value="final"/>
            <code>
               <coding>
                  <system value="https://referentiemodel.nhg.org/tabellen/nhg-tabel-45-diagnostische-bepalingen"/>
                  <version value="20"/>
                  <code value="1875"/>
                  <display value="Polsfrequentie"/>
               </coding>
            </code>
            <subject>
               <reference value="urn:uuid:7d580582-a2da-11ef-6540-020000000000"/>
               <display value="J. XXX_Cevat"/>
            </subject>
            <context>
               <identifier>
                  <system value="urn:oid:2.16.840.1.113883.2.4.3.111.19.1"/>
                  <value value="MedMijHG-contactmoment03"/>
               </identifier>
               <display value="Contact ID: MedMijHG-contactmoment03 2.16.840.1.113883.2.4.3.111.19.1"/>
            </context>
            <effectiveDateTime value="2020-08-07T15:43:59+02:00"/>
            <valueQuantity>
               <value value="104"/>
               <unit value="/min"/>
               <system value="http://unitsofmeasure.org"/>
               <code value="/min"/>
            </valueQuantity>
         </Observation>
      </resource>
      <search>
         <mode value="match"/>
      </search>
   </entry>
   <entry>
      <fullUrl value="https://example.org/fhir/Observation/2.16.840.1.113883.2.4.3.111.19.1-MedMijHG-AlgBep-C02-01"/>
      <resource>
         <Observation>
            <id value="2.16.840.1.113883.2.4.3.111.19.1-MedMijHG-AlgBep-C02-01"/>
            <meta>
               <profile value="http://nictiz.nl/fhir/StructureDefinition/gp-DiagnosticResult"/>
            </meta>
            <text>
               <status value="extensions"/>
               <div xmlns="http://www.w3.org/1999/xhtml">
                  <table>
                     <caption>Observatie/bepaling. Subject: J. XXX_Cevat. Id: MedMijHG-AlgBep-C02-01 (urn:oid:2.16.840.1.113883.2.4.3.111.19.1), Status: definitief</caption>
                     <tbody>
                        <tr>
                           <th>Context</th>
                           <td>Contact ID: MedMijHG-contactmoment02 2.16.840.1.113883.2.4.3.111.19.1 (Id: MedMijHG-contactmoment02 (urn:oid:2.16.840.1.113883.2.4.3.111.19.1))</td>
                        </tr>
                        <tr>
                           <th>Bepalingdatum/tijd</th>
                           <td>15:43:59, 18 juli 2020</td>
                        </tr>
                        <tr>
                           <th>Code</th>
                           <th>Waarde</th>
                        </tr>
                        <tr>
                           <td>
                              <span title="Systolische bloeddruk (1744 - nhg-tabel-45-diagnostische-bepalingen)">Systolische bloeddruk</span>
                           </td>
                           <td>172 mm[Hg]</td>
                        </tr>
                     </tbody>
                  </table>
               </div>
            </text>
            <identifier>
               <system value="urn:oid:2.16.840.1.113883.2.4.3.111.19.1"/>
               <value value="MedMijHG-AlgBep-C02-01"/>
            </identifier>
            <status value="final"/>
            <code>
               <coding>
                  <system value="https://referentiemodel.nhg.org/tabellen/nhg-tabel-45-diagnostische-bepalingen"/>
                  <version value="20"/>
                  <code value="1744"/>
                  <display value="Systolische bloeddruk"/>
               </coding>
            </code>
            <subject>
               <reference value="urn:uuid:7d580582-a2da-11ef-6540-020000000000"/>
               <display value="J. XXX_Cevat"/>
            </subject>
            <context>
               <identifier>
                  <system value="urn:oid:2.16.840.1.113883.2.4.3.111.19.1"/>
                  <value value="MedMijHG-contactmoment02"/>
               </identifier>
               <display value="Contact ID: MedMijHG-contactmoment02 2.16.840.1.113883.2.4.3.111.19.1"/>
            </context>
            <effectiveDateTime value="2020-07-18T15:43:59+02:00"/>
            <valueQuantity>
               <value value="172"/>
               <unit value="mm[Hg]"/>
               <system value="http://unitsofmeasure.org"/>
               <code value="mm[Hg]"/>
            </valueQuantity>
         </Observation>
      </resource>
      <search>
         <mode value="match"/>
      </search>
   </entry>
   <entry>
      <fullUrl value="https://example.org/fhir/Observation/2.16.840.1.113883.2.4.3.111.19.1-MedMijHG-AlgBep-C02-02"/>
      <resource>
         <Observation>
            <id value="2.16.840.1.113883.2.4.3.111.19.1-MedMijHG-AlgBep-C02-02"/>
            <meta>
               <profile value="http://nictiz.nl/fhir/StructureDefinition/gp-DiagnosticResult"/>
            </meta>
            <text>
               <status value="extensions"/>
               <div xmlns="http://www.w3.org/1999/xhtml">
                  <table>
                     <caption>Observatie/bepaling. Subject: J. XXX_Cevat. Id: MedMijHG-AlgBep-C02-02 (urn:oid:2.16.840.1.113883.2.4.3.111.19.1), Status: definitief</caption>
                     <tbody>
                        <tr>
                           <th>Context</th>
                           <td>Contact ID: MedMijHG-contactmoment02 2.16.840.1.113883.2.4.3.111.19.1 (Id: MedMijHG-contactmoment02 (urn:oid:2.16.840.1.113883.2.4.3.111.19.1))</td>
                        </tr>
                        <tr>
                           <th>Bepalingdatum/tijd</th>
                           <td>15:43:59, 18 juli 2020</td>
                        </tr>
                        <tr>
                           <th>Code</th>
                           <th>Waarde</th>
                        </tr>
                        <tr>
                           <td>
                              <span title="Diastolische bloeddruk (1740 - nhg-tabel-45-diagnostische-bepalingen)">Diastolische bloeddruk</span>
                           </td>
                           <td>87 mm[Hg]</td>
                        </tr>
                     </tbody>
                  </table>
               </div>
            </text>
            <identifier>
               <system value="urn:oid:2.16.840.1.113883.2.4.3.111.19.1"/>
               <value value="MedMijHG-AlgBep-C02-02"/>
            </identifier>
            <status value="final"/>
            <code>
               <coding>
                  <system value="https://referentiemodel.nhg.org/tabellen/nhg-tabel-45-diagnostische-bepalingen"/>
                  <version value="20"/>
                  <code value="1740"/>
                  <display value="Diastolische bloeddruk"/>
               </coding>
            </code>
            <subject>
               <reference value="urn:uuid:7d580582-a2da-11ef-6540-020000000000"/>
               <display value="J. XXX_Cevat"/>
            </subject>
            <context>
               <identifier>
                  <system value="urn:oid:2.16.840.1.113883.2.4.3.111.19.1"/>
                  <value value="MedMijHG-contactmoment02"/>
               </identifier>
               <display value="Contact ID: MedMijHG-contactmoment02 2.16.840.1.113883.2.4.3.111.19.1"/>
            </context>
            <effectiveDateTime value="2020-07-18T15:43:59+02:00"/>
            <valueQuantity>
               <value value="87"/>
               <unit value="mm[Hg]"/>
               <system value="http://unitsofmeasure.org"/>
               <code value="mm[Hg]"/>
            </valueQuantity>
         </Observation>
      </resource>
      <search>
         <mode value="match"/>
      </search>
   </entry>
   <entry>
      <fullUrl value="https://example.org/fhir/Observation/2.16.840.1.113883.2.4.3.111.19.1-MedMijHG-AlgBep-C02-03"/>
      <resource>
         <Observation>
            <id value="2.16.840.1.113883.2.4.3.111.19.1-MedMijHG-AlgBep-C02-03"/>
            <meta>
               <profile value="http://nictiz.nl/fhir/StructureDefinition/gp-DiagnosticResult"/>
            </meta>
            <text>
               <status value="extensions"/>
               <div xmlns="http://www.w3.org/1999/xhtml">
                  <table>
                     <caption>Observatie/bepaling. Subject: J. XXX_Cevat. Id: MedMijHG-AlgBep-C02-03 (urn:oid:2.16.840.1.113883.2.4.3.111.19.1), Status: definitief</caption>
                     <tbody>
                        <tr>
                           <th>Context</th>
                           <td>Contact ID: MedMijHG-contactmoment02 2.16.840.1.113883.2.4.3.111.19.1 (Id: MedMijHG-contactmoment02 (urn:oid:2.16.840.1.113883.2.4.3.111.19.1))</td>
                        </tr>
                        <tr>
                           <th>Bepalingdatum/tijd</th>
                           <td>15:43:59, 18 juli 2020</td>
                        </tr>
                        <tr>
                           <th>Code</th>
                           <th>Waarde</th>
                        </tr>
                        <tr>
                           <td>
                              <span title="Polsfrequentie (1875 - nhg-tabel-45-diagnostische-bepalingen)">Polsfrequentie</span>
                           </td>
                           <td>84 /min</td>
                        </tr>
                     </tbody>
                  </table>
               </div>
            </text>
            <identifier>
               <system value="urn:oid:2.16.840.1.113883.2.4.3.111.19.1"/>
               <value value="MedMijHG-AlgBep-C02-03"/>
            </identifier>
            <status value="final"/>
            <code>
               <coding>
                  <system value="https://referentiemodel.nhg.org/tabellen/nhg-tabel-45-diagnostische-bepalingen"/>
                  <version value="20"/>
                  <code value="1875"/>
                  <display value="Polsfrequentie"/>
               </coding>
            </code>
            <subject>
               <reference value="urn:uuid:7d580582-a2da-11ef-6540-020000000000"/>
               <display value="J. XXX_Cevat"/>
            </subject>
            <context>
               <identifier>
                  <system value="urn:oid:2.16.840.1.113883.2.4.3.111.19.1"/>
                  <value value="MedMijHG-contactmoment02"/>
               </identifier>
               <display value="Contact ID: MedMijHG-contactmoment02 2.16.840.1.113883.2.4.3.111.19.1"/>
            </context>
            <effectiveDateTime value="2020-07-18T15:43:59+02:00"/>
            <valueQuantity>
               <value value="84"/>
               <unit value="/min"/>
               <system value="http://unitsofmeasure.org"/>
               <code value="/min"/>
            </valueQuantity>
         </Observation>
      </resource>
      <search>
         <mode value="match"/>
      </search>
   </entry>
   <entry>
      <fullUrl value="https://example.org/fhir/Observation/2.16.840.1.113883.2.4.3.111.19.1-MedMijHG-AlgBep-C01-01"/>
      <resource>
         <Observation>
            <id value="2.16.840.1.113883.2.4.3.111.19.1-MedMijHG-AlgBep-C01-01"/>
            <meta>
               <profile value="http://nictiz.nl/fhir/StructureDefinition/gp-DiagnosticResult"/>
            </meta>
            <text>
               <status value="extensions"/>
               <div xmlns="http://www.w3.org/1999/xhtml">
                  <table>
                     <caption>Observatie/bepaling. Subject: J. XXX_Cevat. Id: MedMijHG-AlgBep-C01-01 (urn:oid:2.16.840.1.113883.2.4.3.111.19.1), Status: definitief</caption>
                     <tbody>
                        <tr>
                           <th>Context</th>
                           <td>
                              <ul>
                                 <li>Episode ID: MedMijHG-concern-K78 2.16.840.1.113883.2.4.3.111.19.1 (Id: MedMijHG-concern-K78 (urn:oid:2.16.840.1.113883.2.4.3.111.19.1))</li>
                                 <li>Contact ID: MedMijHG-contactmoment01 2.16.840.1.113883.2.4.3.111.19.1 (Id: MedMijHG-contactmoment01 (urn:oid:2.16.840.1.113883.2.4.3.111.19.1))</li>
                              </ul>
                           </td>
                        </tr>
                        <tr>
                           <th>Bepalingdatum/tijd</th>
                           <td>15:43:59, 28 juni 2020</td>
                        </tr>
                        <tr>
                           <th>Code</th>
                           <th>Waarde</th>
                        </tr>
                        <tr>
                           <td>
                              <span title="Systolische bloeddruk (1744 - nhg-tabel-45-diagnostische-bepalingen)">Systolische bloeddruk</span>
                           </td>
                           <td>184 mm[Hg]</td>
                        </tr>
                     </tbody>
                  </table>
               </div>
            </text>
            <extension url="http://nictiz.nl/fhir/StructureDefinition/extension-context-nl-core-episodeofcare">
               <valueReference>
                  <identifier>
                     <system value="urn:oid:2.16.840.1.113883.2.4.3.111.19.1"/>
                     <value value="MedMijHG-concern-K78"/>
                  </identifier>
                  <display value="Episode ID: MedMijHG-concern-K78 2.16.840.1.113883.2.4.3.111.19.1"/>
               </valueReference>
            </extension>
            <identifier>
               <system value="urn:oid:2.16.840.1.113883.2.4.3.111.19.1"/>
               <value value="MedMijHG-AlgBep-C01-01"/>
            </identifier>
            <status value="final"/>
            <code>
               <coding>
                  <system value="https://referentiemodel.nhg.org/tabellen/nhg-tabel-45-diagnostische-bepalingen"/>
                  <version value="20"/>
                  <code value="1744"/>
                  <display value="Systolische bloeddruk"/>
               </coding>
            </code>
            <subject>
               <reference value="urn:uuid:7d580582-a2da-11ef-6540-020000000000"/>
               <display value="J. XXX_Cevat"/>
            </subject>
            <context>
               <identifier>
                  <system value="urn:oid:2.16.840.1.113883.2.4.3.111.19.1"/>
                  <value value="MedMijHG-contactmoment01"/>
               </identifier>
               <display value="Contact ID: MedMijHG-contactmoment01 2.16.840.1.113883.2.4.3.111.19.1"/>
            </context>
            <effectiveDateTime value="2020-06-28T15:43:59+02:00"/>
            <valueQuantity>
               <value value="184"/>
               <unit value="mm[Hg]"/>
               <system value="http://unitsofmeasure.org"/>
               <code value="mm[Hg]"/>
            </valueQuantity>
         </Observation>
      </resource>
      <search>
         <mode value="match"/>
      </search>
   </entry>
   <entry>
      <fullUrl value="https://example.org/fhir/Observation/2.16.840.1.113883.2.4.3.111.19.1-MedMijHG-AlgBep-C01-02"/>
      <resource>
         <Observation>
            <id value="2.16.840.1.113883.2.4.3.111.19.1-MedMijHG-AlgBep-C01-02"/>
            <meta>
               <profile value="http://nictiz.nl/fhir/StructureDefinition/gp-DiagnosticResult"/>
            </meta>
            <text>
               <status value="extensions"/>
               <div xmlns="http://www.w3.org/1999/xhtml">
                  <table>
                     <caption>Observatie/bepaling. Subject: J. XXX_Cevat. Id: MedMijHG-AlgBep-C01-02 (urn:oid:2.16.840.1.113883.2.4.3.111.19.1), Status: definitief</caption>
                     <tbody>
                        <tr>
                           <th>Context</th>
                           <td>
                              <ul>
                                 <li>Episode ID: MedMijHG-concern-K78 2.16.840.1.113883.2.4.3.111.19.1 (Id: MedMijHG-concern-K78 (urn:oid:2.16.840.1.113883.2.4.3.111.19.1))</li>
                                 <li>Contact ID: MedMijHG-contactmoment01 2.16.840.1.113883.2.4.3.111.19.1 (Id: MedMijHG-contactmoment01 (urn:oid:2.16.840.1.113883.2.4.3.111.19.1))</li>
                              </ul>
                           </td>
                        </tr>
                        <tr>
                           <th>Bepalingdatum/tijd</th>
                           <td>15:43:59, 28 juni 2020</td>
                        </tr>
                        <tr>
                           <th>Code</th>
                           <th>Waarde</th>
                        </tr>
                        <tr>
                           <td>
                              <span title="Diastolische bloeddruk (1740 - nhg-tabel-45-diagnostische-bepalingen)">Diastolische bloeddruk</span>
                           </td>
                           <td>93 mm[Hg]</td>
                        </tr>
                     </tbody>
                  </table>
               </div>
            </text>
            <extension url="http://nictiz.nl/fhir/StructureDefinition/extension-context-nl-core-episodeofcare">
               <valueReference>
                  <identifier>
                     <system value="urn:oid:2.16.840.1.113883.2.4.3.111.19.1"/>
                     <value value="MedMijHG-concern-K78"/>
                  </identifier>
                  <display value="Episode ID: MedMijHG-concern-K78 2.16.840.1.113883.2.4.3.111.19.1"/>
               </valueReference>
            </extension>
            <identifier>
               <system value="urn:oid:2.16.840.1.113883.2.4.3.111.19.1"/>
               <value value="MedMijHG-AlgBep-C01-02"/>
            </identifier>
            <status value="final"/>
            <code>
               <coding>
                  <system value="https://referentiemodel.nhg.org/tabellen/nhg-tabel-45-diagnostische-bepalingen"/>
                  <version value="20"/>
                  <code value="1740"/>
                  <display value="Diastolische bloeddruk"/>
               </coding>
            </code>
            <subject>
               <reference value="urn:uuid:7d580582-a2da-11ef-6540-020000000000"/>
               <display value="J. XXX_Cevat"/>
            </subject>
            <context>
               <identifier>
                  <system value="urn:oid:2.16.840.1.113883.2.4.3.111.19.1"/>
                  <value value="MedMijHG-contactmoment01"/>
               </identifier>
               <display value="Contact ID: MedMijHG-contactmoment01 2.16.840.1.113883.2.4.3.111.19.1"/>
            </context>
            <effectiveDateTime value="2020-06-28T15:43:59+02:00"/>
            <valueQuantity>
               <value value="93"/>
               <unit value="mm[Hg]"/>
               <system value="http://unitsofmeasure.org"/>
               <code value="mm[Hg]"/>
            </valueQuantity>
         </Observation>
      </resource>
      <search>
         <mode value="match"/>
      </search>
   </entry>
   <entry>
      <fullUrl value="https://example.org/fhir/Observation/2.16.840.1.113883.2.4.3.111.19.1-MedMijHG-AlgBep-C01-03"/>
      <resource>
         <Observation>
            <id value="2.16.840.1.113883.2.4.3.111.19.1-MedMijHG-AlgBep-C01-03"/>
            <meta>
               <profile value="http://nictiz.nl/fhir/StructureDefinition/gp-DiagnosticResult"/>
            </meta>
            <text>
               <status value="extensions"/>
               <div xmlns="http://www.w3.org/1999/xhtml">
                  <table>
                     <caption>Observatie/bepaling. Subject: J. XXX_Cevat. Id: MedMijHG-AlgBep-C01-03 (urn:oid:2.16.840.1.113883.2.4.3.111.19.1), Status: definitief</caption>
                     <tbody>
                        <tr>
                           <th>Context</th>
                           <td>
                              <ul>
                                 <li>Episode ID: MedMijHG-concern-K78 2.16.840.1.113883.2.4.3.111.19.1 (Id: MedMijHG-concern-K78 (urn:oid:2.16.840.1.113883.2.4.3.111.19.1))</li>
                                 <li>Contact ID: MedMijHG-contactmoment01 2.16.840.1.113883.2.4.3.111.19.1 (Id: MedMijHG-contactmoment01 (urn:oid:2.16.840.1.113883.2.4.3.111.19.1))</li>
                              </ul>
                           </td>
                        </tr>
                        <tr>
                           <th>Bepalingdatum/tijd</th>
                           <td>15:43:59, 28 juni 2020</td>
                        </tr>
                        <tr>
                           <th>Code</th>
                           <th>Waarde</th>
                        </tr>
                        <tr>
                           <td>
                              <span title="Polsfrequentie (1875 - nhg-tabel-45-diagnostische-bepalingen)">Polsfrequentie</span>
                           </td>
                           <td>120 /min</td>
                        </tr>
                     </tbody>
                  </table>
               </div>
            </text>
            <extension url="http://nictiz.nl/fhir/StructureDefinition/extension-context-nl-core-episodeofcare">
               <valueReference>
                  <identifier>
                     <system value="urn:oid:2.16.840.1.113883.2.4.3.111.19.1"/>
                     <value value="MedMijHG-concern-K78"/>
                  </identifier>
                  <display value="Episode ID: MedMijHG-concern-K78 2.16.840.1.113883.2.4.3.111.19.1"/>
               </valueReference>
            </extension>
            <identifier>
               <system value="urn:oid:2.16.840.1.113883.2.4.3.111.19.1"/>
               <value value="MedMijHG-AlgBep-C01-03"/>
            </identifier>
            <status value="final"/>
            <code>
               <coding>
                  <system value="https://referentiemodel.nhg.org/tabellen/nhg-tabel-45-diagnostische-bepalingen"/>
                  <version value="20"/>
                  <code value="1875"/>
                  <display value="Polsfrequentie"/>
               </coding>
            </code>
            <subject>
               <reference value="urn:uuid:7d580582-a2da-11ef-6540-020000000000"/>
               <display value="J. XXX_Cevat"/>
            </subject>
            <context>
               <identifier>
                  <system value="urn:oid:2.16.840.1.113883.2.4.3.111.19.1"/>
                  <value value="MedMijHG-contactmoment01"/>
               </identifier>
               <display value="Contact ID: MedMijHG-contactmoment01 2.16.840.1.113883.2.4.3.111.19.1"/>
            </context>
            <effectiveDateTime value="2020-06-28T15:43:59+02:00"/>
            <valueQuantity>
               <value value="120"/>
               <unit value="/min"/>
               <system value="http://unitsofmeasure.org"/>
               <code value="/min"/>
            </valueQuantity>
         </Observation>
      </resource>
      <search>
         <mode value="match"/>
      </search>
   </entry>
   <entry>
      <fullUrl value="https://example.org/fhir/Observation/2.16.840.1.113883.2.4.3.111.19.1-MedMijHG-AlgBep-C01-04"/>
      <resource>
         <Observation>
            <id value="2.16.840.1.113883.2.4.3.111.19.1-MedMijHG-AlgBep-C01-04"/>
            <meta>
               <profile value="http://nictiz.nl/fhir/StructureDefinition/gp-DiagnosticResult"/>
            </meta>
            <text>
               <status value="extensions"/>
               <div xmlns="http://www.w3.org/1999/xhtml">
                  <table>
                     <caption>Observatie/bepaling. Subject: J. XXX_Cevat. Id: MedMijHG-AlgBep-C01-04 (urn:oid:2.16.840.1.113883.2.4.3.111.19.1), Status: definitief</caption>
                     <tbody>
                        <tr>
                           <th>Context</th>
                           <td>
                              <ul>
                                 <li>Episode ID: MedMijHG-concern-K78 2.16.840.1.113883.2.4.3.111.19.1 (Id: MedMijHG-concern-K78 (urn:oid:2.16.840.1.113883.2.4.3.111.19.1))</li>
                                 <li>Contact ID: MedMijHG-contactmoment01 2.16.840.1.113883.2.4.3.111.19.1 (Id: MedMijHG-contactmoment01 (urn:oid:2.16.840.1.113883.2.4.3.111.19.1))</li>
                              </ul>
                           </td>
                        </tr>
                        <tr>
                           <th>Bepalingdatum/tijd</th>
                           <td>15:43:59, 28 juni 2020</td>
                        </tr>
                        <tr>
                           <th>Code</th>
                           <th>Waarde</th>
                        </tr>
                        <tr>
                           <td>
                              <span title="Polsritme (2102 - nhg-tabel-45-diagnostische-bepalingen)">Polsritme</span>
                           </td>
                           <td>
                              <span title="irregulair (202 - nhg-tabel-45-diagnostische-bepalingen#resultaten)">irregulair</span>
                           </td>
                        </tr>
                     </tbody>
                  </table>
               </div>
            </text>
            <extension url="http://nictiz.nl/fhir/StructureDefinition/extension-context-nl-core-episodeofcare">
               <valueReference>
                  <identifier>
                     <system value="urn:oid:2.16.840.1.113883.2.4.3.111.19.1"/>
                     <value value="MedMijHG-concern-K78"/>
                  </identifier>
                  <display value="Episode ID: MedMijHG-concern-K78 2.16.840.1.113883.2.4.3.111.19.1"/>
               </valueReference>
            </extension>
            <identifier>
               <system value="urn:oid:2.16.840.1.113883.2.4.3.111.19.1"/>
               <value value="MedMijHG-AlgBep-C01-04"/>
            </identifier>
            <status value="final"/>
            <code>
               <coding>
                  <system value="https://referentiemodel.nhg.org/tabellen/nhg-tabel-45-diagnostische-bepalingen"/>
                  <version value="20"/>
                  <code value="2102"/>
                  <display value="Polsritme"/>
               </coding>
            </code>
            <subject>
               <reference value="urn:uuid:7d580582-a2da-11ef-6540-020000000000"/>
               <display value="J. XXX_Cevat"/>
            </subject>
            <context>
               <identifier>
                  <system value="urn:oid:2.16.840.1.113883.2.4.3.111.19.1"/>
                  <value value="MedMijHG-contactmoment01"/>
               </identifier>
               <display value="Contact ID: MedMijHG-contactmoment01 2.16.840.1.113883.2.4.3.111.19.1"/>
            </context>
            <effectiveDateTime value="2020-06-28T15:43:59+02:00"/>
            <valueCodeableConcept>
               <coding>
                  <system value="https://referentiemodel.nhg.org/tabellen/nhg-tabel-45-diagnostische-bepalingen#resultaten"/>
                  <code value="202"/>
                  <display value="irregulair"/>
               </coding>
            </valueCodeableConcept>
         </Observation>
      </resource>
      <search>
         <mode value="match"/>
      </search>
   </entry>
   <entry>
      <fullUrl value="https://example.org/fhir/Observation/2.16.840.1.113883.2.4.3.111.19.1-MedMijHG-AlgBep-C01-05"/>
      <resource>
         <Observation>
            <id value="2.16.840.1.113883.2.4.3.111.19.1-MedMijHG-AlgBep-C01-05"/>
            <meta>
               <profile value="http://nictiz.nl/fhir/StructureDefinition/gp-DiagnosticResult"/>
            </meta>
            <text>
               <status value="extensions"/>
               <div xmlns="http://www.w3.org/1999/xhtml">
                  <table>
                     <caption>Observatie/bepaling. Subject: J. XXX_Cevat. Id: MedMijHG-AlgBep-C01-05 (urn:oid:2.16.840.1.113883.2.4.3.111.19.1), Status: definitief</caption>
                     <tbody>
                        <tr>
                           <th>Context</th>
                           <td>
                              <ul>
                                 <li>Episode ID: MedMijHG-concern-K78 2.16.840.1.113883.2.4.3.111.19.1 (Id: MedMijHG-concern-K78 (urn:oid:2.16.840.1.113883.2.4.3.111.19.1))</li>
                                 <li>Contact ID: MedMijHG-contactmoment01 2.16.840.1.113883.2.4.3.111.19.1 (Id: MedMijHG-contactmoment01 (urn:oid:2.16.840.1.113883.2.4.3.111.19.1))</li>
                              </ul>
                           </td>
                        </tr>
                        <tr>
                           <th>Bepalingdatum/tijd</th>
                           <td>15:43:59, 28 juni 2020</td>
                        </tr>
                        <tr>
                           <th>Code</th>
                           <th>Waarde</th>
                        </tr>
                        <tr>
                           <td>
                              <span title="Pols opmerkingen (2126 - nhg-tabel-45-diagnostische-bepalingen)">Pols opmerkingen</span>
                           </td>
                           <td>linker pols</td>
                        </tr>
                     </tbody>
                  </table>
               </div>
            </text>
            <extension url="http://nictiz.nl/fhir/StructureDefinition/extension-context-nl-core-episodeofcare">
               <valueReference>
                  <identifier>
                     <system value="urn:oid:2.16.840.1.113883.2.4.3.111.19.1"/>
                     <value value="MedMijHG-concern-K78"/>
                  </identifier>
                  <display value="Episode ID: MedMijHG-concern-K78 2.16.840.1.113883.2.4.3.111.19.1"/>
               </valueReference>
            </extension>
            <identifier>
               <system value="urn:oid:2.16.840.1.113883.2.4.3.111.19.1"/>
               <value value="MedMijHG-AlgBep-C01-05"/>
            </identifier>
            <status value="final"/>
            <code>
               <coding>
                  <system value="https://referentiemodel.nhg.org/tabellen/nhg-tabel-45-diagnostische-bepalingen"/>
                  <version value="20"/>
                  <code value="2126"/>
                  <display value="Pols opmerkingen"/>
               </coding>
            </code>
            <subject>
               <reference value="urn:uuid:7d580582-a2da-11ef-6540-020000000000"/>
               <display value="J. XXX_Cevat"/>
            </subject>
            <context>
               <identifier>
                  <system value="urn:oid:2.16.840.1.113883.2.4.3.111.19.1"/>
                  <value value="MedMijHG-contactmoment01"/>
               </identifier>
               <display value="Contact ID: MedMijHG-contactmoment01 2.16.840.1.113883.2.4.3.111.19.1"/>
            </context>
            <effectiveDateTime value="2020-06-28T15:43:59+02:00"/>
            <valueString value="linker pols"/>
         </Observation>
      </resource>
      <search>
         <mode value="match"/>
      </search>
   </entry>
   <entry>
      <fullUrl value="https://example.org/fhir/Observation/2.16.840.1.113883.2.4.6.6.10010068.4.7-897883"/>
      <resource>
         <Observation>
            <id value="2.16.840.1.113883.2.4.6.6.10010068.4.7-897883"/>
            <meta>
               <profile value="http://nictiz.nl/fhir/StructureDefinition/gp-DiagnosticResult"/>
            </meta>
            <text>
               <status value="extensions"/>
               <div xmlns="http://www.w3.org/1999/xhtml">
                  <table>
                     <caption>Observatie/bepaling. Subject: J. XXX_Cevat. Id: 897883 (urn:oid:2.16.840.1.113883.2.4.6.6.10010068.4.7), Status: definitief
<span style="display: block;">Uitvoerende: Responsible Party</span>
                     </caption>
                     <tbody>
                        <tr>
                           <th>Bepalingdatum/tijd</th>
                           <td>21 oktober 2020</td>
                        </tr>
                        <tr>
                           <th>Code</th>
                           <th>Waarde</th>
                        </tr>
                        <tr>
                           <td>
                              <span title="gestopt met roken sinds (2003 - nhg-tabel-45-diagnostische-bepalingen)">gestopt met roken sinds</span>
                           </td>
                           <td>21 oktober 2020</td>
                        </tr>
                     </tbody>
                  </table>
               </div>
            </text>
            <identifier>
               <system value="urn:oid:2.16.840.1.113883.2.4.6.6.10010068.4.7"/>
               <value value="897883"/>
            </identifier>
            <status value="final"/>
            <code>
               <coding>
                  <system value="https://referentiemodel.nhg.org/tabellen/nhg-tabel-45-diagnostische-bepalingen"/>
                  <version value="v37"/>
                  <code value="2003"/>
                  <display value="gestopt met roken sinds"/>
               </coding>
            </code>
            <subject>
               <reference value="urn:uuid:7d580582-a2da-11ef-6540-020000000000"/>
               <display value="J. XXX_Cevat"/>
            </subject>
            <effectiveDateTime value="2020-10-21"/>
            <performer>
               <extension url="http://nictiz.nl/fhir/StructureDefinition/practitionerrole-reference">
                  <valueReference>
                     <reference value="urn:uuid:7d57f58e-a2da-11ef-6540-020000000000"/>
                     <display value="Responsible Party"/>
                  </valueReference>
               </extension>
               <reference value="https://example.org/fhir/Practitioner/2.16.840.1.113883.2.4.6.1-53530225"/>
               <display value="Responsible Party"/>
            </performer>
            <valueDateTime value="2020-10-21"/>
         </Observation>
      </resource>
      <search>
         <mode value="match"/>
      </search>
   </entry>
   <entry>
      <fullUrl value="https://example.org/fhir/Observation/2.16.840.1.113883.2.4.6.6.10010068.4.7-897892"/>
      <resource>
         <Observation>
            <id value="2.16.840.1.113883.2.4.6.6.10010068.4.7-897892"/>
            <meta>
               <profile value="http://nictiz.nl/fhir/StructureDefinition/gp-DiagnosticResult"/>
            </meta>
            <text>
               <status value="extensions"/>
               <div xmlns="http://www.w3.org/1999/xhtml">
                  <table>
                     <caption>Observatie/bepaling. Subject: J. XXX_Cevat. Id: 897892 (urn:oid:2.16.840.1.113883.2.4.6.6.10010068.4.7), Status: definitief
<span style="display: block;">Uitvoerende: Responsible Party</span>
                     </caption>
                     <tbody>
                        <tr>
                           <th>Bepalingdatum/tijd</th>
                           <td>21 oktober 2020</td>
                        </tr>
                        <tr>
                           <th>Code</th>
                           <th>Waarde</th>
                        </tr>
                        <tr>
                           <td>
                              <span title="advies gezonde voeding gegeven (2137 - nhg-tabel-45-diagnostische-bepalingen)">advies gezonde voeding gegeven</span>
                           </td>
                           <td>ja</td>
                        </tr>
                     </tbody>
                  </table>
               </div>
            </text>
            <identifier>
               <system value="urn:oid:2.16.840.1.113883.2.4.6.6.10010068.4.7"/>
               <value value="897892"/>
            </identifier>
            <status value="final"/>
            <code>
               <coding>
                  <system value="https://referentiemodel.nhg.org/tabellen/nhg-tabel-45-diagnostische-bepalingen"/>
                  <version value="v37"/>
                  <code value="2137"/>
                  <display value="advies gezonde voeding gegeven"/>
               </coding>
            </code>
            <subject>
               <reference value="urn:uuid:7d580582-a2da-11ef-6540-020000000000"/>
               <display value="J. XXX_Cevat"/>
            </subject>
            <effectiveDateTime value="2020-10-21"/>
            <performer>
               <extension url="http://nictiz.nl/fhir/StructureDefinition/practitionerrole-reference">
                  <valueReference>
                     <reference value="urn:uuid:7d57f58e-a2da-11ef-6540-020000000000"/>
                     <display value="Responsible Party"/>
                  </valueReference>
               </extension>
               <reference value="https://example.org/fhir/Practitioner/2.16.840.1.113883.2.4.6.1-53530225"/>
               <display value="Responsible Party"/>
            </performer>
            <valueBoolean value="true"/>
         </Observation>
      </resource>
      <search>
         <mode value="match"/>
      </search>
   </entry>
   <entry>
      <fullUrl value="https://example.org/fhir/Observation/2.16.840.1.113883.2.4.6.6.10010068.4.7-897907"/>
      <resource>
         <Observation>
            <id value="2.16.840.1.113883.2.4.6.6.10010068.4.7-897907"/>
            <meta>
               <profile value="http://nictiz.nl/fhir/StructureDefinition/gp-DiagnosticResult"/>
            </meta>
            <text>
               <status value="extensions"/>
               <div xmlns="http://www.w3.org/1999/xhtml">
                  <table>
                     <caption>Observatie/bepaling. Subject: J. XXX_Cevat. Id: 897907 (urn:oid:2.16.840.1.113883.2.4.6.6.10010068.4.7), Status: definitief
<span style="display: block;">Uitvoerende: Responsible Party</span>
                     </caption>
                     <tbody>
                        <tr>
                           <th>Bepalingdatum/tijd</th>
                           <td colspan="2">21 oktober 2020</td>
                        </tr>
                        <tr>
                           <th>Code</th>
                           <th>Waarde</th>
                           <th>Referentiewaarden</th>
                        </tr>
                        <tr>
                           <td>
                              <span title="systolische bloeddruk (1744 - nhg-tabel-45-diagnostische-bepalingen)">systolische bloeddruk</span>
                           </td>
                           <td>110 mm[Hg]</td>
                           <td>
                              <div>
                                 <span title="Normal Range (normal - referencerange-meaning)">Normal Range</span>  - 140 mm[Hg]</div>
                           </td>
                        </tr>
                     </tbody>
                  </table>
               </div>
            </text>
            <identifier>
               <system value="urn:oid:2.16.840.1.113883.2.4.6.6.10010068.4.7"/>
               <value value="897907"/>
            </identifier>
            <status value="final"/>
            <code>
               <coding>
                  <system value="https://referentiemodel.nhg.org/tabellen/nhg-tabel-45-diagnostische-bepalingen"/>
                  <version value="v37"/>
                  <code value="1744"/>
                  <display value="systolische bloeddruk"/>
               </coding>
            </code>
            <subject>
               <reference value="urn:uuid:7d580582-a2da-11ef-6540-020000000000"/>
               <display value="J. XXX_Cevat"/>
            </subject>
            <effectiveDateTime value="2020-10-21"/>
            <performer>
               <extension url="http://nictiz.nl/fhir/StructureDefinition/practitionerrole-reference">
                  <valueReference>
                     <reference value="urn:uuid:7d57f58e-a2da-11ef-6540-020000000000"/>
                     <display value="Responsible Party"/>
                  </valueReference>
               </extension>
               <reference value="https://example.org/fhir/Practitioner/2.16.840.1.113883.2.4.6.1-53530225"/>
               <display value="Responsible Party"/>
            </performer>
            <valueQuantity>
               <value value="110"/>
               <unit value="mm[Hg]"/>
               <system value="http://unitsofmeasure.org"/>
               <code value="mm[Hg]"/>
            </valueQuantity>
            <referenceRange>
               <low>
                  <extension url="http://hl7.org/fhir/StructureDefinition/iso21090-nullFlavor">
                     <valueCode value="NINF"/>
                  </extension>
               </low>
               <high>
                  <value value="140"/>
                  <unit value="mm[Hg]"/>
                  <system value="http://unitsofmeasure.org"/>
                  <code value="mm[Hg]"/>
               </high>
               <type>
                  <coding>
                     <system value="http://hl7.org/fhir/referencerange-meaning"/>
                     <code value="normal"/>
                     <display value="Normal Range"/>
                  </coding>
               </type>
            </referenceRange>
         </Observation>
      </resource>
      <search>
         <mode value="match"/>
      </search>
   </entry>
   <entry>
      <fullUrl value="urn:uuid:7d580582-a2da-11ef-6540-020000000000"/>
      <resource>
         <Patient>
            <meta>
               <profile value="http://fhir.nl/fhir/StructureDefinition/nl-core-patient"/>
            </meta>
            <text>
               <status value="extensions"/>
               <div xmlns="http://www.w3.org/1999/xhtml">
                  <div>Id 
<i>afgeschermd (ontbrekend gegeven)</i> (BSN), 
<span title="Naamsamenstelling: Eigennaam">J. XXX_Cevat</span>, Man, 30 december 1985</div>
                  <div>Knolweg 1003, 9999ZA STITSWERD, NL</div>
               </div>
            </text>
            <identifier>
               <system value="http://fhir.nl/fhir/NamingSystem/bsn"/>
               <value>
                  <extension url="http://hl7.org/fhir/StructureDefinition/data-absent-reason">
                     <valueCode value="masked"/>
                  </extension>
               </value>
            </identifier>
            <name>
               <extension url="http://hl7.org/fhir/StructureDefinition/humanname-assembly-order">
                  <valueCode value="NL1"/>
               </extension>
               <family value="XXX_Cevat">
                  <extension url="http://hl7.org/fhir/StructureDefinition/humanname-own-name">
                     <valueString value="XXX_Cevat"/>
                  </extension>
               </family>
               <given value="J.">
                  <extension url="http://hl7.org/fhir/StructureDefinition/iso21090-EN-qualifier">
                     <valueCode value="IN"/>
                  </extension>
               </given>
            </name>
            <gender value="male">
               <extension url="http://nictiz.nl/fhir/StructureDefinition/code-specification">
                  <valueCodeableConcept>
                     <coding>
                        <system value="http://hl7.org/fhir/v3/AdministrativeGender"/>
                        <code value="M"/>
                        <display value="man"/>
                     </coding>
                  </valueCodeableConcept>
               </extension>
            </gender>
            <birthDate value="1985-12-30"/>
            <address>
               <line value="Knolweg 1003">
                  <extension url="http://hl7.org/fhir/StructureDefinition/iso21090-ADXP-streetName">
                     <valueString value="Knolweg"/>
                  </extension>
                  <extension url="http://hl7.org/fhir/StructureDefinition/iso21090-ADXP-houseNumber">
                     <valueString value="1003"/>
                  </extension>
               </line>
               <city value="STITSWERD"/>
               <postalCode value="9999ZA"/>
               <country value="NL">
                  <extension url="http://nictiz.nl/fhir/StructureDefinition/code-specification">
                     <valueCodeableConcept>
                        <coding>
                           <system value="urn:iso:std:iso:3166"/>
                           <code value="NL"/>
                           <display value="Nederland"/>
                        </coding>
                     </valueCodeableConcept>
                  </extension>
               </country>
            </address>
         </Patient>
      </resource>
      <search>
         <mode value="include"/>
      </search>
   </entry>
   <entry>
      <fullUrl value="https://example.org/fhir/Practitioner/2.16.840.1.113883.2.4.6.1-53530225"/>
      <resource>
         <Practitioner>
            <id value="2.16.840.1.113883.2.4.6.1-53530225"/>
            <meta>
               <profile value="http://fhir.nl/fhir/StructureDefinition/nl-core-practitioner"/>
            </meta>
            <text>
               <status value="extensions"/>
               <div xmlns="http://www.w3.org/1999/xhtml">
                  <div>Id 53530225 (AGB-Z)</div>
               </div>
            </text>
            <identifier>
               <system value="http://fhir.nl/fhir/NamingSystem/agb-z"/>
               <value value="53530225"/>
            </identifier>
         </Practitioner>
      </resource>
      <search>
         <mode value="include"/>
      </search>
   </entry>
   <entry>
      <fullUrl value="https://example.org/fhir/Organization/2.16.528.1.1007.3.3-00002727"/>
      <resource>
         <Organization>
            <id value="2.16.528.1.1007.3.3-00002727"/>
            <meta>
               <profile value="http://fhir.nl/fhir/StructureDefinition/nl-core-organization"/>
            </meta>
            <text>
               <status value="extensions"/>
               <div xmlns="http://www.w3.org/1999/xhtml">
                  <table>
                     <caption>Organisatie. Id: 00002727 (URA)</caption>
                     <tbody>
                        <tr>
                           <th>Naam</th>
                           <td>Gezondheidscentrum Aesculaap</td>
                        </tr>
                     </tbody>
                  </table>
               </div>
            </text>
            <identifier>
               <system value="http://fhir.nl/fhir/NamingSystem/ura"/>
               <value value="00002727"/>
            </identifier>
            <name value="Gezondheidscentrum Aesculaap"/>
         </Organization>
      </resource>
      <search>
         <mode value="include"/>
      </search>
   </entry>
   <entry>
      <fullUrl value="urn:uuid:7d57f58e-a2da-11ef-6540-020000000000"/>
      <resource>
         <PractitionerRole>
            <meta>
               <profile value="http://fhir.nl/fhir/StructureDefinition/nl-core-practitionerrole"/>
            </meta>
            <text>
               <status value="extensions"/>
               <div xmlns="http://www.w3.org/1999/xhtml">
                  <table>
                     <caption>Zorgverlenerrol. </caption>
                     <tbody>
                        <tr>
                           <th>Zorgverlener</th>
                           <td>
                              <div>
                                 <a href="https://example.org/fhir/Practitioner/2.16.840.1.113883.2.4.6.1-53530225">Responsible Party</a>
                              </div>
                           </td>
                        </tr>
                     </tbody>
                  </table>
               </div>
            </text>
            <practitioner>
               <reference value="https://example.org/fhir/Practitioner/2.16.840.1.113883.2.4.6.1-53530225"/>
               <display value="Responsible Party"/>
            </practitioner>
         </PractitionerRole>
      </resource>
      <search>
         <mode value="include"/>
      </search>
   </entry>
</Bundle>