<?xml-model href="http://hl7.org/fhir/STU3/bundle.sch" type="application/xml" schematypens="http://purl.oclc.org/dsdl/schematron"?><Bundle xmlns="http://hl7.org/fhir"
        xmlns:xsi="http://www.w3.org/2001/XMLSchema-instance"
        xsi:schemaLocation="http://hl7.org/fhir http://hl7.org/fhir/STU3/fhir-all.xsd">
   <id value="b166f98a-37d6-11ec-1591-020000000000"/>
   <type value="searchset"/>
   <total value="19"/>
   <link>
      <relation value="self"/>
      <url value="http://dummy.nictiz.nl/dummyquery"/>
   </link>
   <entry>
      <fullUrl value="urn:uuid:b166fe0a-37d6-11ec-1591-020000000000"/>
      <resource>
         <Observation>
            <meta>
               <profile value="http://nictiz.nl/fhir/StructureDefinition/gp-DiagnosticResult"/>
            </meta>
            <text>
               <status value="extensions"/>
               <div xmlns="http://www.w3.org/1999/xhtml">
                  <table>
                     <caption>Observatie/bepaling. Subject: J. XXX_Cevat. Id: MedMijHG_AlgBep_C12_01 (urn:oid:2.16.840.1.113883.2.4.3.111.19.1), Status: definitief</caption>
                     <tbody>
                        <tr>
                           <th>Context</th>
                           <td>
                              <ul>
                                 <li>Episode ID: MedMijHG_concern_R21.01 2.16.840.1.113883.2.4.3.111.19.1 (Id: MedMijHG_concern_R21.01 (urn:oid:2.16.840.1.113883.2.4.3.111.19.1))</li>
                                 <li>Contact ID: MedMijHG_contactmoment12 2.16.840.1.113883.2.4.3.111.19.1 (Id: MedMijHG_contactmoment12 (urn:oid:2.16.840.1.113883.2.4.3.111.19.1))</li>
                              </ul>
                           </td>
                        </tr>
                        <tr>
                           <th>Bepalingdatum/tijd</th>
                           <td>15:43:59, 13 juni 2021</td>
                        </tr>
                        <tr>
                           <th>Code</th>
                           <th>Waarde</th>
                        </tr>
                        <tr>
                           <td>
                              <span title="Temperatuur (oraal gemeten) (1915 - nhg-tabel-45-diagnostische-bepalingen)">Temperatuur (oraal gemeten)</span>
                           </td>
                           <td>37.4 Cel</td>
                        </tr>
                     </tbody>
                  </table>
               </div>
            </text>
            <extension url="http://nictiz.nl/fhir/StructureDefinition/extension-context-nl-core-episodeofcare">
               <valueReference>
                  <identifier>
                     <system value="urn:oid:2.16.840.1.113883.2.4.3.111.19.1"/>
                     <value value="MedMijHG_concern_R21.01"/>
                  </identifier>
                  <display value="Episode ID: MedMijHG_concern_R21.01 2.16.840.1.113883.2.4.3.111.19.1"/>
               </valueReference>
            </extension>
            <identifier>
               <system value="urn:oid:2.16.840.1.113883.2.4.3.111.19.1"/>
               <value value="MedMijHG_AlgBep_C12_01"/>
            </identifier>
            <status value="final"/>
            <code>
               <coding>
                  <system value="https://referentiemodel.nhg.org/tabellen/nhg-tabel-45-diagnostische-bepalingen"/>
                  <version value="20"/>
                  <code value="1915"/>
                  <display value="Temperatuur (oraal gemeten)"/>
               </coding>
            </code>
            <subject>
               <reference value="urn:uuid:b166fdf6-37d6-11ec-1591-020000000000"/>
               <display value="J. XXX_Cevat"/>
            </subject>
            <context>
               <identifier>
                  <system value="urn:oid:2.16.840.1.113883.2.4.3.111.19.1"/>
                  <value value="MedMijHG_contactmoment12"/>
               </identifier>
               <display value="Contact ID: MedMijHG_contactmoment12 2.16.840.1.113883.2.4.3.111.19.1"/>
            </context>
            <effectiveDateTime value="2021-06-13T15:43:59+02:00"/>
            <valueQuantity>
               <value value="37.4"/>
               <unit value="Cel"/>
               <system value="http://unitsofmeasure.org"/>
               <code value="Cel"/>
            </valueQuantity>
         </Observation>
      </resource>
      <search>
         <mode value="match"/>
      </search>
   </entry>
   <entry>
      <fullUrl value="urn:uuid:b166fe13-37d6-11ec-1591-020000000000"/>
      <resource>
         <Observation>
            <meta>
               <profile value="http://nictiz.nl/fhir/StructureDefinition/gp-DiagnosticResult"/>
            </meta>
            <text>
               <status value="extensions"/>
               <div xmlns="http://www.w3.org/1999/xhtml">
                  <table>
                     <caption>Observatie/bepaling. Subject: J. XXX_Cevat. Id: MedMijHG_AlgBep_C16_01 (urn:oid:2.16.840.1.113883.2.4.3.111.19.1), Status: definitief</caption>
                     <tbody>
                        <tr>
                           <th>Context</th>
                           <td>
                              <ul>
                                 <li>Episode ID: MedMijHG_concern_L86.01 2.16.840.1.113883.2.4.3.111.19.1 (Id: MedMijHG_concern_L86.01 (urn:oid:2.16.840.1.113883.2.4.3.111.19.1))</li>
                                 <li>Contact ID: MedMijHG_contactmoment16 2.16.840.1.113883.2.4.3.111.19.1 (Id: MedMijHG_contactmoment16 (urn:oid:2.16.840.1.113883.2.4.3.111.19.1))</li>
                              </ul>
                           </td>
                        </tr>
                        <tr>
                           <th>Bepalingdatum/tijd</th>
                           <td>15:43:59, 8 juni 2021</td>
                        </tr>
                        <tr>
                           <th>Code</th>
                           <th>Waarde</th>
                        </tr>
                        <tr>
                           <td>
                              <span title="CT-onderrug/lumbale wervelkolom (2283 - nhg-tabel-45-diagnostische-bepalingen)">CT-onderrug/lumbale wervelkolom</span>
                           </td>
                           <td>Duidelijke uitstulping L02</td>
                        </tr>
                     </tbody>
                  </table>
               </div>
            </text>
            <extension url="http://nictiz.nl/fhir/StructureDefinition/extension-context-nl-core-episodeofcare">
               <valueReference>
                  <identifier>
                     <system value="urn:oid:2.16.840.1.113883.2.4.3.111.19.1"/>
                     <value value="MedMijHG_concern_L86.01"/>
                  </identifier>
                  <display value="Episode ID: MedMijHG_concern_L86.01 2.16.840.1.113883.2.4.3.111.19.1"/>
               </valueReference>
            </extension>
            <identifier>
               <system value="urn:oid:2.16.840.1.113883.2.4.3.111.19.1"/>
               <value value="MedMijHG_AlgBep_C16_01"/>
            </identifier>
            <status value="final"/>
            <code>
               <coding>
                  <system value="https://referentiemodel.nhg.org/tabellen/nhg-tabel-45-diagnostische-bepalingen"/>
                  <version value="20"/>
                  <code value="2283"/>
                  <display value="CT-onderrug/lumbale wervelkolom"/>
               </coding>
            </code>
            <subject>
               <reference value="urn:uuid:b166fdf6-37d6-11ec-1591-020000000000"/>
               <display value="J. XXX_Cevat"/>
            </subject>
            <context>
               <identifier>
                  <system value="urn:oid:2.16.840.1.113883.2.4.3.111.19.1"/>
                  <value value="MedMijHG_contactmoment16"/>
               </identifier>
               <display value="Contact ID: MedMijHG_contactmoment16 2.16.840.1.113883.2.4.3.111.19.1"/>
            </context>
            <effectiveDateTime value="2021-06-08T15:43:59+02:00"/>
            <valueString value="Duidelijke uitstulping L02"/>
         </Observation>
      </resource>
      <search>
         <mode value="match"/>
      </search>
   </entry>
   <entry>
      <fullUrl value="urn:uuid:b166fe1c-37d6-11ec-1591-020000000000"/>
      <resource>
         <Observation>
            <meta>
               <profile value="http://nictiz.nl/fhir/StructureDefinition/gp-DiagnosticResult"/>
            </meta>
            <text>
               <status value="extensions"/>
               <div xmlns="http://www.w3.org/1999/xhtml">
                  <table>
                     <caption>Observatie/bepaling. Subject: J. XXX_Cevat. Id: MedMijHG_AlgBep_C11_01 (urn:oid:2.16.840.1.113883.2.4.3.111.19.1), Status: definitief</caption>
                     <tbody>
                        <tr>
                           <th>Context</th>
                           <td>
                              <ul>
                                 <li>Episode ID: MedMijHG_concern_R21.01 2.16.840.1.113883.2.4.3.111.19.1 (Id: MedMijHG_concern_R21.01 (urn:oid:2.16.840.1.113883.2.4.3.111.19.1))</li>
                                 <li>Contact ID: MedMijHG_contactmoment11 2.16.840.1.113883.2.4.3.111.19.1 (Id: MedMijHG_contactmoment11 (urn:oid:2.16.840.1.113883.2.4.3.111.19.1))</li>
                              </ul>
                           </td>
                        </tr>
                        <tr>
                           <th>Bepalingdatum/tijd</th>
                           <td>15:43:59, 4 mei 2021</td>
                        </tr>
                        <tr>
                           <th>Code</th>
                           <th>Waarde</th>
                        </tr>
                        <tr>
                           <td>
                              <span title="Temperatuur (oraal gemeten) (1915 - nhg-tabel-45-diagnostische-bepalingen)">Temperatuur (oraal gemeten)</span>
                           </td>
                           <td>37.7 Cel</td>
                        </tr>
                     </tbody>
                  </table>
               </div>
            </text>
            <extension url="http://nictiz.nl/fhir/StructureDefinition/extension-context-nl-core-episodeofcare">
               <valueReference>
                  <identifier>
                     <system value="urn:oid:2.16.840.1.113883.2.4.3.111.19.1"/>
                     <value value="MedMijHG_concern_R21.01"/>
                  </identifier>
                  <display value="Episode ID: MedMijHG_concern_R21.01 2.16.840.1.113883.2.4.3.111.19.1"/>
               </valueReference>
            </extension>
            <identifier>
               <system value="urn:oid:2.16.840.1.113883.2.4.3.111.19.1"/>
               <value value="MedMijHG_AlgBep_C11_01"/>
            </identifier>
            <status value="final"/>
            <code>
               <coding>
                  <system value="https://referentiemodel.nhg.org/tabellen/nhg-tabel-45-diagnostische-bepalingen"/>
                  <version value="20"/>
                  <code value="1915"/>
                  <display value="Temperatuur (oraal gemeten)"/>
               </coding>
            </code>
            <subject>
               <reference value="urn:uuid:b166fdf6-37d6-11ec-1591-020000000000"/>
               <display value="J. XXX_Cevat"/>
            </subject>
            <context>
               <identifier>
                  <system value="urn:oid:2.16.840.1.113883.2.4.3.111.19.1"/>
                  <value value="MedMijHG_contactmoment11"/>
               </identifier>
               <display value="Contact ID: MedMijHG_contactmoment11 2.16.840.1.113883.2.4.3.111.19.1"/>
            </context>
            <effectiveDateTime value="2021-05-04T15:43:59+02:00"/>
            <valueQuantity>
               <value value="37.7"/>
               <unit value="Cel"/>
               <system value="http://unitsofmeasure.org"/>
               <code value="Cel"/>
            </valueQuantity>
         </Observation>
      </resource>
      <search>
         <mode value="match"/>
      </search>
   </entry>
   <entry>
      <fullUrl value="urn:uuid:b166fe25-37d6-11ec-1591-020000000000"/>
      <resource>
         <Observation>
            <meta>
               <profile value="http://nictiz.nl/fhir/StructureDefinition/gp-DiagnosticResult"/>
            </meta>
            <text>
               <status value="extensions"/>
               <div xmlns="http://www.w3.org/1999/xhtml">
                  <table>
                     <caption>Observatie/bepaling. Subject: J. XXX_Cevat. Id: MedMijHG_AlgBep_C10_01 (urn:oid:2.16.840.1.113883.2.4.3.111.19.1), Status: definitief</caption>
                     <tbody>
                        <tr>
                           <th>Context</th>
                           <td>
                              <ul>
                                 <li>Episode ID: MedMijHG_concern_R21.01 2.16.840.1.113883.2.4.3.111.19.1 (Id: MedMijHG_concern_R21.01 (urn:oid:2.16.840.1.113883.2.4.3.111.19.1))</li>
                                 <li>Contact ID: MedMijHG_contactmoment10 2.16.840.1.113883.2.4.3.111.19.1 (Id: MedMijHG_contactmoment10 (urn:oid:2.16.840.1.113883.2.4.3.111.19.1))</li>
                              </ul>
                           </td>
                        </tr>
                        <tr>
                           <th>Bepalingdatum/tijd</th>
                           <td>15:43:59, 4 mei 2021</td>
                        </tr>
                        <tr>
                           <th>Code</th>
                           <th>Waarde</th>
                        </tr>
                        <tr>
                           <td>
                              <span title="Temperatuur (oraal gemeten) (1915 - nhg-tabel-45-diagnostische-bepalingen)">Temperatuur (oraal gemeten)</span>
                           </td>
                           <td>37.3 Cel</td>
                        </tr>
                     </tbody>
                  </table>
               </div>
            </text>
            <extension url="http://nictiz.nl/fhir/StructureDefinition/extension-context-nl-core-episodeofcare">
               <valueReference>
                  <identifier>
                     <system value="urn:oid:2.16.840.1.113883.2.4.3.111.19.1"/>
                     <value value="MedMijHG_concern_R21.01"/>
                  </identifier>
                  <display value="Episode ID: MedMijHG_concern_R21.01 2.16.840.1.113883.2.4.3.111.19.1"/>
               </valueReference>
            </extension>
            <identifier>
               <system value="urn:oid:2.16.840.1.113883.2.4.3.111.19.1"/>
               <value value="MedMijHG_AlgBep_C10_01"/>
            </identifier>
            <status value="final"/>
            <code>
               <coding>
                  <system value="https://referentiemodel.nhg.org/tabellen/nhg-tabel-45-diagnostische-bepalingen"/>
                  <version value="20"/>
                  <code value="1915"/>
                  <display value="Temperatuur (oraal gemeten)"/>
               </coding>
            </code>
            <subject>
               <reference value="urn:uuid:b166fdf6-37d6-11ec-1591-020000000000"/>
               <display value="J. XXX_Cevat"/>
            </subject>
            <context>
               <identifier>
                  <system value="urn:oid:2.16.840.1.113883.2.4.3.111.19.1"/>
                  <value value="MedMijHG_contactmoment10"/>
               </identifier>
               <display value="Contact ID: MedMijHG_contactmoment10 2.16.840.1.113883.2.4.3.111.19.1"/>
            </context>
            <effectiveDateTime value="2021-05-04T15:43:59+02:00"/>
            <valueQuantity>
               <value value="37.3"/>
               <unit value="Cel"/>
               <system value="http://unitsofmeasure.org"/>
               <code value="Cel"/>
            </valueQuantity>
         </Observation>
      </resource>
      <search>
         <mode value="match"/>
      </search>
   </entry>
   <entry>
      <fullUrl value="urn:uuid:b166fe2e-37d6-11ec-1591-020000000000"/>
      <resource>
         <Observation>
            <meta>
               <profile value="http://nictiz.nl/fhir/StructureDefinition/gp-DiagnosticResult"/>
            </meta>
            <text>
               <status value="extensions"/>
               <div xmlns="http://www.w3.org/1999/xhtml">
                  <table>
                     <caption>Observatie/bepaling. Subject: J. XXX_Cevat. Id: MedMijHG_AlgBep_C06_01 (urn:oid:2.16.840.1.113883.2.4.3.111.19.1), Status: definitief</caption>
                     <tbody>
                        <tr>
                           <th>Context</th>
                           <td>
                              <ul>
                                 <li>Episode ID: MedMijHG_concern_R21.01 2.16.840.1.113883.2.4.3.111.19.1 (Id: MedMijHG_concern_R21.01 (urn:oid:2.16.840.1.113883.2.4.3.111.19.1))</li>
                                 <li>Contact ID: MedMijHG_contactmoment06 2.16.840.1.113883.2.4.3.111.19.1 (Id: MedMijHG_contactmoment06 (urn:oid:2.16.840.1.113883.2.4.3.111.19.1))</li>
                              </ul>
                           </td>
                        </tr>
                        <tr>
                           <th>Bepalingdatum/tijd</th>
                           <td>15:43:59, 5 maart 2021</td>
                        </tr>
                        <tr>
                           <th>Code</th>
                           <th>Waarde</th>
                        </tr>
                        <tr>
                           <td>
                              <span title="Temperatuur (oraal gemeten) (1915 - nhg-tabel-45-diagnostische-bepalingen)">Temperatuur (oraal gemeten)</span>
                           </td>
                           <td>37.4 Cel</td>
                        </tr>
                     </tbody>
                  </table>
               </div>
            </text>
            <extension url="http://nictiz.nl/fhir/StructureDefinition/extension-context-nl-core-episodeofcare">
               <valueReference>
                  <identifier>
                     <system value="urn:oid:2.16.840.1.113883.2.4.3.111.19.1"/>
                     <value value="MedMijHG_concern_R21.01"/>
                  </identifier>
                  <display value="Episode ID: MedMijHG_concern_R21.01 2.16.840.1.113883.2.4.3.111.19.1"/>
               </valueReference>
            </extension>
            <identifier>
               <system value="urn:oid:2.16.840.1.113883.2.4.3.111.19.1"/>
               <value value="MedMijHG_AlgBep_C06_01"/>
            </identifier>
            <status value="final"/>
            <code>
               <coding>
                  <system value="https://referentiemodel.nhg.org/tabellen/nhg-tabel-45-diagnostische-bepalingen"/>
                  <version value="20"/>
                  <code value="1915"/>
                  <display value="Temperatuur (oraal gemeten)"/>
               </coding>
            </code>
            <subject>
               <reference value="urn:uuid:b166fdf6-37d6-11ec-1591-020000000000"/>
               <display value="J. XXX_Cevat"/>
            </subject>
            <context>
               <identifier>
                  <system value="urn:oid:2.16.840.1.113883.2.4.3.111.19.1"/>
                  <value value="MedMijHG_contactmoment06"/>
               </identifier>
               <display value="Contact ID: MedMijHG_contactmoment06 2.16.840.1.113883.2.4.3.111.19.1"/>
            </context>
            <effectiveDateTime value="2021-03-05T15:43:59+01:00"/>
            <valueQuantity>
               <value value="37.4"/>
               <unit value="Cel"/>
               <system value="http://unitsofmeasure.org"/>
               <code value="Cel"/>
            </valueQuantity>
         </Observation>
      </resource>
      <search>
         <mode value="match"/>
      </search>
   </entry>
   <entry>
      <fullUrl value="urn:uuid:b166fe36-37d6-11ec-1591-020000000000"/>
      <resource>
         <Observation>
            <meta>
               <profile value="http://nictiz.nl/fhir/StructureDefinition/gp-DiagnosticResult"/>
            </meta>
            <text>
               <status value="extensions"/>
               <div xmlns="http://www.w3.org/1999/xhtml">
                  <table>
                     <caption>Observatie/bepaling. Subject: J. XXX_Cevat. Id: MedMijHG_AlgBep_C03_01 (urn:oid:2.16.840.1.113883.2.4.3.111.19.1), Status: definitief</caption>
                     <tbody>
                        <tr>
                           <th>Context</th>
                           <td>Contact ID: MedMijHG_contactmoment03 2.16.840.1.113883.2.4.3.111.19.1 (Id: MedMijHG_contactmoment03 (urn:oid:2.16.840.1.113883.2.4.3.111.19.1))</td>
                        </tr>
                        <tr>
                           <th>Bepalingdatum/tijd</th>
                           <td>15:43:59, 7 augustus 2020</td>
                        </tr>
                        <tr>
                           <th>Code</th>
                           <th>Waarde</th>
                        </tr>
                        <tr>
                           <td>
                              <span title="Systolische bloeddruk (1744 - nhg-tabel-45-diagnostische-bepalingen)">Systolische bloeddruk</span>
                           </td>
                           <td>188 mm[Hg]</td>
                        </tr>
                     </tbody>
                  </table>
               </div>
            </text>
            <identifier>
               <system value="urn:oid:2.16.840.1.113883.2.4.3.111.19.1"/>
               <value value="MedMijHG_AlgBep_C03_01"/>
            </identifier>
            <status value="final"/>
            <code>
               <coding>
                  <system value="https://referentiemodel.nhg.org/tabellen/nhg-tabel-45-diagnostische-bepalingen"/>
                  <version value="20"/>
                  <code value="1744"/>
                  <display value="Systolische bloeddruk"/>
               </coding>
            </code>
            <subject>
               <reference value="urn:uuid:b166fdf6-37d6-11ec-1591-020000000000"/>
               <display value="J. XXX_Cevat"/>
            </subject>
            <context>
               <identifier>
                  <system value="urn:oid:2.16.840.1.113883.2.4.3.111.19.1"/>
                  <value value="MedMijHG_contactmoment03"/>
               </identifier>
               <display value="Contact ID: MedMijHG_contactmoment03 2.16.840.1.113883.2.4.3.111.19.1"/>
            </context>
            <effectiveDateTime value="2020-08-07T15:43:59+02:00"/>
            <valueQuantity>
               <value value="188"/>
               <unit value="mm[Hg]"/>
               <system value="http://unitsofmeasure.org"/>
               <code value="mm[Hg]"/>
            </valueQuantity>
         </Observation>
      </resource>
      <search>
         <mode value="match"/>
      </search>
   </entry>
   <entry>
      <fullUrl value="urn:uuid:b166fe3e-37d6-11ec-1591-020000000000"/>
      <resource>
         <Observation>
            <meta>
               <profile value="http://nictiz.nl/fhir/StructureDefinition/gp-DiagnosticResult"/>
            </meta>
            <text>
               <status value="extensions"/>
               <div xmlns="http://www.w3.org/1999/xhtml">
                  <table>
                     <caption>Observatie/bepaling. Subject: J. XXX_Cevat. Id: MedMijHG_AlgBep_C03_02 (urn:oid:2.16.840.1.113883.2.4.3.111.19.1), Status: definitief</caption>
                     <tbody>
                        <tr>
                           <th>Context</th>
                           <td>Contact ID: MedMijHG_contactmoment03 2.16.840.1.113883.2.4.3.111.19.1 (Id: MedMijHG_contactmoment03 (urn:oid:2.16.840.1.113883.2.4.3.111.19.1))</td>
                        </tr>
                        <tr>
                           <th>Bepalingdatum/tijd</th>
                           <td>15:43:59, 7 augustus 2020</td>
                        </tr>
                        <tr>
                           <th>Code</th>
                           <th>Waarde</th>
                        </tr>
                        <tr>
                           <td>
                              <span title="Diastolische bloeddruk (1740 - nhg-tabel-45-diagnostische-bepalingen)">Diastolische bloeddruk</span>
                           </td>
                           <td>96 mm[Hg]</td>
                        </tr>
                     </tbody>
                  </table>
               </div>
            </text>
            <identifier>
               <system value="urn:oid:2.16.840.1.113883.2.4.3.111.19.1"/>
               <value value="MedMijHG_AlgBep_C03_02"/>
            </identifier>
            <status value="final"/>
            <code>
               <coding>
                  <system value="https://referentiemodel.nhg.org/tabellen/nhg-tabel-45-diagnostische-bepalingen"/>
                  <version value="20"/>
                  <code value="1740"/>
                  <display value="Diastolische bloeddruk"/>
               </coding>
            </code>
            <subject>
               <reference value="urn:uuid:b166fdf6-37d6-11ec-1591-020000000000"/>
               <display value="J. XXX_Cevat"/>
            </subject>
            <context>
               <identifier>
                  <system value="urn:oid:2.16.840.1.113883.2.4.3.111.19.1"/>
                  <value value="MedMijHG_contactmoment03"/>
               </identifier>
               <display value="Contact ID: MedMijHG_contactmoment03 2.16.840.1.113883.2.4.3.111.19.1"/>
            </context>
            <effectiveDateTime value="2020-08-07T15:43:59+02:00"/>
            <valueQuantity>
               <value value="96"/>
               <unit value="mm[Hg]"/>
               <system value="http://unitsofmeasure.org"/>
               <code value="mm[Hg]"/>
            </valueQuantity>
         </Observation>
      </resource>
      <search>
         <mode value="match"/>
      </search>
   </entry>
   <entry>
      <fullUrl value="urn:uuid:b166fe46-37d6-11ec-1591-020000000000"/>
      <resource>
         <Observation>
            <meta>
               <profile value="http://nictiz.nl/fhir/StructureDefinition/gp-DiagnosticResult"/>
            </meta>
            <text>
               <status value="extensions"/>
               <div xmlns="http://www.w3.org/1999/xhtml">
                  <table>
                     <caption>Observatie/bepaling. Subject: J. XXX_Cevat. Id: MedMijHG_AlgBep_C03_03 (urn:oid:2.16.840.1.113883.2.4.3.111.19.1), Status: definitief</caption>
                     <tbody>
                        <tr>
                           <th>Context</th>
                           <td>Contact ID: MedMijHG_contactmoment03 2.16.840.1.113883.2.4.3.111.19.1 (Id: MedMijHG_contactmoment03 (urn:oid:2.16.840.1.113883.2.4.3.111.19.1))</td>
                        </tr>
                        <tr>
                           <th>Bepalingdatum/tijd</th>
                           <td>15:43:59, 7 augustus 2020</td>
                        </tr>
                        <tr>
                           <th>Code</th>
                           <th>Waarde</th>
                        </tr>
                        <tr>
                           <td>
                              <span title="Polsfrequentie (1875 - nhg-tabel-45-diagnostische-bepalingen)">Polsfrequentie</span>
                           </td>
                           <td>104 /min</td>
                        </tr>
                     </tbody>
                  </table>
               </div>
            </text>
            <identifier>
               <system value="urn:oid:2.16.840.1.113883.2.4.3.111.19.1"/>
               <value value="MedMijHG_AlgBep_C03_03"/>
            </identifier>
            <status value="final"/>
            <code>
               <coding>
                  <system value="https://referentiemodel.nhg.org/tabellen/nhg-tabel-45-diagnostische-bepalingen"/>
                  <version value="20"/>
                  <code value="1875"/>
                  <display value="Polsfrequentie"/>
               </coding>
            </code>
            <subject>
               <reference value="urn:uuid:b166fdf6-37d6-11ec-1591-020000000000"/>
               <display value="J. XXX_Cevat"/>
            </subject>
            <context>
               <identifier>
                  <system value="urn:oid:2.16.840.1.113883.2.4.3.111.19.1"/>
                  <value value="MedMijHG_contactmoment03"/>
               </identifier>
               <display value="Contact ID: MedMijHG_contactmoment03 2.16.840.1.113883.2.4.3.111.19.1"/>
            </context>
            <effectiveDateTime value="2020-08-07T15:43:59+02:00"/>
            <valueQuantity>
               <value value="104"/>
               <unit value="/min"/>
               <system value="http://unitsofmeasure.org"/>
               <code value="/min"/>
            </valueQuantity>
         </Observation>
      </resource>
      <search>
         <mode value="match"/>
      </search>
   </entry>
   <entry>
      <fullUrl value="urn:uuid:b16702fe-37d6-11ec-1591-020000000000"/>
      <resource>
         <Observation>
            <meta>
               <profile value="http://nictiz.nl/fhir/StructureDefinition/gp-DiagnosticResult"/>
            </meta>
            <text>
               <status value="extensions"/>
               <div xmlns="http://www.w3.org/1999/xhtml">
                  <table>
                     <caption>Observatie/bepaling. Subject: J. XXX_Cevat. Id: MedMijHG_AlgBep_C02_01 (urn:oid:2.16.840.1.113883.2.4.3.111.19.1), Status: definitief</caption>
                     <tbody>
                        <tr>
                           <th>Context</th>
                           <td>Contact ID: MedMijHG_contactmoment02 2.16.840.1.113883.2.4.3.111.19.1 (Id: MedMijHG_contactmoment02 (urn:oid:2.16.840.1.113883.2.4.3.111.19.1))</td>
                        </tr>
                        <tr>
                           <th>Bepalingdatum/tijd</th>
                           <td>15:43:59, 18 juli 2020</td>
                        </tr>
                        <tr>
                           <th>Code</th>
                           <th>Waarde</th>
                        </tr>
                        <tr>
                           <td>
                              <span title="Systolische bloeddruk (1744 - nhg-tabel-45-diagnostische-bepalingen)">Systolische bloeddruk</span>
                           </td>
                           <td>172 mm[Hg]</td>
                        </tr>
                     </tbody>
                  </table>
               </div>
            </text>
            <identifier>
               <system value="urn:oid:2.16.840.1.113883.2.4.3.111.19.1"/>
               <value value="MedMijHG_AlgBep_C02_01"/>
            </identifier>
            <status value="final"/>
            <code>
               <coding>
                  <system value="https://referentiemodel.nhg.org/tabellen/nhg-tabel-45-diagnostische-bepalingen"/>
                  <version value="20"/>
                  <code value="1744"/>
                  <display value="Systolische bloeddruk"/>
               </coding>
            </code>
            <subject>
               <reference value="urn:uuid:b166fdf6-37d6-11ec-1591-020000000000"/>
               <display value="J. XXX_Cevat"/>
            </subject>
            <context>
               <identifier>
                  <system value="urn:oid:2.16.840.1.113883.2.4.3.111.19.1"/>
                  <value value="MedMijHG_contactmoment02"/>
               </identifier>
               <display value="Contact ID: MedMijHG_contactmoment02 2.16.840.1.113883.2.4.3.111.19.1"/>
            </context>
            <effectiveDateTime value="2020-07-18T15:43:59+02:00"/>
            <valueQuantity>
               <value value="172"/>
               <unit value="mm[Hg]"/>
               <system value="http://unitsofmeasure.org"/>
               <code value="mm[Hg]"/>
            </valueQuantity>
         </Observation>
      </resource>
      <search>
         <mode value="match"/>
      </search>
   </entry>
   <entry>
      <fullUrl value="urn:uuid:b1670306-37d6-11ec-1591-020000000000"/>
      <resource>
         <Observation>
            <meta>
               <profile value="http://nictiz.nl/fhir/StructureDefinition/gp-DiagnosticResult"/>
            </meta>
            <text>
               <status value="extensions"/>
               <div xmlns="http://www.w3.org/1999/xhtml">
                  <table>
                     <caption>Observatie/bepaling. Subject: J. XXX_Cevat. Id: MedMijHG_AlgBep_C02_02 (urn:oid:2.16.840.1.113883.2.4.3.111.19.1), Status: definitief</caption>
                     <tbody>
                        <tr>
                           <th>Context</th>
                           <td>Contact ID: MedMijHG_contactmoment02 2.16.840.1.113883.2.4.3.111.19.1 (Id: MedMijHG_contactmoment02 (urn:oid:2.16.840.1.113883.2.4.3.111.19.1))</td>
                        </tr>
                        <tr>
                           <th>Bepalingdatum/tijd</th>
                           <td>15:43:59, 18 juli 2020</td>
                        </tr>
                        <tr>
                           <th>Code</th>
                           <th>Waarde</th>
                        </tr>
                        <tr>
                           <td>
                              <span title="Diastolische bloeddruk (1740 - nhg-tabel-45-diagnostische-bepalingen)">Diastolische bloeddruk</span>
                           </td>
                           <td>87 mm[Hg]</td>
                        </tr>
                     </tbody>
                  </table>
               </div>
            </text>
            <identifier>
               <system value="urn:oid:2.16.840.1.113883.2.4.3.111.19.1"/>
               <value value="MedMijHG_AlgBep_C02_02"/>
            </identifier>
            <status value="final"/>
            <code>
               <coding>
                  <system value="https://referentiemodel.nhg.org/tabellen/nhg-tabel-45-diagnostische-bepalingen"/>
                  <version value="20"/>
                  <code value="1740"/>
                  <display value="Diastolische bloeddruk"/>
               </coding>
            </code>
            <subject>
               <reference value="urn:uuid:b166fdf6-37d6-11ec-1591-020000000000"/>
               <display value="J. XXX_Cevat"/>
            </subject>
            <context>
               <identifier>
                  <system value="urn:oid:2.16.840.1.113883.2.4.3.111.19.1"/>
                  <value value="MedMijHG_contactmoment02"/>
               </identifier>
               <display value="Contact ID: MedMijHG_contactmoment02 2.16.840.1.113883.2.4.3.111.19.1"/>
            </context>
            <effectiveDateTime value="2020-07-18T15:43:59+02:00"/>
            <valueQuantity>
               <value value="87"/>
               <unit value="mm[Hg]"/>
               <system value="http://unitsofmeasure.org"/>
               <code value="mm[Hg]"/>
            </valueQuantity>
         </Observation>
      </resource>
      <search>
         <mode value="match"/>
      </search>
   </entry>
   <entry>
      <fullUrl value="urn:uuid:b167030f-37d6-11ec-1591-020000000000"/>
      <resource>
         <Observation>
            <meta>
               <profile value="http://nictiz.nl/fhir/StructureDefinition/gp-DiagnosticResult"/>
            </meta>
            <text>
               <status value="extensions"/>
               <div xmlns="http://www.w3.org/1999/xhtml">
                  <table>
                     <caption>Observatie/bepaling. Subject: J. XXX_Cevat. Id: MedMijHG_AlgBep_C02_03 (urn:oid:2.16.840.1.113883.2.4.3.111.19.1), Status: definitief</caption>
                     <tbody>
                        <tr>
                           <th>Context</th>
                           <td>Contact ID: MedMijHG_contactmoment02 2.16.840.1.113883.2.4.3.111.19.1 (Id: MedMijHG_contactmoment02 (urn:oid:2.16.840.1.113883.2.4.3.111.19.1))</td>
                        </tr>
                        <tr>
                           <th>Bepalingdatum/tijd</th>
                           <td>15:43:59, 18 juli 2020</td>
                        </tr>
                        <tr>
                           <th>Code</th>
                           <th>Waarde</th>
                        </tr>
                        <tr>
                           <td>
                              <span title="Polsfrequentie (1875 - nhg-tabel-45-diagnostische-bepalingen)">Polsfrequentie</span>
                           </td>
                           <td>84 /min</td>
                        </tr>
                     </tbody>
                  </table>
               </div>
            </text>
            <identifier>
               <system value="urn:oid:2.16.840.1.113883.2.4.3.111.19.1"/>
               <value value="MedMijHG_AlgBep_C02_03"/>
            </identifier>
            <status value="final"/>
            <code>
               <coding>
                  <system value="https://referentiemodel.nhg.org/tabellen/nhg-tabel-45-diagnostische-bepalingen"/>
                  <version value="20"/>
                  <code value="1875"/>
                  <display value="Polsfrequentie"/>
               </coding>
            </code>
            <subject>
               <reference value="urn:uuid:b166fdf6-37d6-11ec-1591-020000000000"/>
               <display value="J. XXX_Cevat"/>
            </subject>
            <context>
               <identifier>
                  <system value="urn:oid:2.16.840.1.113883.2.4.3.111.19.1"/>
                  <value value="MedMijHG_contactmoment02"/>
               </identifier>
               <display value="Contact ID: MedMijHG_contactmoment02 2.16.840.1.113883.2.4.3.111.19.1"/>
            </context>
            <effectiveDateTime value="2020-07-18T15:43:59+02:00"/>
            <valueQuantity>
               <value value="84"/>
               <unit value="/min"/>
               <system value="http://unitsofmeasure.org"/>
               <code value="/min"/>
            </valueQuantity>
         </Observation>
      </resource>
      <search>
         <mode value="match"/>
      </search>
   </entry>
   <entry>
      <fullUrl value="urn:uuid:b1670318-37d6-11ec-1591-020000000000"/>
      <resource>
         <Observation>
            <meta>
               <profile value="http://nictiz.nl/fhir/StructureDefinition/gp-DiagnosticResult"/>
            </meta>
            <text>
               <status value="extensions"/>
               <div xmlns="http://www.w3.org/1999/xhtml">
                  <table>
                     <caption>Observatie/bepaling. Subject: J. XXX_Cevat. Id: MedMijHG_AlgBep_C01_01 (urn:oid:2.16.840.1.113883.2.4.3.111.19.1), Status: definitief</caption>
                     <tbody>
                        <tr>
                           <th>Context</th>
                           <td>
                              <ul>
                                 <li>Episode ID: MedMijHG_concern_K78 2.16.840.1.113883.2.4.3.111.19.1 (Id: MedMijHG_concern_K78 (urn:oid:2.16.840.1.113883.2.4.3.111.19.1))</li>
                                 <li>Contact ID: MedMijHG_contactmoment01 2.16.840.1.113883.2.4.3.111.19.1 (Id: MedMijHG_contactmoment01 (urn:oid:2.16.840.1.113883.2.4.3.111.19.1))</li>
                              </ul>
                           </td>
                        </tr>
                        <tr>
                           <th>Bepalingdatum/tijd</th>
                           <td>15:43:59, 28 juni 2020</td>
                        </tr>
                        <tr>
                           <th>Code</th>
                           <th>Waarde</th>
                        </tr>
                        <tr>
                           <td>
                              <span title="Systolische bloeddruk (1744 - nhg-tabel-45-diagnostische-bepalingen)">Systolische bloeddruk</span>
                           </td>
                           <td>184 mm[Hg]</td>
                        </tr>
                     </tbody>
                  </table>
               </div>
            </text>
            <extension url="http://nictiz.nl/fhir/StructureDefinition/extension-context-nl-core-episodeofcare">
               <valueReference>
                  <identifier>
                     <system value="urn:oid:2.16.840.1.113883.2.4.3.111.19.1"/>
                     <value value="MedMijHG_concern_K78"/>
                  </identifier>
                  <display value="Episode ID: MedMijHG_concern_K78 2.16.840.1.113883.2.4.3.111.19.1"/>
               </valueReference>
            </extension>
            <identifier>
               <system value="urn:oid:2.16.840.1.113883.2.4.3.111.19.1"/>
               <value value="MedMijHG_AlgBep_C01_01"/>
            </identifier>
            <status value="final"/>
            <code>
               <coding>
                  <system value="https://referentiemodel.nhg.org/tabellen/nhg-tabel-45-diagnostische-bepalingen"/>
                  <version value="20"/>
                  <code value="1744"/>
                  <display value="Systolische bloeddruk"/>
               </coding>
            </code>
            <subject>
               <reference value="urn:uuid:b166fdf6-37d6-11ec-1591-020000000000"/>
               <display value="J. XXX_Cevat"/>
            </subject>
            <context>
               <identifier>
                  <system value="urn:oid:2.16.840.1.113883.2.4.3.111.19.1"/>
                  <value value="MedMijHG_contactmoment01"/>
               </identifier>
               <display value="Contact ID: MedMijHG_contactmoment01 2.16.840.1.113883.2.4.3.111.19.1"/>
            </context>
            <effectiveDateTime value="2020-06-28T15:43:59+02:00"/>
            <valueQuantity>
               <value value="184"/>
               <unit value="mm[Hg]"/>
               <system value="http://unitsofmeasure.org"/>
               <code value="mm[Hg]"/>
            </valueQuantity>
         </Observation>
      </resource>
      <search>
         <mode value="match"/>
      </search>
   </entry>
   <entry>
      <fullUrl value="urn:uuid:b1670321-37d6-11ec-1591-020000000000"/>
      <resource>
         <Observation>
            <meta>
               <profile value="http://nictiz.nl/fhir/StructureDefinition/gp-DiagnosticResult"/>
            </meta>
            <text>
               <status value="extensions"/>
               <div xmlns="http://www.w3.org/1999/xhtml">
                  <table>
                     <caption>Observatie/bepaling. Subject: J. XXX_Cevat. Id: MedMijHG_AlgBep_C01_02 (urn:oid:2.16.840.1.113883.2.4.3.111.19.1), Status: definitief</caption>
                     <tbody>
                        <tr>
                           <th>Context</th>
                           <td>
                              <ul>
                                 <li>Episode ID: MedMijHG_concern_K78 2.16.840.1.113883.2.4.3.111.19.1 (Id: MedMijHG_concern_K78 (urn:oid:2.16.840.1.113883.2.4.3.111.19.1))</li>
                                 <li>Contact ID: MedMijHG_contactmoment01 2.16.840.1.113883.2.4.3.111.19.1 (Id: MedMijHG_contactmoment01 (urn:oid:2.16.840.1.113883.2.4.3.111.19.1))</li>
                              </ul>
                           </td>
                        </tr>
                        <tr>
                           <th>Bepalingdatum/tijd</th>
                           <td>15:43:59, 28 juni 2020</td>
                        </tr>
                        <tr>
                           <th>Code</th>
                           <th>Waarde</th>
                        </tr>
                        <tr>
                           <td>
                              <span title="Diastolische bloeddruk (1740 - nhg-tabel-45-diagnostische-bepalingen)">Diastolische bloeddruk</span>
                           </td>
                           <td>93 mm[Hg]</td>
                        </tr>
                     </tbody>
                  </table>
               </div>
            </text>
            <extension url="http://nictiz.nl/fhir/StructureDefinition/extension-context-nl-core-episodeofcare">
               <valueReference>
                  <identifier>
                     <system value="urn:oid:2.16.840.1.113883.2.4.3.111.19.1"/>
                     <value value="MedMijHG_concern_K78"/>
                  </identifier>
                  <display value="Episode ID: MedMijHG_concern_K78 2.16.840.1.113883.2.4.3.111.19.1"/>
               </valueReference>
            </extension>
            <identifier>
               <system value="urn:oid:2.16.840.1.113883.2.4.3.111.19.1"/>
               <value value="MedMijHG_AlgBep_C01_02"/>
            </identifier>
            <status value="final"/>
            <code>
               <coding>
                  <system value="https://referentiemodel.nhg.org/tabellen/nhg-tabel-45-diagnostische-bepalingen"/>
                  <version value="20"/>
                  <code value="1740"/>
                  <display value="Diastolische bloeddruk"/>
               </coding>
            </code>
            <subject>
               <reference value="urn:uuid:b166fdf6-37d6-11ec-1591-020000000000"/>
               <display value="J. XXX_Cevat"/>
            </subject>
            <context>
               <identifier>
                  <system value="urn:oid:2.16.840.1.113883.2.4.3.111.19.1"/>
                  <value value="MedMijHG_contactmoment01"/>
               </identifier>
               <display value="Contact ID: MedMijHG_contactmoment01 2.16.840.1.113883.2.4.3.111.19.1"/>
            </context>
            <effectiveDateTime value="2020-06-28T15:43:59+02:00"/>
            <valueQuantity>
               <value value="93"/>
               <unit value="mm[Hg]"/>
               <system value="http://unitsofmeasure.org"/>
               <code value="mm[Hg]"/>
            </valueQuantity>
         </Observation>
      </resource>
      <search>
         <mode value="match"/>
      </search>
   </entry>
   <entry>
      <fullUrl value="urn:uuid:b167032a-37d6-11ec-1591-020000000000"/>
      <resource>
         <Observation>
            <meta>
               <profile value="http://nictiz.nl/fhir/StructureDefinition/gp-DiagnosticResult"/>
            </meta>
            <text>
               <status value="extensions"/>
               <div xmlns="http://www.w3.org/1999/xhtml">
                  <table>
                     <caption>Observatie/bepaling. Subject: J. XXX_Cevat. Id: MedMijHG_AlgBep_C01_03 (urn:oid:2.16.840.1.113883.2.4.3.111.19.1), Status: definitief</caption>
                     <tbody>
                        <tr>
                           <th>Context</th>
                           <td>
                              <ul>
                                 <li>Episode ID: MedMijHG_concern_K78 2.16.840.1.113883.2.4.3.111.19.1 (Id: MedMijHG_concern_K78 (urn:oid:2.16.840.1.113883.2.4.3.111.19.1))</li>
                                 <li>Contact ID: MedMijHG_contactmoment01 2.16.840.1.113883.2.4.3.111.19.1 (Id: MedMijHG_contactmoment01 (urn:oid:2.16.840.1.113883.2.4.3.111.19.1))</li>
                              </ul>
                           </td>
                        </tr>
                        <tr>
                           <th>Bepalingdatum/tijd</th>
                           <td>15:43:59, 28 juni 2020</td>
                        </tr>
                        <tr>
                           <th>Code</th>
                           <th>Waarde</th>
                        </tr>
                        <tr>
                           <td>
                              <span title="Polsfrequentie (1875 - nhg-tabel-45-diagnostische-bepalingen)">Polsfrequentie</span>
                           </td>
                           <td>120 /min</td>
                        </tr>
                     </tbody>
                  </table>
               </div>
            </text>
            <extension url="http://nictiz.nl/fhir/StructureDefinition/extension-context-nl-core-episodeofcare">
               <valueReference>
                  <identifier>
                     <system value="urn:oid:2.16.840.1.113883.2.4.3.111.19.1"/>
                     <value value="MedMijHG_concern_K78"/>
                  </identifier>
                  <display value="Episode ID: MedMijHG_concern_K78 2.16.840.1.113883.2.4.3.111.19.1"/>
               </valueReference>
            </extension>
            <identifier>
               <system value="urn:oid:2.16.840.1.113883.2.4.3.111.19.1"/>
               <value value="MedMijHG_AlgBep_C01_03"/>
            </identifier>
            <status value="final"/>
            <code>
               <coding>
                  <system value="https://referentiemodel.nhg.org/tabellen/nhg-tabel-45-diagnostische-bepalingen"/>
                  <version value="20"/>
                  <code value="1875"/>
                  <display value="Polsfrequentie"/>
               </coding>
            </code>
            <subject>
               <reference value="urn:uuid:b166fdf6-37d6-11ec-1591-020000000000"/>
               <display value="J. XXX_Cevat"/>
            </subject>
            <context>
               <identifier>
                  <system value="urn:oid:2.16.840.1.113883.2.4.3.111.19.1"/>
                  <value value="MedMijHG_contactmoment01"/>
               </identifier>
               <display value="Contact ID: MedMijHG_contactmoment01 2.16.840.1.113883.2.4.3.111.19.1"/>
            </context>
            <effectiveDateTime value="2020-06-28T15:43:59+02:00"/>
            <valueQuantity>
               <value value="120"/>
               <unit value="/min"/>
               <system value="http://unitsofmeasure.org"/>
               <code value="/min"/>
            </valueQuantity>
         </Observation>
      </resource>
      <search>
         <mode value="match"/>
      </search>
   </entry>
   <entry>
      <fullUrl value="urn:uuid:b1670333-37d6-11ec-1591-020000000000"/>
      <resource>
         <Observation>
            <meta>
               <profile value="http://nictiz.nl/fhir/StructureDefinition/gp-DiagnosticResult"/>
            </meta>
            <text>
               <status value="extensions"/>
               <div xmlns="http://www.w3.org/1999/xhtml">
                  <table>
                     <caption>Observatie/bepaling. Subject: J. XXX_Cevat. Id: MedMijHG_AlgBep_C01_04 (urn:oid:2.16.840.1.113883.2.4.3.111.19.1), Status: definitief</caption>
                     <tbody>
                        <tr>
                           <th>Context</th>
                           <td>
                              <ul>
                                 <li>Episode ID: MedMijHG_concern_K78 2.16.840.1.113883.2.4.3.111.19.1 (Id: MedMijHG_concern_K78 (urn:oid:2.16.840.1.113883.2.4.3.111.19.1))</li>
                                 <li>Contact ID: MedMijHG_contactmoment01 2.16.840.1.113883.2.4.3.111.19.1 (Id: MedMijHG_contactmoment01 (urn:oid:2.16.840.1.113883.2.4.3.111.19.1))</li>
                              </ul>
                           </td>
                        </tr>
                        <tr>
                           <th>Bepalingdatum/tijd</th>
                           <td>15:43:59, 28 juni 2020</td>
                        </tr>
                        <tr>
                           <th>Code</th>
                           <th>Waarde</th>
                        </tr>
                        <tr>
                           <td>
                              <span title="Polsritme (2102 - nhg-tabel-45-diagnostische-bepalingen)">Polsritme</span>
                           </td>
                           <td>
                              <span title="irregulair (202 - nhg-tabel-45-diagnostische-bepalingen#resultaten)">irregulair</span>
                           </td>
                        </tr>
                     </tbody>
                  </table>
               </div>
            </text>
            <extension url="http://nictiz.nl/fhir/StructureDefinition/extension-context-nl-core-episodeofcare">
               <valueReference>
                  <identifier>
                     <system value="urn:oid:2.16.840.1.113883.2.4.3.111.19.1"/>
                     <value value="MedMijHG_concern_K78"/>
                  </identifier>
                  <display value="Episode ID: MedMijHG_concern_K78 2.16.840.1.113883.2.4.3.111.19.1"/>
               </valueReference>
            </extension>
            <identifier>
               <system value="urn:oid:2.16.840.1.113883.2.4.3.111.19.1"/>
               <value value="MedMijHG_AlgBep_C01_04"/>
            </identifier>
            <status value="final"/>
            <code>
               <coding>
                  <system value="https://referentiemodel.nhg.org/tabellen/nhg-tabel-45-diagnostische-bepalingen"/>
                  <version value="20"/>
                  <code value="2102"/>
                  <display value="Polsritme"/>
               </coding>
            </code>
            <subject>
               <reference value="urn:uuid:b166fdf6-37d6-11ec-1591-020000000000"/>
               <display value="J. XXX_Cevat"/>
            </subject>
            <context>
               <identifier>
                  <system value="urn:oid:2.16.840.1.113883.2.4.3.111.19.1"/>
                  <value value="MedMijHG_contactmoment01"/>
               </identifier>
               <display value="Contact ID: MedMijHG_contactmoment01 2.16.840.1.113883.2.4.3.111.19.1"/>
            </context>
            <effectiveDateTime value="2020-06-28T15:43:59+02:00"/>
            <valueCodeableConcept>
               <coding>
                  <system value="https://referentiemodel.nhg.org/tabellen/nhg-tabel-45-diagnostische-bepalingen#resultaten"/>
                  <code value="202"/>
                  <display value="irregulair"/>
               </coding>
            </valueCodeableConcept>
         </Observation>
      </resource>
      <search>
         <mode value="match"/>
      </search>
   </entry>
   <entry>
      <fullUrl value="urn:uuid:b167033c-37d6-11ec-1591-020000000000"/>
      <resource>
         <Observation>
            <meta>
               <profile value="http://nictiz.nl/fhir/StructureDefinition/gp-DiagnosticResult"/>
            </meta>
            <text>
               <status value="extensions"/>
               <div xmlns="http://www.w3.org/1999/xhtml">
                  <table>
                     <caption>Observatie/bepaling. Subject: J. XXX_Cevat. Id: MedMijHG_AlgBep_C01_05 (urn:oid:2.16.840.1.113883.2.4.3.111.19.1), Status: definitief</caption>
                     <tbody>
                        <tr>
                           <th>Context</th>
                           <td>
                              <ul>
                                 <li>Episode ID: MedMijHG_concern_K78 2.16.840.1.113883.2.4.3.111.19.1 (Id: MedMijHG_concern_K78 (urn:oid:2.16.840.1.113883.2.4.3.111.19.1))</li>
                                 <li>Contact ID: MedMijHG_contactmoment01 2.16.840.1.113883.2.4.3.111.19.1 (Id: MedMijHG_contactmoment01 (urn:oid:2.16.840.1.113883.2.4.3.111.19.1))</li>
                              </ul>
                           </td>
                        </tr>
                        <tr>
                           <th>Bepalingdatum/tijd</th>
                           <td>15:43:59, 28 juni 2020</td>
                        </tr>
                        <tr>
                           <th>Code</th>
                           <th>Waarde</th>
                        </tr>
                        <tr>
                           <td>
                              <span title="Pols opmerkingen (2126 - nhg-tabel-45-diagnostische-bepalingen)">Pols opmerkingen</span>
                           </td>
                           <td>linker pols</td>
                        </tr>
                     </tbody>
                  </table>
               </div>
            </text>
            <extension url="http://nictiz.nl/fhir/StructureDefinition/extension-context-nl-core-episodeofcare">
               <valueReference>
                  <identifier>
                     <system value="urn:oid:2.16.840.1.113883.2.4.3.111.19.1"/>
                     <value value="MedMijHG_concern_K78"/>
                  </identifier>
                  <display value="Episode ID: MedMijHG_concern_K78 2.16.840.1.113883.2.4.3.111.19.1"/>
               </valueReference>
            </extension>
            <identifier>
               <system value="urn:oid:2.16.840.1.113883.2.4.3.111.19.1"/>
               <value value="MedMijHG_AlgBep_C01_05"/>
            </identifier>
            <status value="final"/>
            <code>
               <coding>
                  <system value="https://referentiemodel.nhg.org/tabellen/nhg-tabel-45-diagnostische-bepalingen"/>
                  <version value="20"/>
                  <code value="2126"/>
                  <display value="Pols opmerkingen"/>
               </coding>
            </code>
            <subject>
               <reference value="urn:uuid:b166fdf6-37d6-11ec-1591-020000000000"/>
               <display value="J. XXX_Cevat"/>
            </subject>
            <context>
               <identifier>
                  <system value="urn:oid:2.16.840.1.113883.2.4.3.111.19.1"/>
                  <value value="MedMijHG_contactmoment01"/>
               </identifier>
               <display value="Contact ID: MedMijHG_contactmoment01 2.16.840.1.113883.2.4.3.111.19.1"/>
            </context>
            <effectiveDateTime value="2020-06-28T15:43:59+02:00"/>
            <valueString value="linker pols"/>
         </Observation>
      </resource>
      <search>
         <mode value="match"/>
      </search>
   </entry>
   <entry>
      <fullUrl value="urn:oid:2.16.840.1.113883.2.4.6.6.10010068.4.7.897883"/>
      <resource>
         <Observation>
            <meta>
               <profile value="http://nictiz.nl/fhir/StructureDefinition/gp-DiagnosticResult"/>
            </meta>
            <text>
               <status value="extensions"/>
               <div xmlns="http://www.w3.org/1999/xhtml">
                  <table>
                     <caption>Observatie/bepaling. Subject: J. XXX_Cevat. Id: 897883 (urn:oid:2.16.840.1.113883.2.4.6.6.10010068.4.7), Status: definitief<span style="display: block;">Uitvoerende: Responsible Party</span>
                     </caption>
                     <tbody>
                        <tr>
                           <th>Bepalingdatum/tijd</th>
                           <td>21 oktober 2020</td>
                        </tr>
                        <tr>
                           <th>Code</th>
                           <th>Waarde</th>
                        </tr>
                        <tr>
                           <td>
                              <span title="gestopt met roken sinds (2003 - nhg-tabel-45-diagnostische-bepalingen)">gestopt met roken sinds</span>
                           </td>
                           <td>21 oktober 2020</td>
                        </tr>
                     </tbody>
                  </table>
               </div>
            </text>
            <identifier>
               <system value="urn:oid:2.16.840.1.113883.2.4.6.6.10010068.4.7"/>
               <value value="897883"/>
            </identifier>
            <status value="final"/>
            <code>
               <coding>
                  <system value="https://referentiemodel.nhg.org/tabellen/nhg-tabel-45-diagnostische-bepalingen"/>
                  <version value="v37"/>
                  <code value="2003"/>
                  <display value="gestopt met roken sinds"/>
               </coding>
            </code>
            <subject>
               <reference value="urn:uuid:b166fdf6-37d6-11ec-1591-020000000000"/>
               <display value="J. XXX_Cevat"/>
            </subject>
            <effectiveDateTime value="2020-10-21"/>
            <performer>
               <extension url="http://nictiz.nl/fhir/StructureDefinition/practitionerrole-reference">
                  <valueReference>
                     <reference value="urn:uuid:b1670345-37d6-11ec-1591-020000000000"/>
                     <display value="Responsible Party"/>
                  </valueReference>
               </extension>
               <reference value="urn:oid:2.16.840.1.113883.2.4.6.1.53530225"/>
               <display value="Responsible Party"/>
            </performer>
            <valueDateTime value="2020-10-21"/>
         </Observation>
      </resource>
      <search>
         <mode value="match"/>
      </search>
   </entry>
   <entry>
      <fullUrl value="urn:oid:2.16.840.1.113883.2.4.6.6.10010068.4.7.897892"/>
      <resource>
         <Observation>
            <meta>
               <profile value="http://nictiz.nl/fhir/StructureDefinition/gp-DiagnosticResult"/>
            </meta>
            <text>
               <status value="extensions"/>
               <div xmlns="http://www.w3.org/1999/xhtml">
                  <table>
                     <caption>Observatie/bepaling. Subject: J. XXX_Cevat. Id: 897892 (urn:oid:2.16.840.1.113883.2.4.6.6.10010068.4.7), Status: definitief<span style="display: block;">Uitvoerende: Responsible Party</span>
                     </caption>
                     <tbody>
                        <tr>
                           <th>Bepalingdatum/tijd</th>
                           <td>21 oktober 2020</td>
                        </tr>
                        <tr>
                           <th>Code</th>
                           <th>Waarde</th>
                        </tr>
                        <tr>
                           <td>
                              <span title="advies gezonde voeding gegeven (2137 - nhg-tabel-45-diagnostische-bepalingen)">advies gezonde voeding gegeven</span>
                           </td>
                           <td>ja</td>
                        </tr>
                     </tbody>
                  </table>
               </div>
            </text>
            <identifier>
               <system value="urn:oid:2.16.840.1.113883.2.4.6.6.10010068.4.7"/>
               <value value="897892"/>
            </identifier>
            <status value="final"/>
            <code>
               <coding>
                  <system value="https://referentiemodel.nhg.org/tabellen/nhg-tabel-45-diagnostische-bepalingen"/>
                  <version value="v37"/>
                  <code value="2137"/>
                  <display value="advies gezonde voeding gegeven"/>
               </coding>
            </code>
            <subject>
               <reference value="urn:uuid:b166fdf6-37d6-11ec-1591-020000000000"/>
               <display value="J. XXX_Cevat"/>
            </subject>
            <effectiveDateTime value="2020-10-21"/>
            <performer>
               <extension url="http://nictiz.nl/fhir/StructureDefinition/practitionerrole-reference">
                  <valueReference>
                     <reference value="urn:uuid:b1670345-37d6-11ec-1591-020000000000"/>
                     <display value="Responsible Party"/>
                  </valueReference>
               </extension>
               <reference value="urn:oid:2.16.840.1.113883.2.4.6.1.53530225"/>
               <display value="Responsible Party"/>
            </performer>
            <valueBoolean value="true"/>
         </Observation>
      </resource>
      <search>
         <mode value="match"/>
      </search>
   </entry>
   <entry>
      <fullUrl value="urn:oid:2.16.840.1.113883.2.4.6.6.10010068.4.7.897907"/>
      <resource>
         <Observation>
            <meta>
               <profile value="http://nictiz.nl/fhir/StructureDefinition/gp-DiagnosticResult"/>
            </meta>
            <text>
               <status value="extensions"/>
               <div xmlns="http://www.w3.org/1999/xhtml">
                  <table>
                     <caption>Observatie/bepaling. Subject: J. XXX_Cevat. Id: 897907 (urn:oid:2.16.840.1.113883.2.4.6.6.10010068.4.7), Status: definitief<span style="display: block;">Uitvoerende: Responsible Party</span>
                     </caption>
                     <tbody>
                        <tr>
                           <th>Bepalingdatum/tijd</th>
                           <td colspan="2">21 oktober 2020</td>
                        </tr>
                        <tr>
                           <th>Code</th>
                           <th>Waarde</th>
                           <th>Referentiewaarden</th>
                        </tr>
                        <tr>
                           <td>
                              <span title="systolische bloeddruk (1744 - nhg-tabel-45-diagnostische-bepalingen)">systolische bloeddruk</span>
                           </td>
                           <td>110 mm[Hg]</td>
                           <td>
                              <div>normal (referencerange-meaning)  - 140 mm[Hg]</div>
                           </td>
                        </tr>
                     </tbody>
                  </table>
               </div>
            </text>
            <identifier>
               <system value="urn:oid:2.16.840.1.113883.2.4.6.6.10010068.4.7"/>
               <value value="897907"/>
            </identifier>
            <status value="final"/>
            <code>
               <coding>
                  <system value="https://referentiemodel.nhg.org/tabellen/nhg-tabel-45-diagnostische-bepalingen"/>
                  <version value="v37"/>
                  <code value="1744"/>
                  <display value="systolische bloeddruk"/>
               </coding>
            </code>
            <subject>
               <reference value="urn:uuid:b166fdf6-37d6-11ec-1591-020000000000"/>
               <display value="J. XXX_Cevat"/>
            </subject>
            <effectiveDateTime value="2020-10-21"/>
            <performer>
               <extension url="http://nictiz.nl/fhir/StructureDefinition/practitionerrole-reference">
                  <valueReference>
                     <reference value="urn:uuid:b1670345-37d6-11ec-1591-020000000000"/>
                     <display value="Responsible Party"/>
                  </valueReference>
               </extension>
               <reference value="urn:oid:2.16.840.1.113883.2.4.6.1.53530225"/>
               <display value="Responsible Party"/>
            </performer>
            <valueQuantity>
               <value value="110"/>
               <unit value="mm[Hg]"/>
               <system value="http://unitsofmeasure.org"/>
               <code value="mm[Hg]"/>
            </valueQuantity>
            <referenceRange>
               <low>
                  <extension url="http://hl7.org/fhir/StructureDefinition/iso21090-nullFlavor">
                     <valueCode value="NINF"/>
                  </extension>
               </low>
               <high>
                  <value value="140"/>
                  <unit value="mm[Hg]"/>
                  <system value="http://unitsofmeasure.org"/>
                  <code value="mm[Hg]"/>
               </high>
               <type>
                  <coding>
                     <system value="http://hl7.org/fhir/referencerange-meaning"/>
                     <code value="normal"/>
                  </coding>
               </type>
            </referenceRange>
         </Observation>
      </resource>
      <search>
         <mode value="match"/>
      </search>
   </entry>
   <entry>
      <fullUrl value="urn:uuid:b166fdf6-37d6-11ec-1591-020000000000"/>
      <resource>
         <Patient>
            <meta>
               <profile value="http://fhir.nl/fhir/StructureDefinition/nl-core-patient"/>
            </meta>
            <text>
               <status value="extensions"/>
               <div xmlns="http://www.w3.org/1999/xhtml">
                  <div>Id <i>afgeschermd (ontbrekend gegeven)</i> (BSN), J. XXX_Cevat, Man, 30 december 1985</div>
                  <div>Knolweg 1003, 9999ZA STITSWERD, Nederland</div>
               </div>
            </text>
            <identifier>
               <system value="http://fhir.nl/fhir/NamingSystem/bsn"/>
               <value>
                  <extension url="http://hl7.org/fhir/StructureDefinition/data-absent-reason">
                     <valueCode value="masked"/>
                  </extension>
               </value>
            </identifier>
            <name>
               <extension url="http://hl7.org/fhir/StructureDefinition/humanname-assembly-order">
                  <valueCode value="NL1"/>
               </extension>
               <family value="XXX_Cevat">
                  <extension url="http://hl7.org/fhir/StructureDefinition/humanname-own-name">
                     <valueString value="XXX_Cevat"/>
                  </extension>
               </family>
               <given value="J.">
                  <extension url="http://hl7.org/fhir/StructureDefinition/iso21090-EN-qualifier">
                     <valueCode value="IN"/>
                  </extension>
               </given>
            </name>
            <gender value="male">
               <extension url="http://nictiz.nl/fhir/StructureDefinition/code-specification">
                  <valueCodeableConcept>
                     <coding>
                        <system value="http://hl7.org/fhir/v3/AdministrativeGender"/>
                        <code value="M"/>
                        <display value="man"/>
                     </coding>
                  </valueCodeableConcept>
               </extension>
            </gender>
            <birthDate value="1985-12-30"/>
            <address>
               <line value="Knolweg 1003">
                  <extension url="http://hl7.org/fhir/StructureDefinition/iso21090-ADXP-streetName">
                     <valueString value="Knolweg"/>
                  </extension>
                  <extension url="http://hl7.org/fhir/StructureDefinition/iso21090-ADXP-houseNumber">
                     <valueString value="1003"/>
                  </extension>
               </line>
               <city value="STITSWERD"/>
               <postalCode value="9999ZA"/>
               <country value="Nederland"/>
            </address>
         </Patient>
      </resource>
      <search>
         <mode value="include"/>
      </search>
   </entry>
   <entry>
      <fullUrl value="urn:oid:2.16.840.1.113883.2.4.6.1.53530225"/>
      <resource>
         <Practitioner>
            <meta>
               <profile value="http://fhir.nl/fhir/StructureDefinition/nl-core-practitioner"/>
            </meta>
            <text>
               <status value="extensions"/>
               <div xmlns="http://www.w3.org/1999/xhtml">
                  <div>Id 53530225 (AGB-Z)</div>
               </div>
            </text>
            <identifier>
               <system value="http://fhir.nl/fhir/NamingSystem/agb-z"/>
               <value value="53530225"/>
            </identifier>
         </Practitioner>
      </resource>
      <search>
         <mode value="include"/>
      </search>
   </entry>
   <entry>
      <fullUrl value="urn:oid:2.16.528.1.1007.3.3.2727"/>
      <resource>
         <Organization>
            <meta>
               <profile value="http://fhir.nl/fhir/StructureDefinition/nl-core-organization"/>
            </meta>
            <text>
               <status value="extensions"/>
               <div xmlns="http://www.w3.org/1999/xhtml">
                  <table>
                     <caption>Organisatie. Id: 00002727 (URA)</caption>
                     <tbody>
                        <tr>
                           <th>Naam</th>
                           <td>Gezondheidscentrum Aesculaap</td>
                        </tr>
                     </tbody>
                  </table>
               </div>
            </text>
            <identifier>
               <system value="http://fhir.nl/fhir/NamingSystem/ura"/>
               <value value="00002727"/>
            </identifier>
            <name value="Gezondheidscentrum Aesculaap"/>
         </Organization>
      </resource>
      <search>
         <mode value="include"/>
      </search>
   </entry>
   <entry>
      <fullUrl value="urn:uuid:b1670345-37d6-11ec-1591-020000000000"/>
      <resource>
         <PractitionerRole>
            <meta>
               <profile value="http://fhir.nl/fhir/StructureDefinition/nl-core-practitionerrole"/>
            </meta>
            <text>
               <status value="extensions"/>
               <div xmlns="http://www.w3.org/1999/xhtml">
                  <table>
                     <caption>Zorgverlenerrol. </caption>
                     <tbody>
                        <tr>
                           <th>Zorgverlener</th>
                           <td>
                              <div>Responsible Party</div>
                           </td>
                        </tr>
                     </tbody>
                  </table>
               </div>
            </text>
            <practitioner>
               <reference value="urn:oid:2.16.840.1.113883.2.4.6.1.53530225"/>
               <display value="Responsible Party"/>
            </practitioner>
         </PractitionerRole>
      </resource>
      <search>
         <mode value="include"/>
      </search>
   </entry>
</Bundle>
