<?xml-model href="http://hl7.org/fhir/STU3/bundle.sch" type="application/xml" schematypens="http://purl.oclc.org/dsdl/schematron"?><Bundle xmlns="http://hl7.org/fhir"
        xmlns:xsi="http://www.w3.org/2001/XMLSchema-instance"
        xsi:schemaLocation="http://hl7.org/fhir http://hl7.org/fhir/STU3/fhir-all.xsd">
   <type value="searchset"/>
   <total value="24"/>
   <entry>
      <fullUrl value="urn:oid:2.16.840.1.113883.2.4.6.6.90000258.4.7.21103"/>
      <resource>
         <Observation>
            <meta>
               <profile value="http://nictiz.nl/fhir/StructureDefinition/gp-DiagnosticResult"/>
            </meta>
            <text>
               <status value="generated"/>
               <div xmlns="http://www.w3.org/1999/xhtml">
                  <table>
                     <caption>Observatie/bepaling. Subject: E. XXX_Zegers. Id: 21103 (urn:oid:2.16.840.1.113883.2.4.6.6.90000258.4.7), Status: definitief<span style="display: block;">Uitvoerende: Responsible Party</span>
                     </caption>
                     <tbody>
                        <tr>
                           <th>Bepalingdatum/tijd</th>
                           <td colspan="3">2017-07-09</td>
                        </tr>
                        <tr>
                           <th>Code</th>
                           <th>Waarde</th>
                           <th>Interpretatie</th>
                           <th>Referentiewaarden</th>
                        </tr>
                        <tr>
                           <td>
                              <span title="systolische bloeddruk (1744 - nhg-tabel-45-diagnostische-bepalingen)">systolische bloeddruk</span>
                           </td>
                           <td>184 mm[Hg]</td>
                           <td>
                              <span title="High (H - v3/ObservationInterpretation)">High</span>
                           </td>
                           <td>
                              <div>normal (referencerange-meaning)  - 140 mm[Hg]</div>
                           </td>
                        </tr>
                     </tbody>
                  </table>
               </div>
            </text>
            <identifier>
               <system value="urn:oid:2.16.840.1.113883.2.4.6.6.90000258.4.7"/>
               <value value="21103"/>
            </identifier>
            <status value="final"/>
            <code>
               <coding>
                  <system value="https://referentiemodel.nhg.org/tabellen/nhg-tabel-45-diagnostische-bepalingen"/>
                  <version value="v29"/>
                  <code value="1744"/>
                  <display value="systolische bloeddruk"/>
               </coding>
            </code>
            <subject>
               <reference value="urn:uuid:e8174e34-b72d-11ea-1484-020000000000"/>
               <display value="E. XXX_Zegers"/>
            </subject>
            <effectiveDateTime value="2017-07-09"/>
            <performer>
               <extension url="http://nictiz.nl/fhir/StructureDefinition/practitionerrole-reference">
                  <valueReference>
                     <reference value="urn:uuid:e8174e63-b72d-11ea-1484-020000000000"/>
                     <display value="Responsible Party"/>
                  </valueReference>
               </extension>
               <reference value="urn:oid:2.16.528.1.1007.3.1.900014718"/>
               <display value="Responsible Party"/>
            </performer>
            <valueQuantity>
               <value value="184"/>
               <unit value="mm[Hg]"/>
               <system value="http://unitsofmeasure.org"/>
               <code value="mm[Hg]"/>
            </valueQuantity>
            <interpretation>
               <coding>
                  <system value="http://hl7.org/fhir/v3/ObservationInterpretation"/>
                  <code value="H"/>
                  <display value="High"/>
               </coding>
            </interpretation>
            <referenceRange>
               <low>
                  <extension url="http://hl7.org/fhir/StructureDefinition/iso21090-nullFlavor">
                     <valueCode value="NINF"/>
                  </extension>
               </low>
               <high>
                  <value value="140"/>
                  <unit value="mm[Hg]"/>
                  <system value="http://unitsofmeasure.org"/>
                  <code value="mm[Hg]"/>
               </high>
               <type>
                  <coding>
                     <system value="http://hl7.org/fhir/referencerange-meaning"/>
                     <code value="normal"/>
                  </coding>
               </type>
            </referenceRange>
         </Observation>
      </resource>
      <search>
         <mode value="match"/>
      </search>
   </entry>
   <entry>
      <fullUrl value="urn:oid:2.16.840.1.113883.2.4.6.6.90000258.4.7.21104"/>
      <resource>
         <Observation>
            <meta>
               <profile value="http://nictiz.nl/fhir/StructureDefinition/gp-DiagnosticResult"/>
            </meta>
            <text>
               <status value="generated"/>
               <div xmlns="http://www.w3.org/1999/xhtml">
                  <table>
                     <caption>Observatie/bepaling. Subject: E. XXX_Zegers. Id: 21104 (urn:oid:2.16.840.1.113883.2.4.6.6.90000258.4.7), Status: definitief<span style="display: block;">Uitvoerende: Responsible Party</span>
                     </caption>
                     <tbody>
                        <tr>
                           <th>Bepalingdatum/tijd</th>
                           <td colspan="3">2017-07-09</td>
                        </tr>
                        <tr>
                           <th>Code</th>
                           <th>Waarde</th>
                           <th>Interpretatie</th>
                           <th>Referentiewaarden</th>
                        </tr>
                        <tr>
                           <td>
                              <span title="diastolische bloeddruk (1740 - nhg-tabel-45-diagnostische-bepalingen)">diastolische bloeddruk</span>
                           </td>
                           <td>93 mm[Hg]</td>
                           <td>
                              <span title="High (H - v3/ObservationInterpretation)">High</span>
                           </td>
                           <td>
                              <div>normal (referencerange-meaning)  - 89 mm[Hg]</div>
                           </td>
                        </tr>
                     </tbody>
                  </table>
               </div>
            </text>
            <identifier>
               <system value="urn:oid:2.16.840.1.113883.2.4.6.6.90000258.4.7"/>
               <value value="21104"/>
            </identifier>
            <status value="final"/>
            <code>
               <coding>
                  <system value="https://referentiemodel.nhg.org/tabellen/nhg-tabel-45-diagnostische-bepalingen"/>
                  <version value="v29"/>
                  <code value="1740"/>
                  <display value="diastolische bloeddruk"/>
               </coding>
            </code>
            <subject>
               <reference value="urn:uuid:e8174e34-b72d-11ea-1484-020000000000"/>
               <display value="E. XXX_Zegers"/>
            </subject>
            <effectiveDateTime value="2017-07-09"/>
            <performer>
               <extension url="http://nictiz.nl/fhir/StructureDefinition/practitionerrole-reference">
                  <valueReference>
                     <reference value="urn:uuid:e8174e63-b72d-11ea-1484-020000000000"/>
                     <display value="Responsible Party"/>
                  </valueReference>
               </extension>
               <reference value="urn:oid:2.16.528.1.1007.3.1.900014718"/>
               <display value="Responsible Party"/>
            </performer>
            <valueQuantity>
               <value value="93"/>
               <unit value="mm[Hg]"/>
               <system value="http://unitsofmeasure.org"/>
               <code value="mm[Hg]"/>
            </valueQuantity>
            <interpretation>
               <coding>
                  <system value="http://hl7.org/fhir/v3/ObservationInterpretation"/>
                  <code value="H"/>
                  <display value="High"/>
               </coding>
            </interpretation>
            <referenceRange>
               <low>
                  <extension url="http://hl7.org/fhir/StructureDefinition/iso21090-nullFlavor">
                     <valueCode value="NINF"/>
                  </extension>
               </low>
               <high>
                  <value value="89"/>
                  <unit value="mm[Hg]"/>
                  <system value="http://unitsofmeasure.org"/>
                  <code value="mm[Hg]"/>
               </high>
               <type>
                  <coding>
                     <system value="http://hl7.org/fhir/referencerange-meaning"/>
                     <code value="normal"/>
                  </coding>
               </type>
            </referenceRange>
         </Observation>
      </resource>
      <search>
         <mode value="match"/>
      </search>
   </entry>
   <entry>
      <fullUrl value="urn:oid:2.16.840.1.113883.2.4.6.6.90000258.4.7.21105"/>
      <resource>
         <Observation>
            <meta>
               <profile value="http://nictiz.nl/fhir/StructureDefinition/gp-DiagnosticResult"/>
            </meta>
            <text>
               <status value="generated"/>
               <div xmlns="http://www.w3.org/1999/xhtml">
                  <table>
                     <caption>Observatie/bepaling. Subject: E. XXX_Zegers. Id: 21105 (urn:oid:2.16.840.1.113883.2.4.6.6.90000258.4.7), Status: definitief<span style="display: block;">Uitvoerende: Responsible Party</span>
                     </caption>
                     <tbody>
                        <tr>
                           <th>Bepalingdatum/tijd</th>
                           <td colspan="3">2017-07-09</td>
                        </tr>
                        <tr>
                           <th>Code</th>
                           <th>Waarde</th>
                           <th>Interpretatie</th>
                           <th>Referentiewaarden</th>
                        </tr>
                        <tr>
                           <td>
                              <span title="polsfrequentie (1875 - nhg-tabel-45-diagnostische-bepalingen)">polsfrequentie</span>
                           </td>
                           <td>120 /min</td>
                           <td>
                              <span title="High (H - v3/ObservationInterpretation)">High</span>
                           </td>
                           <td>
                              <div>normal (referencerange-meaning) 60 /min - 100 /min</div>
                           </td>
                        </tr>
                     </tbody>
                  </table>
               </div>
            </text>
            <identifier>
               <system value="urn:oid:2.16.840.1.113883.2.4.6.6.90000258.4.7"/>
               <value value="21105"/>
            </identifier>
            <status value="final"/>
            <code>
               <coding>
                  <system value="https://referentiemodel.nhg.org/tabellen/nhg-tabel-45-diagnostische-bepalingen"/>
                  <version value="v29"/>
                  <code value="1875"/>
                  <display value="polsfrequentie"/>
               </coding>
            </code>
            <subject>
               <reference value="urn:uuid:e8174e34-b72d-11ea-1484-020000000000"/>
               <display value="E. XXX_Zegers"/>
            </subject>
            <effectiveDateTime value="2017-07-09"/>
            <performer>
               <extension url="http://nictiz.nl/fhir/StructureDefinition/practitionerrole-reference">
                  <valueReference>
                     <reference value="urn:uuid:e8174e63-b72d-11ea-1484-020000000000"/>
                     <display value="Responsible Party"/>
                  </valueReference>
               </extension>
               <reference value="urn:oid:2.16.528.1.1007.3.1.900014718"/>
               <display value="Responsible Party"/>
            </performer>
            <valueQuantity>
               <value value="120"/>
               <unit value="/min"/>
               <system value="http://unitsofmeasure.org"/>
               <code value="/min"/>
            </valueQuantity>
            <interpretation>
               <coding>
                  <system value="http://hl7.org/fhir/v3/ObservationInterpretation"/>
                  <code value="H"/>
                  <display value="High"/>
               </coding>
            </interpretation>
            <referenceRange>
               <low>
                  <value value="60"/>
                  <unit value="/min"/>
                  <system value="http://unitsofmeasure.org"/>
                  <code value="/min"/>
               </low>
               <high>
                  <value value="100"/>
                  <unit value="/min"/>
                  <system value="http://unitsofmeasure.org"/>
                  <code value="/min"/>
               </high>
               <type>
                  <coding>
                     <system value="http://hl7.org/fhir/referencerange-meaning"/>
                     <code value="normal"/>
                  </coding>
               </type>
            </referenceRange>
         </Observation>
      </resource>
      <search>
         <mode value="match"/>
      </search>
   </entry>
   <entry>
      <fullUrl value="urn:oid:2.16.840.1.113883.2.4.6.6.90000258.4.7.21106"/>
      <resource>
         <Observation>
            <meta>
               <profile value="http://nictiz.nl/fhir/StructureDefinition/gp-DiagnosticResult"/>
            </meta>
            <text>
               <status value="generated"/>
               <div xmlns="http://www.w3.org/1999/xhtml">
                  <table>
                     <caption>Observatie/bepaling. Subject: E. XXX_Zegers. Id: 21106 (urn:oid:2.16.840.1.113883.2.4.6.6.90000258.4.7), Status: definitief<span style="display: block;">Uitvoerende: Responsible Party</span>
                     </caption>
                     <tbody>
                        <tr>
                           <th>Bepalingdatum/tijd</th>
                           <td>2017-07-09</td>
                        </tr>
                        <tr>
                           <th>Code</th>
                           <th>Waarde</th>
                        </tr>
                        <tr>
                           <td>
                              <span title="polsritme (2102 - nhg-tabel-45-diagnostische-bepalingen)">polsritme</span>
                           </td>
                           <td>
                              <span title="irregulair (202 - nhg-tabel-45-diagnostische-bepalingen#resultaten)">irregulair</span>
                           </td>
                        </tr>
                     </tbody>
                  </table>
               </div>
            </text>
            <identifier>
               <system value="urn:oid:2.16.840.1.113883.2.4.6.6.90000258.4.7"/>
               <value value="21106"/>
            </identifier>
            <status value="final"/>
            <code>
               <coding>
                  <system value="https://referentiemodel.nhg.org/tabellen/nhg-tabel-45-diagnostische-bepalingen"/>
                  <version value="v29"/>
                  <code value="2102"/>
                  <display value="polsritme"/>
               </coding>
            </code>
            <subject>
               <reference value="urn:uuid:e8174e34-b72d-11ea-1484-020000000000"/>
               <display value="E. XXX_Zegers"/>
            </subject>
            <effectiveDateTime value="2017-07-09"/>
            <performer>
               <extension url="http://nictiz.nl/fhir/StructureDefinition/practitionerrole-reference">
                  <valueReference>
                     <reference value="urn:uuid:e8174e63-b72d-11ea-1484-020000000000"/>
                     <display value="Responsible Party"/>
                  </valueReference>
               </extension>
               <reference value="urn:oid:2.16.528.1.1007.3.1.900014718"/>
               <display value="Responsible Party"/>
            </performer>
            <valueCodeableConcept>
               <coding>
                  <system value="https://referentiemodel.nhg.org/tabellen/nhg-tabel-45-diagnostische-bepalingen#resultaten"/>
                  <code value="202"/>
                  <display value="irregulair"/>
               </coding>
            </valueCodeableConcept>
         </Observation>
      </resource>
      <search>
         <mode value="match"/>
      </search>
   </entry>
   <entry>
      <fullUrl value="urn:oid:2.16.840.1.113883.2.4.6.6.90000258.4.7.21107"/>
      <resource>
         <Observation>
            <meta>
               <profile value="http://nictiz.nl/fhir/StructureDefinition/gp-DiagnosticResult"/>
            </meta>
            <text>
               <status value="generated"/>
               <div xmlns="http://www.w3.org/1999/xhtml">
                  <table>
                     <caption>Observatie/bepaling. Subject: E. XXX_Zegers. Id: 21107 (urn:oid:2.16.840.1.113883.2.4.6.6.90000258.4.7), Status: definitief<span style="display: block;">Uitvoerende: Responsible Party</span>
                     </caption>
                     <tbody>
                        <tr>
                           <th>Bepalingdatum/tijd</th>
                           <td>2017-07-09</td>
                        </tr>
                        <tr>
                           <th>Code</th>
                           <th>Waarde</th>
                        </tr>
                        <tr>
                           <td>
                              <span title="pols opmerkingen (2126 - nhg-tabel-45-diagnostische-bepalingen)">pols opmerkingen</span>
                           </td>
                           <td>linker pols C01@ST-600@</td>
                        </tr>
                     </tbody>
                  </table>
               </div>
            </text>
            <identifier>
               <system value="urn:oid:2.16.840.1.113883.2.4.6.6.90000258.4.7"/>
               <value value="21107"/>
            </identifier>
            <status value="final"/>
            <code>
               <coding>
                  <system value="https://referentiemodel.nhg.org/tabellen/nhg-tabel-45-diagnostische-bepalingen"/>
                  <version value="v29"/>
                  <code value="2126"/>
                  <display value="pols opmerkingen"/>
               </coding>
            </code>
            <subject>
               <reference value="urn:uuid:e8174e34-b72d-11ea-1484-020000000000"/>
               <display value="E. XXX_Zegers"/>
            </subject>
            <effectiveDateTime value="2017-07-09"/>
            <performer>
               <extension url="http://nictiz.nl/fhir/StructureDefinition/practitionerrole-reference">
                  <valueReference>
                     <reference value="urn:uuid:e8174e63-b72d-11ea-1484-020000000000"/>
                     <display value="Responsible Party"/>
                  </valueReference>
               </extension>
               <reference value="urn:oid:2.16.528.1.1007.3.1.900014718"/>
               <display value="Responsible Party"/>
            </performer>
            <valueString value="linker pols C01@ST-600@"/>
         </Observation>
      </resource>
      <search>
         <mode value="match"/>
      </search>
   </entry>
   <entry>
      <fullUrl value="urn:oid:2.16.840.1.113883.2.4.6.6.90000258.4.7.21108"/>
      <resource>
         <Observation>
            <meta>
               <profile value="http://nictiz.nl/fhir/StructureDefinition/gp-DiagnosticResult"/>
            </meta>
            <text>
               <status value="generated"/>
               <div xmlns="http://www.w3.org/1999/xhtml">
                  <table>
                     <caption>Observatie/bepaling. Subject: E. XXX_Zegers. Id: 21108 (urn:oid:2.16.840.1.113883.2.4.6.6.90000258.4.7), Status: definitief<span style="display: block;">Uitvoerende: Responsible Party</span>
                     </caption>
                     <tbody>
                        <tr>
                           <th>Bepalingdatum/tijd</th>
                           <td colspan="3">2019-01-30</td>
                        </tr>
                        <tr>
                           <th>Code</th>
                           <th>Waarde</th>
                           <th>Interpretatie</th>
                           <th>Referentiewaarden</th>
                        </tr>
                        <tr>
                           <td>
                              <span title="systolische bloeddruk (1744 - nhg-tabel-45-diagnostische-bepalingen)">systolische bloeddruk</span>
                           </td>
                           <td>180 mm[Hg]</td>
                           <td>
                              <span title="High (H - v3/ObservationInterpretation)">High</span>
                           </td>
                           <td>
                              <div>normal (referencerange-meaning)  - 140 mm[Hg]</div>
                           </td>
                        </tr>
                     </tbody>
                  </table>
               </div>
            </text>
            <identifier>
               <system value="urn:oid:2.16.840.1.113883.2.4.6.6.90000258.4.7"/>
               <value value="21108"/>
            </identifier>
            <status value="final"/>
            <code>
               <coding>
                  <system value="https://referentiemodel.nhg.org/tabellen/nhg-tabel-45-diagnostische-bepalingen"/>
                  <version value="v29"/>
                  <code value="1744"/>
                  <display value="systolische bloeddruk"/>
               </coding>
            </code>
            <subject>
               <reference value="urn:uuid:e8174e34-b72d-11ea-1484-020000000000"/>
               <display value="E. XXX_Zegers"/>
            </subject>
            <effectiveDateTime value="2019-01-30"/>
            <performer>
               <extension url="http://nictiz.nl/fhir/StructureDefinition/practitionerrole-reference">
                  <valueReference>
                     <reference value="urn:uuid:e8174e63-b72d-11ea-1484-020000000000"/>
                     <display value="Responsible Party"/>
                  </valueReference>
               </extension>
               <reference value="urn:oid:2.16.528.1.1007.3.1.900014718"/>
               <display value="Responsible Party"/>
            </performer>
            <valueQuantity>
               <value value="180"/>
               <unit value="mm[Hg]"/>
               <system value="http://unitsofmeasure.org"/>
               <code value="mm[Hg]"/>
            </valueQuantity>
            <interpretation>
               <coding>
                  <system value="http://hl7.org/fhir/v3/ObservationInterpretation"/>
                  <code value="H"/>
                  <display value="High"/>
               </coding>
            </interpretation>
            <referenceRange>
               <low>
                  <extension url="http://hl7.org/fhir/StructureDefinition/iso21090-nullFlavor">
                     <valueCode value="NINF"/>
                  </extension>
               </low>
               <high>
                  <value value="140"/>
                  <unit value="mm[Hg]"/>
                  <system value="http://unitsofmeasure.org"/>
                  <code value="mm[Hg]"/>
               </high>
               <type>
                  <coding>
                     <system value="http://hl7.org/fhir/referencerange-meaning"/>
                     <code value="normal"/>
                  </coding>
               </type>
            </referenceRange>
         </Observation>
      </resource>
      <search>
         <mode value="match"/>
      </search>
   </entry>
   <entry>
      <fullUrl value="urn:oid:2.16.840.1.113883.2.4.6.6.90000258.4.7.21109"/>
      <resource>
         <Observation>
            <meta>
               <profile value="http://nictiz.nl/fhir/StructureDefinition/gp-DiagnosticResult"/>
            </meta>
            <text>
               <status value="generated"/>
               <div xmlns="http://www.w3.org/1999/xhtml">
                  <table>
                     <caption>Observatie/bepaling. Subject: E. XXX_Zegers. Id: 21109 (urn:oid:2.16.840.1.113883.2.4.6.6.90000258.4.7), Status: definitief<span style="display: block;">Uitvoerende: Responsible Party</span>
                     </caption>
                     <tbody>
                        <tr>
                           <th>Bepalingdatum/tijd</th>
                           <td colspan="3">2019-01-30</td>
                        </tr>
                        <tr>
                           <th>Code</th>
                           <th>Waarde</th>
                           <th>Interpretatie</th>
                           <th>Referentiewaarden</th>
                        </tr>
                        <tr>
                           <td>
                              <span title="diastolische bloeddruk (1740 - nhg-tabel-45-diagnostische-bepalingen)">diastolische bloeddruk</span>
                           </td>
                           <td>89 mm[Hg]</td>
                           <td>
                              <span title="Normal (N - v3/ObservationInterpretation)">Normal</span>
                           </td>
                           <td>
                              <div>normal (referencerange-meaning)  - 89 mm[Hg]</div>
                           </td>
                        </tr>
                     </tbody>
                  </table>
               </div>
            </text>
            <identifier>
               <system value="urn:oid:2.16.840.1.113883.2.4.6.6.90000258.4.7"/>
               <value value="21109"/>
            </identifier>
            <status value="final"/>
            <code>
               <coding>
                  <system value="https://referentiemodel.nhg.org/tabellen/nhg-tabel-45-diagnostische-bepalingen"/>
                  <version value="v29"/>
                  <code value="1740"/>
                  <display value="diastolische bloeddruk"/>
               </coding>
            </code>
            <subject>
               <reference value="urn:uuid:e8174e34-b72d-11ea-1484-020000000000"/>
               <display value="E. XXX_Zegers"/>
            </subject>
            <effectiveDateTime value="2019-01-30"/>
            <performer>
               <extension url="http://nictiz.nl/fhir/StructureDefinition/practitionerrole-reference">
                  <valueReference>
                     <reference value="urn:uuid:e8174e63-b72d-11ea-1484-020000000000"/>
                     <display value="Responsible Party"/>
                  </valueReference>
               </extension>
               <reference value="urn:oid:2.16.528.1.1007.3.1.900014718"/>
               <display value="Responsible Party"/>
            </performer>
            <valueQuantity>
               <value value="89"/>
               <unit value="mm[Hg]"/>
               <system value="http://unitsofmeasure.org"/>
               <code value="mm[Hg]"/>
            </valueQuantity>
            <interpretation>
               <coding>
                  <system value="http://hl7.org/fhir/v3/ObservationInterpretation"/>
                  <code value="N"/>
                  <display value="Normal"/>
               </coding>
            </interpretation>
            <referenceRange>
               <low>
                  <extension url="http://hl7.org/fhir/StructureDefinition/iso21090-nullFlavor">
                     <valueCode value="NINF"/>
                  </extension>
               </low>
               <high>
                  <value value="89"/>
                  <unit value="mm[Hg]"/>
                  <system value="http://unitsofmeasure.org"/>
                  <code value="mm[Hg]"/>
               </high>
               <type>
                  <coding>
                     <system value="http://hl7.org/fhir/referencerange-meaning"/>
                     <code value="normal"/>
                  </coding>
               </type>
            </referenceRange>
         </Observation>
      </resource>
      <search>
         <mode value="match"/>
      </search>
   </entry>
   <entry>
      <fullUrl value="urn:oid:2.16.840.1.113883.2.4.6.6.90000258.4.7.21110"/>
      <resource>
         <Observation>
            <meta>
               <profile value="http://nictiz.nl/fhir/StructureDefinition/gp-DiagnosticResult"/>
            </meta>
            <text>
               <status value="generated"/>
               <div xmlns="http://www.w3.org/1999/xhtml">
                  <table>
                     <caption>Observatie/bepaling. Subject: E. XXX_Zegers. Id: 21110 (urn:oid:2.16.840.1.113883.2.4.6.6.90000258.4.7), Status: definitief<span style="display: block;">Uitvoerende: Responsible Party</span>
                     </caption>
                     <tbody>
                        <tr>
                           <th>Bepalingdatum/tijd</th>
                           <td>2019-01-30</td>
                        </tr>
                        <tr>
                           <th>Code</th>
                           <th>Waarde</th>
                        </tr>
                        <tr>
                           <td>
                              <span title="polsritme (2102 - nhg-tabel-45-diagnostische-bepalingen)">polsritme</span>
                           </td>
                           <td>
                              <span title="regulair (201 - nhg-tabel-45-diagnostische-bepalingen#resultaten)">regulair</span>
                           </td>
                        </tr>
                     </tbody>
                  </table>
               </div>
            </text>
            <identifier>
               <system value="urn:oid:2.16.840.1.113883.2.4.6.6.90000258.4.7"/>
               <value value="21110"/>
            </identifier>
            <status value="final"/>
            <code>
               <coding>
                  <system value="https://referentiemodel.nhg.org/tabellen/nhg-tabel-45-diagnostische-bepalingen"/>
                  <version value="v29"/>
                  <code value="2102"/>
                  <display value="polsritme"/>
               </coding>
            </code>
            <subject>
               <reference value="urn:uuid:e8174e34-b72d-11ea-1484-020000000000"/>
               <display value="E. XXX_Zegers"/>
            </subject>
            <effectiveDateTime value="2019-01-30"/>
            <performer>
               <extension url="http://nictiz.nl/fhir/StructureDefinition/practitionerrole-reference">
                  <valueReference>
                     <reference value="urn:uuid:e8174e63-b72d-11ea-1484-020000000000"/>
                     <display value="Responsible Party"/>
                  </valueReference>
               </extension>
               <reference value="urn:oid:2.16.528.1.1007.3.1.900014718"/>
               <display value="Responsible Party"/>
            </performer>
            <valueCodeableConcept>
               <coding>
                  <system value="https://referentiemodel.nhg.org/tabellen/nhg-tabel-45-diagnostische-bepalingen#resultaten"/>
                  <code value="201"/>
                  <display value="regulair"/>
               </coding>
            </valueCodeableConcept>
         </Observation>
      </resource>
      <search>
         <mode value="match"/>
      </search>
   </entry>
   <entry>
      <fullUrl value="urn:oid:2.16.840.1.113883.2.4.6.6.90000258.4.7.21111"/>
      <resource>
         <Observation>
            <meta>
               <profile value="http://nictiz.nl/fhir/StructureDefinition/gp-DiagnosticResult"/>
            </meta>
            <text>
               <status value="generated"/>
               <div xmlns="http://www.w3.org/1999/xhtml">
                  <table>
                     <caption>Observatie/bepaling. Subject: E. XXX_Zegers. Id: 21111 (urn:oid:2.16.840.1.113883.2.4.6.6.90000258.4.7), Status: definitief<span style="display: block;">Uitvoerende: Responsible Party</span>
                     </caption>
                     <tbody>
                        <tr>
                           <th>Bepalingdatum/tijd</th>
                           <td>2019-01-30</td>
                        </tr>
                        <tr>
                           <th>Code</th>
                           <th>Waarde</th>
                        </tr>
                        <tr>
                           <td>
                              <span title="lengte patiënt (560 - nhg-tabel-45-diagnostische-bepalingen)">lengte patiënt</span>
                           </td>
                           <td>1.72 m</td>
                        </tr>
                     </tbody>
                  </table>
               </div>
            </text>
            <identifier>
               <system value="urn:oid:2.16.840.1.113883.2.4.6.6.90000258.4.7"/>
               <value value="21111"/>
            </identifier>
            <status value="final"/>
            <code>
               <coding>
                  <system value="https://referentiemodel.nhg.org/tabellen/nhg-tabel-45-diagnostische-bepalingen"/>
                  <version value="v29"/>
                  <code value="560"/>
                  <display value="lengte patiënt"/>
               </coding>
            </code>
            <subject>
               <reference value="urn:uuid:e8174e34-b72d-11ea-1484-020000000000"/>
               <display value="E. XXX_Zegers"/>
            </subject>
            <effectiveDateTime value="2019-01-30"/>
            <performer>
               <extension url="http://nictiz.nl/fhir/StructureDefinition/practitionerrole-reference">
                  <valueReference>
                     <reference value="urn:uuid:e8174e63-b72d-11ea-1484-020000000000"/>
                     <display value="Responsible Party"/>
                  </valueReference>
               </extension>
               <reference value="urn:oid:2.16.528.1.1007.3.1.900014718"/>
               <display value="Responsible Party"/>
            </performer>
            <valueQuantity>
               <value value="1.72"/>
               <unit value="m"/>
               <system value="http://unitsofmeasure.org"/>
               <code value="m"/>
            </valueQuantity>
         </Observation>
      </resource>
      <search>
         <mode value="match"/>
      </search>
   </entry>
   <entry>
      <fullUrl value="urn:oid:2.16.840.1.113883.2.4.6.6.90000258.4.7.21112"/>
      <resource>
         <Observation>
            <meta>
               <profile value="http://nictiz.nl/fhir/StructureDefinition/gp-DiagnosticResult"/>
            </meta>
            <text>
               <status value="generated"/>
               <div xmlns="http://www.w3.org/1999/xhtml">
                  <table>
                     <caption>Observatie/bepaling. Subject: E. XXX_Zegers. Id: 21112 (urn:oid:2.16.840.1.113883.2.4.6.6.90000258.4.7), Status: definitief<span style="display: block;">Uitvoerende: Responsible Party</span>
                     </caption>
                     <tbody>
                        <tr>
                           <th>Bepalingdatum/tijd</th>
                           <td>2019-01-30</td>
                        </tr>
                        <tr>
                           <th>Code</th>
                           <th>Waarde</th>
                        </tr>
                        <tr>
                           <td>
                              <span title="gewicht patiënt (357 - nhg-tabel-45-diagnostische-bepalingen)">gewicht patiënt</span>
                           </td>
                           <td>80 kg</td>
                        </tr>
                     </tbody>
                  </table>
               </div>
            </text>
            <identifier>
               <system value="urn:oid:2.16.840.1.113883.2.4.6.6.90000258.4.7"/>
               <value value="21112"/>
            </identifier>
            <status value="final"/>
            <code>
               <coding>
                  <system value="https://referentiemodel.nhg.org/tabellen/nhg-tabel-45-diagnostische-bepalingen"/>
                  <version value="v29"/>
                  <code value="357"/>
                  <display value="gewicht patiënt"/>
               </coding>
            </code>
            <subject>
               <reference value="urn:uuid:e8174e34-b72d-11ea-1484-020000000000"/>
               <display value="E. XXX_Zegers"/>
            </subject>
            <effectiveDateTime value="2019-01-30"/>
            <performer>
               <extension url="http://nictiz.nl/fhir/StructureDefinition/practitionerrole-reference">
                  <valueReference>
                     <reference value="urn:uuid:e8174e63-b72d-11ea-1484-020000000000"/>
                     <display value="Responsible Party"/>
                  </valueReference>
               </extension>
               <reference value="urn:oid:2.16.528.1.1007.3.1.900014718"/>
               <display value="Responsible Party"/>
            </performer>
            <valueQuantity>
               <value value="80"/>
               <unit value="kg"/>
               <system value="http://unitsofmeasure.org"/>
               <code value="kg"/>
            </valueQuantity>
         </Observation>
      </resource>
      <search>
         <mode value="match"/>
      </search>
   </entry>
   <entry>
      <fullUrl value="urn:oid:2.16.840.1.113883.2.4.6.6.90000258.4.7.21113"/>
      <resource>
         <Observation>
            <meta>
               <profile value="http://nictiz.nl/fhir/StructureDefinition/gp-DiagnosticResult"/>
            </meta>
            <text>
               <status value="generated"/>
               <div xmlns="http://www.w3.org/1999/xhtml">
                  <table>
                     <caption>Observatie/bepaling. Subject: E. XXX_Zegers. Id: 21113 (urn:oid:2.16.840.1.113883.2.4.6.6.90000258.4.7), Status: definitief<span style="display: block;">Uitvoerende: Responsible Party</span>
                     </caption>
                     <tbody>
                        <tr>
                           <th>Bepalingdatum/tijd</th>
                           <td colspan="3">2019-01-30</td>
                        </tr>
                        <tr>
                           <th>Code</th>
                           <th>Waarde</th>
                           <th>Interpretatie</th>
                           <th>Referentiewaarden</th>
                        </tr>
                        <tr>
                           <td>
                              <span title="ademhalingsfrequentie (1589 - nhg-tabel-45-diagnostische-bepalingen)">ademhalingsfrequentie</span>
                           </td>
                           <td>19 /min</td>
                           <td>
                              <span title="Normal (N - v3/ObservationInterpretation)">Normal</span>
                           </td>
                           <td>
                              <div>normal (referencerange-meaning)  - 20 /min</div>
                           </td>
                        </tr>
                     </tbody>
                  </table>
               </div>
            </text>
            <identifier>
               <system value="urn:oid:2.16.840.1.113883.2.4.6.6.90000258.4.7"/>
               <value value="21113"/>
            </identifier>
            <status value="final"/>
            <code>
               <coding>
                  <system value="https://referentiemodel.nhg.org/tabellen/nhg-tabel-45-diagnostische-bepalingen"/>
                  <version value="v29"/>
                  <code value="1589"/>
                  <display value="ademhalingsfrequentie"/>
               </coding>
            </code>
            <subject>
               <reference value="urn:uuid:e8174e34-b72d-11ea-1484-020000000000"/>
               <display value="E. XXX_Zegers"/>
            </subject>
            <effectiveDateTime value="2019-01-30"/>
            <performer>
               <extension url="http://nictiz.nl/fhir/StructureDefinition/practitionerrole-reference">
                  <valueReference>
                     <reference value="urn:uuid:e8174e63-b72d-11ea-1484-020000000000"/>
                     <display value="Responsible Party"/>
                  </valueReference>
               </extension>
               <reference value="urn:oid:2.16.528.1.1007.3.1.900014718"/>
               <display value="Responsible Party"/>
            </performer>
            <valueQuantity>
               <value value="19"/>
               <unit value="/min"/>
               <system value="http://unitsofmeasure.org"/>
               <code value="/min"/>
            </valueQuantity>
            <interpretation>
               <coding>
                  <system value="http://hl7.org/fhir/v3/ObservationInterpretation"/>
                  <code value="N"/>
                  <display value="Normal"/>
               </coding>
            </interpretation>
            <referenceRange>
               <low>
                  <extension url="http://hl7.org/fhir/StructureDefinition/iso21090-nullFlavor">
                     <valueCode value="NINF"/>
                  </extension>
               </low>
               <high>
                  <value value="20"/>
                  <unit value="/min"/>
                  <system value="http://unitsofmeasure.org"/>
                  <code value="/min"/>
               </high>
               <type>
                  <coding>
                     <system value="http://hl7.org/fhir/referencerange-meaning"/>
                     <code value="normal"/>
                  </coding>
               </type>
            </referenceRange>
         </Observation>
      </resource>
      <search>
         <mode value="match"/>
      </search>
   </entry>
   <entry>
      <fullUrl value="urn:oid:2.16.840.1.113883.2.4.6.6.90000258.4.7.21114"/>
      <resource>
         <Observation>
            <meta>
               <profile value="http://nictiz.nl/fhir/StructureDefinition/gp-DiagnosticResult"/>
            </meta>
            <text>
               <status value="generated"/>
               <div xmlns="http://www.w3.org/1999/xhtml">
                  <table>
                     <caption>Observatie/bepaling. Subject: E. XXX_Zegers. Id: 21114 (urn:oid:2.16.840.1.113883.2.4.6.6.90000258.4.7), Status: definitief<span style="display: block;">Uitvoerende: Responsible Party</span>
                     </caption>
                     <tbody>
                        <tr>
                           <th>Bepalingdatum/tijd</th>
                           <td colspan="3">2019-01-30</td>
                        </tr>
                        <tr>
                           <th>Code</th>
                           <th>Waarde</th>
                           <th>Interpretatie</th>
                           <th>Referentiewaarden</th>
                        </tr>
                        <tr>
                           <td>
                              <span title="FEV1/FVC ratio pré-BD (1675 - nhg-tabel-45-diagnostische-bepalingen)">FEV1/FVC ratio pré-BD</span>
                           </td>
                           <td>66 %</td>
                           <td>
                              <span title="Low (L - v3/ObservationInterpretation)">Low</span>
                           </td>
                           <td>
                              <div>normal (referencerange-meaning) 70 % - </div>
                           </td>
                        </tr>
                     </tbody>
                  </table>
               </div>
            </text>
            <identifier>
               <system value="urn:oid:2.16.840.1.113883.2.4.6.6.90000258.4.7"/>
               <value value="21114"/>
            </identifier>
            <status value="final"/>
            <code>
               <coding>
                  <system value="https://referentiemodel.nhg.org/tabellen/nhg-tabel-45-diagnostische-bepalingen"/>
                  <version value="v29"/>
                  <code value="1675"/>
                  <display value="FEV1/FVC ratio pré-BD"/>
               </coding>
            </code>
            <subject>
               <reference value="urn:uuid:e8174e34-b72d-11ea-1484-020000000000"/>
               <display value="E. XXX_Zegers"/>
            </subject>
            <effectiveDateTime value="2019-01-30"/>
            <performer>
               <extension url="http://nictiz.nl/fhir/StructureDefinition/practitionerrole-reference">
                  <valueReference>
                     <reference value="urn:uuid:e8174e63-b72d-11ea-1484-020000000000"/>
                     <display value="Responsible Party"/>
                  </valueReference>
               </extension>
               <reference value="urn:oid:2.16.528.1.1007.3.1.900014718"/>
               <display value="Responsible Party"/>
            </performer>
            <valueQuantity>
               <value value="66"/>
               <unit value="%"/>
               <system value="http://unitsofmeasure.org"/>
               <code value="%"/>
            </valueQuantity>
            <interpretation>
               <coding>
                  <system value="http://hl7.org/fhir/v3/ObservationInterpretation"/>
                  <code value="L"/>
                  <display value="Low"/>
               </coding>
            </interpretation>
            <referenceRange>
               <low>
                  <value value="70"/>
                  <unit value="%"/>
                  <system value="http://unitsofmeasure.org"/>
                  <code value="%"/>
               </low>
               <high>
                  <extension url="http://hl7.org/fhir/StructureDefinition/iso21090-nullFlavor">
                     <valueCode value="PINF"/>
                  </extension>
               </high>
               <type>
                  <coding>
                     <system value="http://hl7.org/fhir/referencerange-meaning"/>
                     <code value="normal"/>
                  </coding>
               </type>
            </referenceRange>
         </Observation>
      </resource>
      <search>
         <mode value="match"/>
      </search>
   </entry>
   <entry>
      <fullUrl value="urn:oid:2.16.840.1.113883.2.4.6.6.90000258.4.7.21115"/>
      <resource>
         <Observation>
            <meta>
               <profile value="http://nictiz.nl/fhir/StructureDefinition/gp-DiagnosticResult"/>
            </meta>
            <text>
               <status value="generated"/>
               <div xmlns="http://www.w3.org/1999/xhtml">
                  <table>
                     <caption>Observatie/bepaling. Subject: E. XXX_Zegers. Id: 21115 (urn:oid:2.16.840.1.113883.2.4.6.6.90000258.4.7), Status: definitief<span style="display: block;">Uitvoerende: Responsible Party</span>
                     </caption>
                     <tbody>
                        <tr>
                           <th>Bepalingdatum/tijd</th>
                           <td>2019-01-30</td>
                        </tr>
                        <tr>
                           <th>Code</th>
                           <th>Waarde</th>
                        </tr>
                        <tr>
                           <td>
                              <span title="conclusie longfunctieonderzoek (1704 - nhg-tabel-45-diagnostische-bepalingen)">conclusie longfunctieonderzoek</span>
                           </td>
                           <td>CPOD C03@ST-30@</td>
                        </tr>
                     </tbody>
                  </table>
               </div>
            </text>
            <identifier>
               <system value="urn:oid:2.16.840.1.113883.2.4.6.6.90000258.4.7"/>
               <value value="21115"/>
            </identifier>
            <status value="final"/>
            <code>
               <coding>
                  <system value="https://referentiemodel.nhg.org/tabellen/nhg-tabel-45-diagnostische-bepalingen"/>
                  <version value="v29"/>
                  <code value="1704"/>
                  <display value="conclusie longfunctieonderzoek"/>
               </coding>
            </code>
            <subject>
               <reference value="urn:uuid:e8174e34-b72d-11ea-1484-020000000000"/>
               <display value="E. XXX_Zegers"/>
            </subject>
            <effectiveDateTime value="2019-01-30"/>
            <performer>
               <extension url="http://nictiz.nl/fhir/StructureDefinition/practitionerrole-reference">
                  <valueReference>
                     <reference value="urn:uuid:e8174e63-b72d-11ea-1484-020000000000"/>
                     <display value="Responsible Party"/>
                  </valueReference>
               </extension>
               <reference value="urn:oid:2.16.528.1.1007.3.1.900014718"/>
               <display value="Responsible Party"/>
            </performer>
            <valueString value="CPOD C03@ST-30@"/>
         </Observation>
      </resource>
      <search>
         <mode value="match"/>
      </search>
   </entry>
   <entry>
      <fullUrl value="urn:oid:2.16.840.1.113883.2.4.6.6.90000258.4.7.21116"/>
      <resource>
         <Observation>
            <meta>
               <profile value="http://nictiz.nl/fhir/StructureDefinition/gp-DiagnosticResult"/>
            </meta>
            <text>
               <status value="generated"/>
               <div xmlns="http://www.w3.org/1999/xhtml">
                  <table>
                     <caption>Observatie/bepaling. Subject: E. XXX_Zegers. Id: 21116 (urn:oid:2.16.840.1.113883.2.4.6.6.90000258.4.7), Status: definitief<span style="display: block;">Uitvoerende: Responsible Party</span>
                     </caption>
                     <tbody>
                        <tr>
                           <th>Bepalingdatum/tijd</th>
                           <td>2019-01-30</td>
                        </tr>
                        <tr>
                           <th>Code</th>
                           <th>Waarde</th>
                        </tr>
                        <tr>
                           <td>
                              <span title="roken (1739 - nhg-tabel-45-diagnostische-bepalingen)">roken</span>
                           </td>
                           <td>
                              <span title="voorheen (4 - nhg-tabel-45-diagnostische-bepalingen#resultaten)">voorheen</span>
                           </td>
                        </tr>
                     </tbody>
                  </table>
               </div>
            </text>
            <identifier>
               <system value="urn:oid:2.16.840.1.113883.2.4.6.6.90000258.4.7"/>
               <value value="21116"/>
            </identifier>
            <status value="final"/>
            <code>
               <coding>
                  <system value="https://referentiemodel.nhg.org/tabellen/nhg-tabel-45-diagnostische-bepalingen"/>
                  <version value="v29"/>
                  <code value="1739"/>
                  <display value="roken"/>
               </coding>
            </code>
            <subject>
               <reference value="urn:uuid:e8174e34-b72d-11ea-1484-020000000000"/>
               <display value="E. XXX_Zegers"/>
            </subject>
            <effectiveDateTime value="2019-01-30"/>
            <performer>
               <extension url="http://nictiz.nl/fhir/StructureDefinition/practitionerrole-reference">
                  <valueReference>
                     <reference value="urn:uuid:e8174e63-b72d-11ea-1484-020000000000"/>
                     <display value="Responsible Party"/>
                  </valueReference>
               </extension>
               <reference value="urn:oid:2.16.528.1.1007.3.1.900014718"/>
               <display value="Responsible Party"/>
            </performer>
            <valueCodeableConcept>
               <coding>
                  <system value="https://referentiemodel.nhg.org/tabellen/nhg-tabel-45-diagnostische-bepalingen#resultaten"/>
                  <code value="4"/>
                  <display value="voorheen"/>
               </coding>
            </valueCodeableConcept>
         </Observation>
      </resource>
      <search>
         <mode value="match"/>
      </search>
   </entry>
   <entry>
      <fullUrl value="urn:oid:2.16.840.1.113883.2.4.6.6.90000258.4.7.21117"/>
      <resource>
         <Observation>
            <meta>
               <profile value="http://nictiz.nl/fhir/StructureDefinition/gp-DiagnosticResult"/>
            </meta>
            <text>
               <status value="generated"/>
               <div xmlns="http://www.w3.org/1999/xhtml">
                  <table>
                     <caption>Observatie/bepaling. Subject: E. XXX_Zegers. Id: 21117 (urn:oid:2.16.840.1.113883.2.4.6.6.90000258.4.7), Status: definitief<span style="display: block;">Uitvoerende: Responsible Party</span>
                     </caption>
                     <tbody>
                        <tr>
                           <th>Bepalingdatum/tijd</th>
                           <td>2019-01-30</td>
                        </tr>
                        <tr>
                           <th>Code</th>
                           <th>Waarde</th>
                        </tr>
                        <tr>
                           <td>
                              <span title="aantal jaren gerookt (1991 - nhg-tabel-45-diagnostische-bepalingen)">aantal jaren gerookt</span>
                           </td>
                           <td>10 a</td>
                        </tr>
                     </tbody>
                  </table>
               </div>
            </text>
            <identifier>
               <system value="urn:oid:2.16.840.1.113883.2.4.6.6.90000258.4.7"/>
               <value value="21117"/>
            </identifier>
            <status value="final"/>
            <code>
               <coding>
                  <system value="https://referentiemodel.nhg.org/tabellen/nhg-tabel-45-diagnostische-bepalingen"/>
                  <version value="v29"/>
                  <code value="1991"/>
                  <display value="aantal jaren gerookt"/>
               </coding>
            </code>
            <subject>
               <reference value="urn:uuid:e8174e34-b72d-11ea-1484-020000000000"/>
               <display value="E. XXX_Zegers"/>
            </subject>
            <effectiveDateTime value="2019-01-30"/>
            <performer>
               <extension url="http://nictiz.nl/fhir/StructureDefinition/practitionerrole-reference">
                  <valueReference>
                     <reference value="urn:uuid:e8174e63-b72d-11ea-1484-020000000000"/>
                     <display value="Responsible Party"/>
                  </valueReference>
               </extension>
               <reference value="urn:oid:2.16.528.1.1007.3.1.900014718"/>
               <display value="Responsible Party"/>
            </performer>
            <valueQuantity>
               <value value="10"/>
               <unit value="a"/>
               <system value="http://unitsofmeasure.org"/>
               <code value="a"/>
            </valueQuantity>
         </Observation>
      </resource>
      <search>
         <mode value="match"/>
      </search>
   </entry>
   <entry>
      <fullUrl value="urn:uuid:e8174791-b72d-11ea-1484-020000000000"/>
      <resource>
         <Observation>
            <meta>
               <profile value="http://nictiz.nl/fhir/StructureDefinition/gp-DiagnosticResult"/>
            </meta>
            <text>
               <status value="generated"/>
               <div xmlns="http://www.w3.org/1999/xhtml">
                  <table>
                     <caption>Observatie/bepaling. Subject: E. XXX_Zegers. Id: 21118.0.97 (urn:oid:2.16.840.1.113883.2.4.6.6.90000258.4.7), Status: definitief<span style="display: block;">Uitvoerende: Responsible Party</span>
                     </caption>
                     <tbody>
                        <tr>
                           <th>Bepalingdatum/tijd</th>
                           <td>2019-01-30</td>
                        </tr>
                        <tr>
                           <th>Code</th>
                           <th>Waarde</th>
                        </tr>
                        <tr>
                           <td>
                              <span title="specificatie longaandoeningen in familie (2025 - nhg-tabel-45-diagnostische-bepalingen)">specificatie longaandoeningen in familie</span>
                           </td>
                           <td>
                              <span title="astma (97 - nhg-tabel-45-diagnostische-bepalingen#resultaten)">astma</span>
                           </td>
                        </tr>
                     </tbody>
                  </table>
               </div>
            </text>
            <identifier>
               <system value="urn:oid:2.16.840.1.113883.2.4.6.6.90000258.4.7"/>
               <value value="21118.0.97"/>
            </identifier>
            <status value="final"/>
            <code>
               <coding>
                  <system value="https://referentiemodel.nhg.org/tabellen/nhg-tabel-45-diagnostische-bepalingen"/>
                  <version value="v29"/>
                  <code value="2025"/>
                  <display value="specificatie longaandoeningen in familie"/>
               </coding>
            </code>
            <subject>
               <reference value="urn:uuid:e8174e34-b72d-11ea-1484-020000000000"/>
               <display value="E. XXX_Zegers"/>
            </subject>
            <effectiveDateTime value="2019-01-30"/>
            <performer>
               <extension url="http://nictiz.nl/fhir/StructureDefinition/practitionerrole-reference">
                  <valueReference>
                     <reference value="urn:uuid:e8174e63-b72d-11ea-1484-020000000000"/>
                     <display value="Responsible Party"/>
                  </valueReference>
               </extension>
               <reference value="urn:oid:2.16.528.1.1007.3.1.900014718"/>
               <display value="Responsible Party"/>
            </performer>
            <valueCodeableConcept>
               <coding>
                  <system value="https://referentiemodel.nhg.org/tabellen/nhg-tabel-45-diagnostische-bepalingen#resultaten"/>
                  <code value="97"/>
                  <display value="astma"/>
               </coding>
            </valueCodeableConcept>
         </Observation>
      </resource>
      <search>
         <mode value="match"/>
      </search>
   </entry>
   <entry>
      <fullUrl value="urn:oid:2.16.840.1.113883.2.4.6.6.90000258.4.7.21122"/>
      <resource>
         <Observation>
            <meta>
               <profile value="http://nictiz.nl/fhir/StructureDefinition/gp-DiagnosticResult"/>
            </meta>
            <text>
               <status value="generated"/>
               <div xmlns="http://www.w3.org/1999/xhtml">
                  <table>
                     <caption>Observatie/bepaling. Subject: E. XXX_Zegers. Id: 21122 (urn:oid:2.16.840.1.113883.2.4.6.6.90000258.4.7), Status: definitief<span style="display: block;">Uitvoerende: Responsible Party</span>
                     </caption>
                     <tbody>
                        <tr>
                           <th>Bepalingdatum/tijd</th>
                           <td colspan="3">2019-02-03</td>
                        </tr>
                        <tr>
                           <th>Code</th>
                           <th>Waarde</th>
                           <th>Interpretatie</th>
                           <th>Referentiewaarden</th>
                        </tr>
                        <tr>
                           <td>
                              <span title="Quetelet-index (BMI) patiënt (1272 - nhg-tabel-45-diagnostische-bepalingen)">Quetelet-index (BMI) patiënt</span>
                           </td>
                           <td>27 kg/m2</td>
                           <td>
                              <span title="Normal (N - v3/ObservationInterpretation)">Normal</span>
                           </td>
                           <td>
                              <div>normal (referencerange-meaning)  - 27 kg/m2</div>
                           </td>
                        </tr>
                     </tbody>
                  </table>
               </div>
            </text>
            <identifier>
               <system value="urn:oid:2.16.840.1.113883.2.4.6.6.90000258.4.7"/>
               <value value="21122"/>
            </identifier>
            <status value="final"/>
            <code>
               <coding>
                  <system value="https://referentiemodel.nhg.org/tabellen/nhg-tabel-45-diagnostische-bepalingen"/>
                  <version value="v29"/>
                  <code value="1272"/>
                  <display value="Quetelet-index (BMI) patiënt"/>
               </coding>
            </code>
            <subject>
               <reference value="urn:uuid:e8174e34-b72d-11ea-1484-020000000000"/>
               <display value="E. XXX_Zegers"/>
            </subject>
            <effectiveDateTime value="2019-02-03"/>
            <performer>
               <extension url="http://nictiz.nl/fhir/StructureDefinition/practitionerrole-reference">
                  <valueReference>
                     <reference value="urn:uuid:e8174e63-b72d-11ea-1484-020000000000"/>
                     <display value="Responsible Party"/>
                  </valueReference>
               </extension>
               <reference value="urn:oid:2.16.528.1.1007.3.1.900014718"/>
               <display value="Responsible Party"/>
            </performer>
            <valueQuantity>
               <value value="27"/>
               <unit value="kg/m2"/>
               <system value="http://unitsofmeasure.org"/>
               <code value="kg/m2"/>
            </valueQuantity>
            <interpretation>
               <coding>
                  <system value="http://hl7.org/fhir/v3/ObservationInterpretation"/>
                  <code value="N"/>
                  <display value="Normal"/>
               </coding>
            </interpretation>
            <referenceRange>
               <low>
                  <extension url="http://hl7.org/fhir/StructureDefinition/iso21090-nullFlavor">
                     <valueCode value="NINF"/>
                  </extension>
               </low>
               <high>
                  <value value="27"/>
                  <unit value="kg/m2"/>
                  <system value="http://unitsofmeasure.org"/>
                  <code value="kg/m2"/>
               </high>
               <type>
                  <coding>
                     <system value="http://hl7.org/fhir/referencerange-meaning"/>
                     <code value="normal"/>
                  </coding>
               </type>
            </referenceRange>
         </Observation>
      </resource>
      <search>
         <mode value="match"/>
      </search>
   </entry>
   <entry>
      <fullUrl value="urn:oid:2.16.840.1.113883.2.4.6.6.90000258.4.7.21125"/>
      <resource>
         <Observation>
            <meta>
               <profile value="http://nictiz.nl/fhir/StructureDefinition/gp-DiagnosticResult"/>
            </meta>
            <text>
               <status value="generated"/>
               <div xmlns="http://www.w3.org/1999/xhtml">
                  <table>
                     <caption>Observatie/bepaling. Subject: E. XXX_Zegers. Id: 21125 (urn:oid:2.16.840.1.113883.2.4.6.6.90000258.4.7), Status: definitief<span style="display: block;">Uitvoerende: Responsible Party</span>
                     </caption>
                     <tbody>
                        <tr>
                           <th>Bepalingdatum/tijd</th>
                           <td colspan="3">2019-02-02</td>
                        </tr>
                        <tr>
                           <th>Code</th>
                           <th>Waarde</th>
                           <th>Interpretatie</th>
                           <th>Referentiewaarden</th>
                        </tr>
                        <tr>
                           <td>
                              <span title="systolische bloeddruk (1744 - nhg-tabel-45-diagnostische-bepalingen)">systolische bloeddruk</span>
                           </td>
                           <td>160 mm[Hg]</td>
                           <td>
                              <span title="High (H - v3/ObservationInterpretation)">High</span>
                           </td>
                           <td>
                              <div>normal (referencerange-meaning)  - 140 mm[Hg]</div>
                           </td>
                        </tr>
                     </tbody>
                  </table>
               </div>
            </text>
            <identifier>
               <system value="urn:oid:2.16.840.1.113883.2.4.6.6.90000258.4.7"/>
               <value value="21125"/>
            </identifier>
            <status value="final"/>
            <code>
               <coding>
                  <system value="https://referentiemodel.nhg.org/tabellen/nhg-tabel-45-diagnostische-bepalingen"/>
                  <version value="v29"/>
                  <code value="1744"/>
                  <display value="systolische bloeddruk"/>
               </coding>
            </code>
            <subject>
               <reference value="urn:uuid:e8174e34-b72d-11ea-1484-020000000000"/>
               <display value="E. XXX_Zegers"/>
            </subject>
            <effectiveDateTime value="2019-02-02"/>
            <performer>
               <extension url="http://nictiz.nl/fhir/StructureDefinition/practitionerrole-reference">
                  <valueReference>
                     <reference value="urn:uuid:e8174e63-b72d-11ea-1484-020000000000"/>
                     <display value="Responsible Party"/>
                  </valueReference>
               </extension>
               <reference value="urn:oid:2.16.528.1.1007.3.1.900014718"/>
               <display value="Responsible Party"/>
            </performer>
            <valueQuantity>
               <value value="160"/>
               <unit value="mm[Hg]"/>
               <system value="http://unitsofmeasure.org"/>
               <code value="mm[Hg]"/>
            </valueQuantity>
            <interpretation>
               <coding>
                  <system value="http://hl7.org/fhir/v3/ObservationInterpretation"/>
                  <code value="H"/>
                  <display value="High"/>
               </coding>
            </interpretation>
            <referenceRange>
               <low>
                  <extension url="http://hl7.org/fhir/StructureDefinition/iso21090-nullFlavor">
                     <valueCode value="NINF"/>
                  </extension>
               </low>
               <high>
                  <value value="140"/>
                  <unit value="mm[Hg]"/>
                  <system value="http://unitsofmeasure.org"/>
                  <code value="mm[Hg]"/>
               </high>
               <type>
                  <coding>
                     <system value="http://hl7.org/fhir/referencerange-meaning"/>
                     <code value="normal"/>
                  </coding>
               </type>
            </referenceRange>
         </Observation>
      </resource>
      <search>
         <mode value="match"/>
      </search>
   </entry>
   <entry>
      <fullUrl value="urn:oid:2.16.840.1.113883.2.4.6.6.90000258.4.7.21126"/>
      <resource>
         <Observation>
            <meta>
               <profile value="http://nictiz.nl/fhir/StructureDefinition/gp-DiagnosticResult"/>
            </meta>
            <text>
               <status value="generated"/>
               <div xmlns="http://www.w3.org/1999/xhtml">
                  <table>
                     <caption>Observatie/bepaling. Subject: E. XXX_Zegers. Id: 21126 (urn:oid:2.16.840.1.113883.2.4.6.6.90000258.4.7), Status: definitief<span style="display: block;">Uitvoerende: Responsible Party</span>
                     </caption>
                     <tbody>
                        <tr>
                           <th>Bepalingdatum/tijd</th>
                           <td colspan="3">2019-02-02</td>
                        </tr>
                        <tr>
                           <th>Code</th>
                           <th>Waarde</th>
                           <th>Interpretatie</th>
                           <th>Referentiewaarden</th>
                        </tr>
                        <tr>
                           <td>
                              <span title="diastolische bloeddruk (1740 - nhg-tabel-45-diagnostische-bepalingen)">diastolische bloeddruk</span>
                           </td>
                           <td>80 mm[Hg]</td>
                           <td>
                              <span title="Normal (N - v3/ObservationInterpretation)">Normal</span>
                           </td>
                           <td>
                              <div>normal (referencerange-meaning)  - 89 mm[Hg]</div>
                           </td>
                        </tr>
                     </tbody>
                  </table>
               </div>
            </text>
            <identifier>
               <system value="urn:oid:2.16.840.1.113883.2.4.6.6.90000258.4.7"/>
               <value value="21126"/>
            </identifier>
            <status value="final"/>
            <code>
               <coding>
                  <system value="https://referentiemodel.nhg.org/tabellen/nhg-tabel-45-diagnostische-bepalingen"/>
                  <version value="v29"/>
                  <code value="1740"/>
                  <display value="diastolische bloeddruk"/>
               </coding>
            </code>
            <subject>
               <reference value="urn:uuid:e8174e34-b72d-11ea-1484-020000000000"/>
               <display value="E. XXX_Zegers"/>
            </subject>
            <effectiveDateTime value="2019-02-02"/>
            <performer>
               <extension url="http://nictiz.nl/fhir/StructureDefinition/practitionerrole-reference">
                  <valueReference>
                     <reference value="urn:uuid:e8174e63-b72d-11ea-1484-020000000000"/>
                     <display value="Responsible Party"/>
                  </valueReference>
               </extension>
               <reference value="urn:oid:2.16.528.1.1007.3.1.900014718"/>
               <display value="Responsible Party"/>
            </performer>
            <valueQuantity>
               <value value="80"/>
               <unit value="mm[Hg]"/>
               <system value="http://unitsofmeasure.org"/>
               <code value="mm[Hg]"/>
            </valueQuantity>
            <interpretation>
               <coding>
                  <system value="http://hl7.org/fhir/v3/ObservationInterpretation"/>
                  <code value="N"/>
                  <display value="Normal"/>
               </coding>
            </interpretation>
            <referenceRange>
               <low>
                  <extension url="http://hl7.org/fhir/StructureDefinition/iso21090-nullFlavor">
                     <valueCode value="NINF"/>
                  </extension>
               </low>
               <high>
                  <value value="89"/>
                  <unit value="mm[Hg]"/>
                  <system value="http://unitsofmeasure.org"/>
                  <code value="mm[Hg]"/>
               </high>
               <type>
                  <coding>
                     <system value="http://hl7.org/fhir/referencerange-meaning"/>
                     <code value="normal"/>
                  </coding>
               </type>
            </referenceRange>
         </Observation>
      </resource>
      <search>
         <mode value="match"/>
      </search>
   </entry>
   <entry>
      <fullUrl value="urn:oid:2.16.840.1.113883.2.4.6.6.90000258.4.7.21127"/>
      <resource>
         <Observation>
            <meta>
               <profile value="http://nictiz.nl/fhir/StructureDefinition/gp-DiagnosticResult"/>
            </meta>
            <text>
               <status value="generated"/>
               <div xmlns="http://www.w3.org/1999/xhtml">
                  <table>
                     <caption>Observatie/bepaling. Subject: E. XXX_Zegers. Id: 21127 (urn:oid:2.16.840.1.113883.2.4.6.6.90000258.4.7), Status: definitief<span style="display: block;">Uitvoerende: Responsible Party</span>
                     </caption>
                     <tbody>
                        <tr>
                           <th>Bepalingdatum/tijd</th>
                           <td colspan="3">2019-02-02</td>
                        </tr>
                        <tr>
                           <th>Code</th>
                           <th>Waarde</th>
                           <th>Interpretatie</th>
                           <th>Referentiewaarden</th>
                        </tr>
                        <tr>
                           <td>
                              <span title="polsfrequentie (1875 - nhg-tabel-45-diagnostische-bepalingen)">polsfrequentie</span>
                           </td>
                           <td>72 /min</td>
                           <td>
                              <span title="Normal (N - v3/ObservationInterpretation)">Normal</span>
                           </td>
                           <td>
                              <div>normal (referencerange-meaning) 60 /min - 100 /min</div>
                           </td>
                        </tr>
                     </tbody>
                  </table>
               </div>
            </text>
            <identifier>
               <system value="urn:oid:2.16.840.1.113883.2.4.6.6.90000258.4.7"/>
               <value value="21127"/>
            </identifier>
            <status value="final"/>
            <code>
               <coding>
                  <system value="https://referentiemodel.nhg.org/tabellen/nhg-tabel-45-diagnostische-bepalingen"/>
                  <version value="v29"/>
                  <code value="1875"/>
                  <display value="polsfrequentie"/>
               </coding>
            </code>
            <subject>
               <reference value="urn:uuid:e8174e34-b72d-11ea-1484-020000000000"/>
               <display value="E. XXX_Zegers"/>
            </subject>
            <effectiveDateTime value="2019-02-02"/>
            <performer>
               <extension url="http://nictiz.nl/fhir/StructureDefinition/practitionerrole-reference">
                  <valueReference>
                     <reference value="urn:uuid:e8174e63-b72d-11ea-1484-020000000000"/>
                     <display value="Responsible Party"/>
                  </valueReference>
               </extension>
               <reference value="urn:oid:2.16.528.1.1007.3.1.900014718"/>
               <display value="Responsible Party"/>
            </performer>
            <valueQuantity>
               <value value="72"/>
               <unit value="/min"/>
               <system value="http://unitsofmeasure.org"/>
               <code value="/min"/>
            </valueQuantity>
            <interpretation>
               <coding>
                  <system value="http://hl7.org/fhir/v3/ObservationInterpretation"/>
                  <code value="N"/>
                  <display value="Normal"/>
               </coding>
            </interpretation>
            <referenceRange>
               <low>
                  <value value="60"/>
                  <unit value="/min"/>
                  <system value="http://unitsofmeasure.org"/>
                  <code value="/min"/>
               </low>
               <high>
                  <value value="100"/>
                  <unit value="/min"/>
                  <system value="http://unitsofmeasure.org"/>
                  <code value="/min"/>
               </high>
               <type>
                  <coding>
                     <system value="http://hl7.org/fhir/referencerange-meaning"/>
                     <code value="normal"/>
                  </coding>
               </type>
            </referenceRange>
         </Observation>
      </resource>
      <search>
         <mode value="match"/>
      </search>
   </entry>
   <entry>
      <fullUrl value="urn:oid:2.16.840.1.113883.2.4.6.6.90000258.4.7.21128"/>
      <resource>
         <Observation>
            <meta>
               <profile value="http://nictiz.nl/fhir/StructureDefinition/gp-DiagnosticResult"/>
            </meta>
            <text>
               <status value="generated"/>
               <div xmlns="http://www.w3.org/1999/xhtml">
                  <table>
                     <caption>Observatie/bepaling. Subject: E. XXX_Zegers. Id: 21128 (urn:oid:2.16.840.1.113883.2.4.6.6.90000258.4.7), Status: definitief<span style="display: block;">Uitvoerende: Responsible Party</span>
                     </caption>
                     <tbody>
                        <tr>
                           <th>Bepalingdatum/tijd</th>
                           <td>2019-02-02</td>
                        </tr>
                        <tr>
                           <th>Code</th>
                           <th>Waarde</th>
                        </tr>
                        <tr>
                           <td>
                              <span title="ernst/stadium COPD (GOLD classificatie) (2209 - nhg-tabel-45-diagnostische-bepalingen)">ernst/stadium COPD (GOLD classificatie)</span>
                           </td>
                           <td>
                              <span title="1: mild COPD (255 - nhg-tabel-45-diagnostische-bepalingen#resultaten)">1: mild COPD</span>
                           </td>
                        </tr>
                     </tbody>
                  </table>
               </div>
            </text>
            <identifier>
               <system value="urn:oid:2.16.840.1.113883.2.4.6.6.90000258.4.7"/>
               <value value="21128"/>
            </identifier>
            <status value="final"/>
            <code>
               <coding>
                  <system value="https://referentiemodel.nhg.org/tabellen/nhg-tabel-45-diagnostische-bepalingen"/>
                  <version value="v29"/>
                  <code value="2209"/>
                  <display value="ernst/stadium COPD (GOLD classificatie)"/>
               </coding>
            </code>
            <subject>
               <reference value="urn:uuid:e8174e34-b72d-11ea-1484-020000000000"/>
               <display value="E. XXX_Zegers"/>
            </subject>
            <effectiveDateTime value="2019-02-02"/>
            <performer>
               <extension url="http://nictiz.nl/fhir/StructureDefinition/practitionerrole-reference">
                  <valueReference>
                     <reference value="urn:uuid:e8174e63-b72d-11ea-1484-020000000000"/>
                     <display value="Responsible Party"/>
                  </valueReference>
               </extension>
               <reference value="urn:oid:2.16.528.1.1007.3.1.900014718"/>
               <display value="Responsible Party"/>
            </performer>
            <valueCodeableConcept>
               <coding>
                  <system value="https://referentiemodel.nhg.org/tabellen/nhg-tabel-45-diagnostische-bepalingen#resultaten"/>
                  <code value="255"/>
                  <display value="1: mild COPD"/>
               </coding>
            </valueCodeableConcept>
         </Observation>
      </resource>
      <search>
         <mode value="match"/>
      </search>
   </entry>
   <entry>
      <fullUrl value="urn:oid:2.16.840.1.113883.2.4.6.6.90000258.4.7.21129"/>
      <resource>
         <Observation>
            <meta>
               <profile value="http://nictiz.nl/fhir/StructureDefinition/gp-DiagnosticResult"/>
            </meta>
            <text>
               <status value="generated"/>
               <div xmlns="http://www.w3.org/1999/xhtml">
                  <table>
                     <caption>Observatie/bepaling. Subject: E. XXX_Zegers. Id: 21129 (urn:oid:2.16.840.1.113883.2.4.6.6.90000258.4.7), Status: definitief<span style="display: block;">Uitvoerende: Responsible Party</span>
                     </caption>
                     <tbody>
                        <tr>
                           <th>Bepalingdatum/tijd</th>
                           <td>2019-02-02</td>
                        </tr>
                        <tr>
                           <th>Code</th>
                           <th>Waarde</th>
                        </tr>
                        <tr>
                           <td>
                              <span title="temperatuur patiënt (in oor gemeten) (1913 - nhg-tabel-45-diagnostische-bepalingen)">temperatuur patiënt (in oor gemeten)</span>
                           </td>
                           <td>37.5 Cel</td>
                        </tr>
                     </tbody>
                  </table>
               </div>
            </text>
            <identifier>
               <system value="urn:oid:2.16.840.1.113883.2.4.6.6.90000258.4.7"/>
               <value value="21129"/>
            </identifier>
            <status value="final"/>
            <code>
               <coding>
                  <system value="https://referentiemodel.nhg.org/tabellen/nhg-tabel-45-diagnostische-bepalingen"/>
                  <version value="v29"/>
                  <code value="1913"/>
                  <display value="temperatuur patiënt (in oor gemeten)"/>
               </coding>
            </code>
            <subject>
               <reference value="urn:uuid:e8174e34-b72d-11ea-1484-020000000000"/>
               <display value="E. XXX_Zegers"/>
            </subject>
            <effectiveDateTime value="2019-02-02"/>
            <performer>
               <extension url="http://nictiz.nl/fhir/StructureDefinition/practitionerrole-reference">
                  <valueReference>
                     <reference value="urn:uuid:e8174e63-b72d-11ea-1484-020000000000"/>
                     <display value="Responsible Party"/>
                  </valueReference>
               </extension>
               <reference value="urn:oid:2.16.528.1.1007.3.1.900014718"/>
               <display value="Responsible Party"/>
            </performer>
            <valueQuantity>
               <value value="37.5"/>
               <unit value="Cel"/>
               <system value="http://unitsofmeasure.org"/>
               <code value="Cel"/>
            </valueQuantity>
         </Observation>
      </resource>
      <search>
         <mode value="match"/>
      </search>
   </entry>
   <entry>
      <fullUrl value="urn:oid:2.16.840.1.113883.2.4.6.6.90000258.4.7.21130"/>
      <resource>
         <Observation>
            <meta>
               <profile value="http://nictiz.nl/fhir/StructureDefinition/gp-DiagnosticResult"/>
            </meta>
            <text>
               <status value="generated"/>
               <div xmlns="http://www.w3.org/1999/xhtml">
                  <table>
                     <caption>Observatie/bepaling. Subject: E. XXX_Zegers. Id: 21130 (urn:oid:2.16.840.1.113883.2.4.6.6.90000258.4.7), Status: definitief<span style="display: block;">Uitvoerende: Responsible Party</span>
                     </caption>
                     <tbody>
                        <tr>
                           <th>Bepalingdatum/tijd</th>
                           <td>2019-02-02</td>
                        </tr>
                        <tr>
                           <th>Code</th>
                           <th>Waarde</th>
                        </tr>
                        <tr>
                           <td>
                              <span title="kortademigheid (anamnese) (1659 - nhg-tabel-45-diagnostische-bepalingen)">kortademigheid (anamnese)</span>
                           </td>
                           <td>
                              <span title="ja (1 - nhg-tabel-45-diagnostische-bepalingen#resultaten)">ja</span>
                           </td>
                        </tr>
                     </tbody>
                  </table>
               </div>
            </text>
            <identifier>
               <system value="urn:oid:2.16.840.1.113883.2.4.6.6.90000258.4.7"/>
               <value value="21130"/>
            </identifier>
            <status value="final"/>
            <code>
               <coding>
                  <system value="https://referentiemodel.nhg.org/tabellen/nhg-tabel-45-diagnostische-bepalingen"/>
                  <version value="v29"/>
                  <code value="1659"/>
                  <display value="kortademigheid (anamnese)"/>
               </coding>
            </code>
            <subject>
               <reference value="urn:uuid:e8174e34-b72d-11ea-1484-020000000000"/>
               <display value="E. XXX_Zegers"/>
            </subject>
            <effectiveDateTime value="2019-02-02"/>
            <performer>
               <extension url="http://nictiz.nl/fhir/StructureDefinition/practitionerrole-reference">
                  <valueReference>
                     <reference value="urn:uuid:e8174e63-b72d-11ea-1484-020000000000"/>
                     <display value="Responsible Party"/>
                  </valueReference>
               </extension>
               <reference value="urn:oid:2.16.528.1.1007.3.1.900014718"/>
               <display value="Responsible Party"/>
            </performer>
            <valueCodeableConcept>
               <coding>
                  <system value="https://referentiemodel.nhg.org/tabellen/nhg-tabel-45-diagnostische-bepalingen#resultaten"/>
                  <code value="1"/>
                  <display value="ja"/>
               </coding>
            </valueCodeableConcept>
         </Observation>
      </resource>
      <search>
         <mode value="match"/>
      </search>
   </entry>
   <entry>
      <fullUrl value="urn:oid:2.16.840.1.113883.2.4.6.6.90000258.4.7.21131"/>
      <resource>
         <Observation>
            <meta>
               <profile value="http://nictiz.nl/fhir/StructureDefinition/gp-DiagnosticResult"/>
            </meta>
            <text>
               <status value="generated"/>
               <div xmlns="http://www.w3.org/1999/xhtml">
                  <table>
                     <caption>Observatie/bepaling. Subject: E. XXX_Zegers. Id: 21131 (urn:oid:2.16.840.1.113883.2.4.6.6.90000258.4.7), Status: definitief<span style="display: block;">Uitvoerende: Responsible Party</span>
                     </caption>
                     <tbody>
                        <tr>
                           <th>Bepalingdatum/tijd</th>
                           <td>2019-02-02</td>
                        </tr>
                        <tr>
                           <th>Code</th>
                           <th>Waarde</th>
                        </tr>
                        <tr>
                           <td>
                              <span title="hartkloppingen (anamnese) (3258 - nhg-tabel-45-diagnostische-bepalingen)">hartkloppingen (anamnese)</span>
                           </td>
                           <td>
                              <span title="onduidelijk (8 - nhg-tabel-45-diagnostische-bepalingen#resultaten)">onduidelijk</span>
                           </td>
                        </tr>
                     </tbody>
                  </table>
               </div>
            </text>
            <identifier>
               <system value="urn:oid:2.16.840.1.113883.2.4.6.6.90000258.4.7"/>
               <value value="21131"/>
            </identifier>
            <status value="final"/>
            <code>
               <coding>
                  <system value="https://referentiemodel.nhg.org/tabellen/nhg-tabel-45-diagnostische-bepalingen"/>
                  <version value="v29"/>
                  <code value="3258"/>
                  <display value="hartkloppingen (anamnese)"/>
               </coding>
            </code>
            <subject>
               <reference value="urn:uuid:e8174e34-b72d-11ea-1484-020000000000"/>
               <display value="E. XXX_Zegers"/>
            </subject>
            <effectiveDateTime value="2019-02-02"/>
            <performer>
               <extension url="http://nictiz.nl/fhir/StructureDefinition/practitionerrole-reference">
                  <valueReference>
                     <reference value="urn:uuid:e8174e63-b72d-11ea-1484-020000000000"/>
                     <display value="Responsible Party"/>
                  </valueReference>
               </extension>
               <reference value="urn:oid:2.16.528.1.1007.3.1.900014718"/>
               <display value="Responsible Party"/>
            </performer>
            <valueCodeableConcept>
               <coding>
                  <system value="https://referentiemodel.nhg.org/tabellen/nhg-tabel-45-diagnostische-bepalingen#resultaten"/>
                  <code value="8"/>
                  <display value="onduidelijk"/>
               </coding>
            </valueCodeableConcept>
         </Observation>
      </resource>
      <search>
         <mode value="match"/>
      </search>
   </entry>
   <entry>
      <fullUrl value="urn:uuid:e8174e34-b72d-11ea-1484-020000000000"/>
      <resource>
         <Patient>
            <meta>
               <profile value="http://fhir.nl/fhir/StructureDefinition/nl-core-patient"/>
            </meta>
            <text>
               <status value="generated"/>
               <div xmlns="http://www.w3.org/1999/xhtml">
                  <div>Id <i>afgeschermd (ontbrekend gegeven)</i> (BSN), E. XXX_Zegers, Vrouw, 2 augustus 1964</div>
                  <div>Knolweg 1001, 9999XX STITSWERD, Nederland (Privé Bezoek)</div>
               </div>
            </text>
            <identifier>
               <system value="http://fhir.nl/fhir/NamingSystem/bsn"/>
               <value>
                  <extension url="http://hl7.org/fhir/StructureDefinition/data-absent-reason">
                     <valueCode value="masked"/>
                  </extension>
               </value>
            </identifier>
            <name>
               <extension url="http://hl7.org/fhir/StructureDefinition/humanname-assembly-order">
                  <valueCode value="NL1"/>
               </extension>
               <family value="XXX_Zegers">
                  <extension url="http://hl7.org/fhir/StructureDefinition/humanname-own-name">
                     <valueString value="XXX_Zegers"/>
                  </extension>
               </family>
               <given value="E.">
                  <extension url="http://hl7.org/fhir/StructureDefinition/iso21090-EN-qualifier">
                     <valueCode value="IN"/>
                  </extension>
               </given>
            </name>
            <gender value="female"/>
            <birthDate value="1964-08-02"/>
            <address>
               <extension url="http://fhir.nl/fhir/StructureDefinition/nl-core-address-official">
                  <valueCode value="true"/>
               </extension>
               <extension url="http://hl7.org/fhir/StructureDefinition/iso21090-AD-use">
                  <valueCode value="HP"/>
               </extension>
               <use value="home"/>
               <type value="physical"/>
               <line value="Knolweg 1001">
                  <extension url="http://hl7.org/fhir/StructureDefinition/iso21090-ADXP-streetName">
                     <valueString value="Knolweg"/>
                  </extension>
                  <extension url="http://hl7.org/fhir/StructureDefinition/iso21090-ADXP-houseNumber">
                     <valueString value="1001"/>
                  </extension>
               </line>
               <city value="STITSWERD"/>
               <postalCode value="9999XX"/>
               <country value="Nederland"/>
            </address>
         </Patient>
      </resource>
      <search>
         <mode value="include"/>
      </search>
   </entry>
   <entry>
      <fullUrl value="urn:oid:2.16.528.1.1007.3.1.900014718"/>
      <resource>
         <Practitioner>
            <meta>
               <profile value="http://fhir.nl/fhir/StructureDefinition/nl-core-practitioner"/>
            </meta>
            <text>
               <status value="generated"/>
               <div xmlns="http://www.w3.org/1999/xhtml">
                  <div>Id 900014718 (UZI-NR-PERS)</div>
               </div>
            </text>
            <identifier>
               <system value="http://fhir.nl/fhir/NamingSystem/uzi-nr-pers"/>
               <value value="900014718"/>
            </identifier>
         </Practitioner>
      </resource>
      <search>
         <mode value="include"/>
      </search>
   </entry>
   <entry>
      <fullUrl value="urn:oid:2.16.528.1.1007.3.3.90000381"/>
      <resource>
         <Organization>
            <meta>
               <profile value="http://fhir.nl/fhir/StructureDefinition/nl-core-organization"/>
            </meta>
            <text>
               <status value="generated"/>
               <div xmlns="http://www.w3.org/1999/xhtml">
                  <table>
                     <caption>OrganisatieId: 90000381 (URA)</caption>
                     <tbody>
                        <tr>
                           <th>Naam</th>
                           <td>Tést Zorginstelling 04</td>
                        </tr>
                     </tbody>
                  </table>
               </div>
            </text>
            <identifier>
               <system value="http://fhir.nl/fhir/NamingSystem/ura"/>
               <value value="90000381"/>
            </identifier>
            <name value="Tést Zorginstelling 04"/>
         </Organization>
      </resource>
      <search>
         <mode value="include"/>
      </search>
   </entry>
   <entry>
      <fullUrl value="urn:uuid:e8174e63-b72d-11ea-1484-020000000000"/>
      <resource>
         <PractitionerRole>
            <meta>
               <profile value="http://fhir.nl/fhir/StructureDefinition/nl-core-practitionerrole"/>
            </meta>
            <text>
               <status value="generated"/>
               <div xmlns="http://www.w3.org/1999/xhtml">
                  <table>
                     <caption>Zorgverlenerrol</caption>
                     <tbody>
                        <tr>
                           <th>Zorgverlener</th>
                           <td>
                              <div>Responsible Party</div>
                           </td>
                        </tr>
                     </tbody>
                  </table>
               </div>
            </text>
            <practitioner>
               <reference value="urn:oid:2.16.528.1.1007.3.1.900014718"/>
               <display value="Responsible Party"/>
            </practitioner>
         </PractitionerRole>
      </resource>
      <search>
         <mode value="include"/>
      </search>
   </entry>
</Bundle>