<?xml-model href="http://hl7.org/fhir/STU3/bundle.sch" type="application/xml" schematypens="http://purl.oclc.org/dsdl/schematron"?><Bundle xmlns="http://hl7.org/fhir"
        xmlns:xsi="http://www.w3.org/2001/XMLSchema-instance"
        xsi:schemaLocation="http://hl7.org/fhir http://hl7.org/fhir/STU3/fhir-all.xsd">
   <type value="searchset"/>
   <total value="2"/>
   <entry>
      <fullUrl value="urn:oid:2.16.840.1.113883.2.4.6.6.90000258.4.10.996625"/>
      <resource>
         <Encounter>
            <meta>
               <profile value="http://nictiz.nl/fhir/StructureDefinition/gp-Encounter"/>
            </meta>
            <text>
               <status value="generated"/>
               <div xmlns="http://www.w3.org/1999/xhtml">
                  <table>
                     <caption>Contact. Subject: E. XXX_ZegersId: 996625 (urn:oid:2.16.840.1.113883.2.4.6.6.90000258.4.10), Status: voltooid</caption>
                     <tbody>
                        <tr>
                           <th>Type contact</th>
                           <td>
                              <span title="consult (03 - nhg-tabel-14-contactwijze)">consult</span>
                           </td>
                        </tr>
                        <tr>
                           <th>Periode</th>
                           <td>[Language: en]03 February 2019</td>
                        </tr>
                        <tr>
                           <th>Participant</th>
                           <td>
                              <div>
                                 <span title="Performer (PRF - v3/ParticipationType)">Performer</span> - XIS test || Huisarts || Tést Zorginstelling 02</div>
                           </td>
                        </tr>
                     </tbody>
                  </table>
               </div>
            </text>
            <identifier>
               <system value="urn:oid:2.16.840.1.113883.2.4.6.6.90000258.4.10"/>
               <value value="996625"/>
            </identifier>
            <status value="finished"/>
            <class>
               <system value="http://hl7.org/fhir/v3/ActCode"/>
               <code value="AMB"/>
               <display value="Ambulatory"/>
            </class>
            <type>
               <coding>
                  <system value="https://referentiemodel.nhg.org/tabellen/nhg-tabel-14-contactwijze"/>
                  <code value="03"/>
                  <display value="consult"/>
               </coding>
            </type>
            <subject>
               <reference value="urn:uuid:c9e5c422-676a-11ea-1069-020000000000"/>
               <display value="E. XXX_Zegers"/>
            </subject>
            <participant>
               <type>
                  <coding>
                     <system value="http://hl7.org/fhir/v3/ParticipationType"/>
                     <code value="PRF"/>
                     <display value="Performer"/>
                  </coding>
               </type>
               <individual>
                  <extension url="http://nictiz.nl/fhir/StructureDefinition/practitionerrole-reference">
                     <valueReference>
                        <reference value="urn:uuid:c9e5c436-676a-11ea-1069-020000000000"/>
                        <display value="XIS test || Huisarts || Tést Zorginstelling 02"/>
                     </valueReference>
                  </extension>
                  <reference value="urn:oid:2.16.528.1.1007.3.1.900014718"/>
                  <display value="XIS test"/>
               </individual>
            </participant>
            <period>
               <start value="2019-02-03"/>
               <end value="2019-02-03"/>
            </period>
            <serviceProvider>
               <reference value="urn:uuid:c9e5c43e-676a-11ea-1069-020000000000"/>
               <display value="Tést Zorginstelling 02"/>
            </serviceProvider>
         </Encounter>
      </resource>
      <search>
         <mode value="match"/>
      </search>
   </entry>
   <entry>
      <fullUrl value="urn:oid:2.16.840.1.113883.2.4.6.6.90000258.4.10.996626"/>
      <resource>
         <Encounter>
            <meta>
               <profile value="http://nictiz.nl/fhir/StructureDefinition/gp-Encounter"/>
            </meta>
            <text>
               <status value="generated"/>
               <div xmlns="http://www.w3.org/1999/xhtml">
                  <table>
                     <caption>Contact. Subject: E. XXX_ZegersId: 996626 (urn:oid:2.16.840.1.113883.2.4.6.6.90000258.4.10), Status: voltooid</caption>
                     <tbody>
                        <tr>
                           <th>Type contact</th>
                           <td>
                              <span title="consult (03 - nhg-tabel-14-contactwijze)">consult</span>
                           </td>
                        </tr>
                        <tr>
                           <th>Periode</th>
                           <td>[Language: en]06 February 2019</td>
                        </tr>
                        <tr>
                           <th>Participant</th>
                           <td>
                              <div>
                                 <span title="Performer (PRF - v3/ParticipationType)">Performer</span> - XIS test || Huisarts || Tést Zorginstelling 02</div>
                           </td>
                        </tr>
                     </tbody>
                  </table>
               </div>
            </text>
            <identifier>
               <system value="urn:oid:2.16.840.1.113883.2.4.6.6.90000258.4.10"/>
               <value value="996626"/>
            </identifier>
            <status value="finished"/>
            <class>
               <system value="http://hl7.org/fhir/v3/ActCode"/>
               <code value="AMB"/>
               <display value="Ambulatory"/>
            </class>
            <type>
               <coding>
                  <system value="https://referentiemodel.nhg.org/tabellen/nhg-tabel-14-contactwijze"/>
                  <code value="03"/>
                  <display value="consult"/>
               </coding>
            </type>
            <subject>
               <reference value="urn:uuid:c9e5c422-676a-11ea-1069-020000000000"/>
               <display value="E. XXX_Zegers"/>
            </subject>
            <participant>
               <type>
                  <coding>
                     <system value="http://hl7.org/fhir/v3/ParticipationType"/>
                     <code value="PRF"/>
                     <display value="Performer"/>
                  </coding>
               </type>
               <individual>
                  <extension url="http://nictiz.nl/fhir/StructureDefinition/practitionerrole-reference">
                     <valueReference>
                        <reference value="urn:uuid:c9e5c436-676a-11ea-1069-020000000000"/>
                        <display value="XIS test || Huisarts || Tést Zorginstelling 02"/>
                     </valueReference>
                  </extension>
                  <reference value="urn:oid:2.16.528.1.1007.3.1.900014718"/>
                  <display value="XIS test"/>
               </individual>
            </participant>
            <period>
               <start value="2019-02-06"/>
               <end value="2019-02-06"/>
            </period>
            <serviceProvider>
               <reference value="urn:uuid:c9e5c43e-676a-11ea-1069-020000000000"/>
               <display value="Tést Zorginstelling 02"/>
            </serviceProvider>
         </Encounter>
      </resource>
      <search>
         <mode value="match"/>
      </search>
   </entry>
   <entry>
      <fullUrl value="urn:uuid:c9e5c422-676a-11ea-1069-020000000000"/>
      <resource>
         <Patient>
            <meta>
               <profile value="http://fhir.nl/fhir/StructureDefinition/nl-core-patient"/>
            </meta>
            <text>
               <status value="generated"/>
               <div xmlns="http://www.w3.org/1999/xhtml">
                  <div>Id <i>afgeschermd (ontbrekend gegeven)</i> (BSN), E. XXX_Zegers, Vrouw, 1964-08-02</div>
                  <div>Knolweg 1001, 9999 XX STITSWERD, Nederland (Privé (hoofd) Bezoek)</div>
               </div>
            </text>
            <identifier>
               <system value="http://fhir.nl/fhir/NamingSystem/bsn"/>
               <value>
                  <extension url="http://hl7.org/fhir/StructureDefinition/data-absent-reason">
                     <valueCode value="masked"/>
                  </extension>
               </value>
            </identifier>
            <name>
               <extension url="http://hl7.org/fhir/StructureDefinition/humanname-assembly-order">
                  <valueCode value="NL1"/>
               </extension>
               <family value="XXX_Zegers">
                  <extension url="http://hl7.org/fhir/StructureDefinition/humanname-own-name">
                     <valueString value="XXX_Zegers"/>
                  </extension>
               </family>
               <given value="E.">
                  <extension url="http://hl7.org/fhir/StructureDefinition/iso21090-EN-qualifier">
                     <valueCode value="IN"/>
                  </extension>
               </given>
            </name>
            <gender value="female"/>
            <birthDate value="1964-08-02"/>
            <address>
               <extension url="http://fhir.nl/fhir/StructureDefinition/nl-core-address-official">
                  <valueCode value="true"/>
               </extension>
               <use value="home">
                  <extension url="http://hl7.org/fhir/StructureDefinition/iso21090-AD-use">
                     <valueCode value="HP"/>
                  </extension>
               </use>
               <type value="physical"/>
               <line value="Knolweg 1001">
                  <extension url="http://hl7.org/fhir/StructureDefinition/iso21090-ADXP-streetName">
                     <valueString value="Knolweg"/>
                  </extension>
                  <extension url="http://hl7.org/fhir/StructureDefinition/iso21090-ADXP-houseNumber">
                     <valueString value="1001"/>
                  </extension>
               </line>
               <city value="STITSWERD"/>
               <postalCode value="9999 XX"/>
               <country value="Nederland"/>
            </address>
         </Patient>
      </resource>
      <search>
         <mode value="include"/>
      </search>
   </entry>
   <entry>
      <fullUrl value="urn:oid:2.16.528.1.1007.3.1.900014718"/>
      <resource>
         <Practitioner>
            <meta>
               <profile value="http://fhir.nl/fhir/StructureDefinition/nl-core-practitioner"/>
            </meta>
            <text>
               <status value="generated"/>
               <div xmlns="http://www.w3.org/1999/xhtml">
                  <div>Id 900014718 (UZI-NR-PERS), XIS test</div>
               </div>
            </text>
            <identifier>
               <system value="http://fhir.nl/fhir/NamingSystem/uzi-nr-pers"/>
               <value value="900014718"/>
            </identifier>
            <name>
               <extension url="http://hl7.org/fhir/StructureDefinition/humanname-assembly-order">
                  <valueCode value="UNK"/>
               </extension>
               <family value="XIS test">
                  <extension url="http://hl7.org/fhir/StructureDefinition/humanname-own-name">
                     <valueString value="XIS test"/>
                  </extension>
               </family>
            </name>
         </Practitioner>
      </resource>
      <search>
         <mode value="include"/>
      </search>
   </entry>
   <entry>
      <fullUrl value="urn:oid:2.16.528.1.1007.3.3.90000381"/>
      <resource>
         <Organization>
            <meta>
               <profile value="http://fhir.nl/fhir/StructureDefinition/nl-core-organization"/>
            </meta>
            <text>
               <status value="generated"/>
               <div xmlns="http://www.w3.org/1999/xhtml">
                  <table>
                     <caption>OrganisatieId: 90000381 (URA)</caption>
                     <tbody>
                        <tr>
                           <th>Naam</th>
                           <td>Tést Zorginstelling 04</td>
                        </tr>
                     </tbody>
                  </table>
               </div>
            </text>
            <identifier>
               <system value="http://fhir.nl/fhir/NamingSystem/ura"/>
               <value value="90000381"/>
            </identifier>
            <name value="Tést Zorginstelling 04"/>
         </Organization>
      </resource>
      <search>
         <mode value="include"/>
      </search>
   </entry>
   <entry>
      <fullUrl value="urn:uuid:c9e5c43e-676a-11ea-1069-020000000000"/>
      <resource>
         <Organization>
            <meta>
               <profile value="http://fhir.nl/fhir/StructureDefinition/nl-core-organization"/>
            </meta>
            <text>
               <status value="generated"/>
               <div xmlns="http://www.w3.org/1999/xhtml">
                  <table>
                     <caption>OrganisatieId: 90000381 (URA)</caption>
                     <tbody>
                        <tr>
                           <th>Naam</th>
                           <td>Tést Zorginstelling 02</td>
                        </tr>
                     </tbody>
                  </table>
               </div>
            </text>
            <identifier>
               <system value="http://fhir.nl/fhir/NamingSystem/ura"/>
               <value value="90000381"/>
            </identifier>
            <name value="Tést Zorginstelling 02"/>
         </Organization>
      </resource>
      <search>
         <mode value="include"/>
      </search>
   </entry>
   <entry>
      <fullUrl value="urn:uuid:c9e5c436-676a-11ea-1069-020000000000"/>
      <resource>
         <PractitionerRole>
            <meta>
               <profile value="http://fhir.nl/fhir/StructureDefinition/nl-core-practitionerrole"/>
            </meta>
            <text>
               <status value="generated"/>
               <div xmlns="http://www.w3.org/1999/xhtml">
                  <table>
                     <caption>Zorgverlenerrol</caption>
                     <tbody>
                        <tr>
                           <th>Zorgverlener</th>
                           <td>
                              <div>XIS test</div>
                              <div>Tést Zorginstelling 02</div>
                           </td>
                        </tr>
                        <tr>
                           <th>Specialisme</th>
                           <td>
                              <span title="Huisarts (01.015 - http://fhir.nl/fhir/NamingSystem/uzi-rolcode)">Huisarts</span>
                           </td>
                        </tr>
                     </tbody>
                  </table>
               </div>
            </text>
            <practitioner>
               <reference value="urn:oid:2.16.528.1.1007.3.1.900014718"/>
               <display value="XIS test"/>
            </practitioner>
            <organization>
               <reference value="urn:uuid:c9e5c43e-676a-11ea-1069-020000000000"/>
               <display value="Tést Zorginstelling 02"/>
            </organization>
            <specialty>
               <coding>
                  <system value="http://fhir.nl/fhir/NamingSystem/uzi-rolcode"/>
                  <code value="01.015"/>
                  <display value="Huisarts"/>
               </coding>
            </specialty>
         </PractitionerRole>
      </resource>
      <search>
         <mode value="include"/>
      </search>
   </entry>
</Bundle>