<?xml-model href="http://hl7.org/fhir/STU3/bundle.sch" type="application/xml" schematypens="http://purl.oclc.org/dsdl/schematron"?><Bundle xmlns="http://hl7.org/fhir"
        xmlns:xsi="http://www.w3.org/2001/XMLSchema-instance"
        xsi:schemaLocation="http://hl7.org/fhir http://hl7.org/fhir/STU3/fhir-all.xsd">
   <type value="searchset"/>
   <total value="18"/>
   <entry>
      <fullUrl value="urn:uuid:df5eb8a8-c02f-11ea-1271-020000000000"/>
      <resource>
         <Composition>
            <meta>
               <profile value="http://nictiz.nl/fhir/StructureDefinition/gp-EncounterReport"/>
            </meta>
            <text>
               <status value="generated"/>
               <div xmlns="http://www.w3.org/1999/xhtml">
                  <b>Keelpijn</b>
                  <table>
                     <caption>Samengestelde informatie. Subject: J. XXX_Cevat. Status: definitief<span style="display: block;">Auteur: Huisarts 1</span>
                     </caption>
                     <tbody>
                        <tr>
                           <th>Type</th>
                           <td>
                              <span title="Summarization of encounter note Narrative (67781-5 - LOINC)">Summarization of encounter note Narrative</span>
                           </td>
                        </tr>
                        <tr>
                           <th>Gemaakt</th>
                           <td>14:15:02, 16 juni 2020</td>
                        </tr>
                        <tr>
                           <th>Contact</th>
                           <td>Contactmoment: MedMijHG_contactmoment13 consult 2020-06-16T14:15:01+02:00</td>
                        </tr>
                     </tbody>
                  </table>
               </div>
            </text>
            <status value="final"/>
            <type>
               <coding>
                  <system value="http://loinc.org"/>
                  <code value="67781-5"/>
                  <display value="Summarization of encounter note Narrative"/>
               </coding>
            </type>
            <subject>
               <reference value="urn:uuid:df5eb880-c02f-11ea-1271-020000000000"/>
               <display value="J. XXX_Cevat"/>
            </subject>
            <encounter>
               <reference value="urn:uuid:df5eadb1-c02f-11ea-1271-020000000000"/>
               <display value="Contactmoment: MedMijHG_contactmoment13 consult 2020-06-16T14:15:01+02:00"/>
            </encounter>
            <date value="2020-06-16T14:15:02+02:00"/>
            <author>
                  <reference value="urn:oid:2.16.528.1.1007.3.1.900016431"/>
               <display value="Huisarts 1"/>
               </author>
            <title value="Keelpijn"/>
            <section>
               <extension url="http://nictiz.nl/fhir/StructureDefinition/code-icpc-1-nl">
                  <valueCodeableConcept>
                     <coding>
                        <system value="http://hl7.org/fhir/sid/icpc-1-nl"/>
                        <code value="R21.01"/>
                        <display value="Keelpijn"/>
                     </coding>
                  </valueCodeableConcept>
               </extension>
               <code>
                  <coding>
                     <system value="http://fhir.nl/fhir/NamingSystem/journaalregeltypen"/>
                     <code value="E"/>
                     <display value="Evaluatie"/>
                  </coding>
               </code>
               <text>
                  <status value="additional"/>
                  <div xmlns="http://www.w3.org/1999/xhtml">Keelpijn eci.</div>
               </text>
               <entry>
                  <reference value="urn:uuid:df5eacb2-c02f-11ea-1271-020000000000"/>
                  <display value="E: Evaluatie - Keelpijn eci."/>
               </entry>
            </section>
         </Composition>
      </resource>
      <search>
         <mode value="match"/>
      </search>
   </entry>
   <entry>
      <fullUrl value="urn:uuid:df5eacd1-c02f-11ea-1271-020000000000"/>
      <resource>
         <Composition>
            <meta>
               <profile value="http://nictiz.nl/fhir/StructureDefinition/gp-EncounterReport"/>
            </meta>
            <text>
               <status value="generated"/>
               <div xmlns="http://www.w3.org/1999/xhtml">
                  <b>HNP (thoracaal/lumbaal)</b>
                  <table>
                     <caption>Samengestelde informatie. Subject: J. XXX_Cevat. Status: definitief<span style="display: block;">Auteur: Huisarts 1</span>
                     </caption>
                     <tbody>
                        <tr>
                           <th>Type</th>
                           <td>
                              <span title="Summarization of encounter note Narrative (67781-5 - LOINC)">Summarization of encounter note Narrative</span>
                           </td>
                        </tr>
                        <tr>
                           <th>Gemaakt</th>
                           <td>14:15:02, 11 juni 2020</td>
                        </tr>
                        <tr>
                           <th>Contact</th>
                           <td>Contactmoment: MedMijHG_contactmoment17 consult 2020-06-11T14:15:01+02:00</td>
                        </tr>
                     </tbody>
                  </table>
               </div>
            </text>
            <status value="final"/>
            <type>
               <coding>
                  <system value="http://loinc.org"/>
                  <code value="67781-5"/>
                  <display value="Summarization of encounter note Narrative"/>
               </coding>
            </type>
            <subject>
               <reference value="urn:uuid:df5eb880-c02f-11ea-1271-020000000000"/>
               <display value="J. XXX_Cevat"/>
            </subject>
            <encounter>
               <reference value="urn:uuid:df5eade2-c02f-11ea-1271-020000000000"/>
               <display value="Contactmoment: MedMijHG_contactmoment17 consult 2020-06-11T14:15:01+02:00"/>
            </encounter>
            <date value="2020-06-11T14:15:02+02:00"/>
            <author>
                  <reference value="urn:oid:2.16.528.1.1007.3.1.900016431"/>
               <display value="Huisarts 1"/>
               </author>
            <title value="HNP (thoracaal/lumbaal)"/>
            <section>
               <extension url="http://nictiz.nl/fhir/StructureDefinition/code-icpc-1-nl">
                  <valueCodeableConcept>
                     <coding>
                        <system value="http://hl7.org/fhir/sid/icpc-1-nl"/>
                        <code value="L86.01"/>
                        <display value="HNP (thoracaal/lumbaal)"/>
                     </coding>
                  </valueCodeableConcept>
               </extension>
               <code>
                  <coding>
                     <system value="http://fhir.nl/fhir/NamingSystem/journaalregeltypen"/>
                     <code value="E"/>
                     <display value="Evaluatie"/>
                  </coding>
               </code>
               <text>
                  <status value="additional"/>
                  <div xmlns="http://www.w3.org/1999/xhtml">HNP</div>
               </text>
               <entry>
                  <reference value="urn:uuid:df5eacf7-c02f-11ea-1271-020000000000"/>
                  <display value="E: Evaluatie - HNP"/>
               </entry>
            </section>
            <section>
               <code>
                  <coding>
                     <system value="http://fhir.nl/fhir/NamingSystem/journaalregeltypen"/>
                     <code value="P"/>
                     <display value="Plan"/>
                  </coding>
               </code>
               <text>
                  <status value="additional"/>
                  <div xmlns="http://www.w3.org/1999/xhtml">Nogmaals verwijzing Cesar</div>
               </text>
               <entry>
                  <reference value="urn:uuid:df5ead0e-c02f-11ea-1271-020000000000"/>
                  <display value="P: Plan - Nogmaals verwijzing Cesar"/>
               </entry>
            </section>
         </Composition>
      </resource>
      <search>
         <mode value="match"/>
      </search>
   </entry>
   <entry>
      <fullUrl value="urn:uuid:df5ead1a-c02f-11ea-1271-020000000000"/>
      <resource>
         <Composition>
            <meta>
               <profile value="http://nictiz.nl/fhir/StructureDefinition/gp-EncounterReport"/>
            </meta>
            <text>
               <status value="generated"/>
               <div xmlns="http://www.w3.org/1999/xhtml">
                  <b>Keelpijn</b>
                  <table>
                     <caption>Samengestelde informatie. Subject: J. XXX_Cevat. Status: definitief<span style="display: block;">Auteur: Huisarts 1</span>
                     </caption>
                     <tbody>
                        <tr>
                           <th>Type</th>
                           <td>
                              <span title="Summarization of encounter note Narrative (67781-5 - LOINC)">Summarization of encounter note Narrative</span>
                           </td>
                        </tr>
                        <tr>
                           <th>Gemaakt</th>
                           <td>14:15:02, 7 mei 2020</td>
                        </tr>
                        <tr>
                           <th>Contact</th>
                           <td>Contactmoment: MedMijHG_contactmoment12 consult 2020-05-07T14:15:01+02:00</td>
                        </tr>
                     </tbody>
                  </table>
               </div>
            </text>
            <status value="final"/>
            <type>
               <coding>
                  <system value="http://loinc.org"/>
                  <code value="67781-5"/>
                  <display value="Summarization of encounter note Narrative"/>
               </coding>
            </type>
            <subject>
               <reference value="urn:uuid:df5eb880-c02f-11ea-1271-020000000000"/>
               <display value="J. XXX_Cevat"/>
            </subject>
            <encounter>
               <reference value="urn:uuid:df5eae13-c02f-11ea-1271-020000000000"/>
               <display value="Contactmoment: MedMijHG_contactmoment12 consult 2020-05-07T14:15:01+02:00"/>
            </encounter>
            <date value="2020-05-07T14:15:02+02:00"/>
            <author>
                  <reference value="urn:oid:2.16.528.1.1007.3.1.900016431"/>
               <display value="Huisarts 1"/>
               </author>
            <title value="Keelpijn"/>
            <section>
               <extension url="http://nictiz.nl/fhir/StructureDefinition/code-icpc-1-nl">
                  <valueCodeableConcept>
                     <coding>
                        <system value="http://hl7.org/fhir/sid/icpc-1-nl"/>
                        <code value="R21.01"/>
                        <display value="Keelpijn"/>
                     </coding>
                  </valueCodeableConcept>
               </extension>
               <code>
                  <coding>
                     <system value="http://fhir.nl/fhir/NamingSystem/journaalregeltypen"/>
                     <code value="E"/>
                     <display value="Evaluatie"/>
                  </coding>
               </code>
               <text>
                  <status value="additional"/>
                  <div xmlns="http://www.w3.org/1999/xhtml">Keelpijn eci.</div>
               </text>
               <entry>
                  <reference value="urn:uuid:df5ead40-c02f-11ea-1271-020000000000"/>
                  <display value="E: Evaluatie - Keelpijn eci."/>
               </entry>
            </section>
            <section>
               <code>
                  <coding>
                     <system value="http://fhir.nl/fhir/NamingSystem/journaalregeltypen"/>
                     <code value="P"/>
                     <display value="Plan"/>
                  </coding>
               </code>
               <text>
                  <status value="additional"/>
                  <div xmlns="http://www.w3.org/1999/xhtml">Bezoek brengen aan de tandarts, wellicht zit er daar iets.</div>
               </text>
               <entry>
                  <reference value="urn:uuid:df5ead57-c02f-11ea-1271-020000000000"/>
                  <display value="P: Plan - Bezoek brengen aan de tandarts, wellicht zit er daar iets."/>
               </entry>
            </section>
         </Composition>
      </resource>
      <search>
         <mode value="match"/>
      </search>
   </entry>
   <entry>
      <fullUrl value="urn:uuid:df5ead63-c02f-11ea-1271-020000000000"/>
      <resource>
         <Composition>
            <meta>
               <profile value="http://nictiz.nl/fhir/StructureDefinition/gp-EncounterReport"/>
            </meta>
            <text>
               <status value="generated"/>
               <div xmlns="http://www.w3.org/1999/xhtml">
                  <b>HNP (thoracaal/lumbaal)</b>
                  <table>
                     <caption>Samengestelde informatie. Subject: J. XXX_Cevat. Status: definitief<span style="display: block;">Auteur: Huisarts 1</span>
                     </caption>
                     <tbody>
                        <tr>
                           <th>Type</th>
                           <td>
                              <span title="Summarization of encounter note Narrative (67781-5 - LOINC)">Summarization of encounter note Narrative</span>
                           </td>
                        </tr>
                        <tr>
                           <th>Gemaakt</th>
                           <td>14:15:02, 2 mei 2020</td>
                        </tr>
                        <tr>
                           <th>Contact</th>
                           <td>Contactmoment: MedMijHG_contactmoment16 consult 2020-05-02T14:15:01+02:00</td>
                        </tr>
                     </tbody>
                  </table>
               </div>
            </text>
            <status value="final"/>
            <type>
               <coding>
                  <system value="http://loinc.org"/>
                  <code value="67781-5"/>
                  <display value="Summarization of encounter note Narrative"/>
               </coding>
            </type>
            <subject>
               <reference value="urn:uuid:df5eb880-c02f-11ea-1271-020000000000"/>
               <display value="J. XXX_Cevat"/>
            </subject>
            <encounter>
               <reference value="urn:uuid:df5eae44-c02f-11ea-1271-020000000000"/>
               <display value="Contactmoment: MedMijHG_contactmoment16 consult 2020-05-02T14:15:01+02:00"/>
            </encounter>
            <date value="2020-05-02T14:15:02+02:00"/>
            <author>
                  <reference value="urn:oid:2.16.528.1.1007.3.1.900016431"/>
               <display value="Huisarts 1"/>
               </author>
            <title value="HNP (thoracaal/lumbaal)"/>
            <section>
               <extension url="http://nictiz.nl/fhir/StructureDefinition/code-icpc-1-nl">
                  <valueCodeableConcept>
                     <coding>
                        <system value="http://hl7.org/fhir/sid/icpc-1-nl"/>
                        <code value="L86.01"/>
                        <display value="HNP (thoracaal/lumbaal)"/>
                     </coding>
                  </valueCodeableConcept>
               </extension>
               <code>
                  <coding>
                     <system value="http://fhir.nl/fhir/NamingSystem/journaalregeltypen"/>
                     <code value="E"/>
                     <display value="Evaluatie"/>
                  </coding>
               </code>
               <text>
                  <status value="additional"/>
                  <div xmlns="http://www.w3.org/1999/xhtml">HNP</div>
               </text>
               <entry>
                  <reference value="urn:uuid:df5ead89-c02f-11ea-1271-020000000000"/>
                  <display value="E: Evaluatie - HNP"/>
               </entry>
            </section>
            <section>
               <code>
                  <coding>
                     <system value="http://fhir.nl/fhir/NamingSystem/journaalregeltypen"/>
                     <code value="P"/>
                     <display value="Plan"/>
                  </coding>
               </code>
               <text>
                  <status value="additional"/>
                  <div xmlns="http://www.w3.org/1999/xhtml">Patiënt geïnformeerd, ziet het nog even aan.</div>
               </text>
               <entry>
                  <reference value="urn:uuid:df5eada0-c02f-11ea-1271-020000000000"/>
                  <display value="P: Plan - Patiënt geïnformeerd, ziet het nog even aan."/>
               </entry>
            </section>
         </Composition>
      </resource>
      <search>
         <mode value="match"/>
      </search>
   </entry>
   <entry>
      <fullUrl value="urn:uuid:df5eadad-c02f-11ea-1271-020000000000"/>
      <resource>
         <Composition>
            <meta>
               <profile value="http://nictiz.nl/fhir/StructureDefinition/gp-EncounterReport"/>
            </meta>
            <text>
               <status value="generated"/>
               <div xmlns="http://www.w3.org/1999/xhtml">
                  <b>HNP (thoracaal/lumbaal)</b>
                  <table>
                     <caption>Samengestelde informatie. Subject: J. XXX_Cevat. Status: definitief<span style="display: block;">Auteur: Huisarts 1</span>
                     </caption>
                     <tbody>
                        <tr>
                           <th>Type</th>
                           <td>
                              <span title="Summarization of encounter note Narrative (67781-5 - LOINC)">Summarization of encounter note Narrative</span>
                           </td>
                        </tr>
                        <tr>
                           <th>Gemaakt</th>
                           <td>14:15:02, 27 april 2020</td>
                        </tr>
                        <tr>
                           <th>Contact</th>
                           <td>Contactmoment: MedMijHG_contactmoment15 consult 2020-04-27T14:15:01+02:00</td>
                        </tr>
                     </tbody>
                  </table>
               </div>
            </text>
            <status value="final"/>
            <type>
               <coding>
                  <system value="http://loinc.org"/>
                  <code value="67781-5"/>
                  <display value="Summarization of encounter note Narrative"/>
               </coding>
            </type>
            <subject>
               <reference value="urn:uuid:df5eb880-c02f-11ea-1271-020000000000"/>
               <display value="J. XXX_Cevat"/>
            </subject>
            <encounter>
               <reference value="urn:uuid:df5eae76-c02f-11ea-1271-020000000000"/>
               <display value="Contactmoment: MedMijHG_contactmoment15 consult 2020-04-27T14:15:01+02:00"/>
            </encounter>
            <date value="2020-04-27T14:15:02+02:00"/>
            <author>
                  <reference value="urn:oid:2.16.528.1.1007.3.1.900016431"/>
               <display value="Huisarts 1"/>
               </author>
            <title value="HNP (thoracaal/lumbaal)"/>
            <section>
               <extension url="http://nictiz.nl/fhir/StructureDefinition/code-icpc-1-nl">
                  <valueCodeableConcept>
                     <coding>
                        <system value="http://hl7.org/fhir/sid/icpc-1-nl"/>
                        <code value="L86.01"/>
                        <display value="HNP (thoracaal/lumbaal)"/>
                     </coding>
                  </valueCodeableConcept>
               </extension>
               <code>
                  <coding>
                     <system value="http://fhir.nl/fhir/NamingSystem/journaalregeltypen"/>
                     <code value="E"/>
                     <display value="Evaluatie"/>
                  </coding>
               </code>
               <text>
                  <status value="additional"/>
                  <div xmlns="http://www.w3.org/1999/xhtml">HNP</div>
               </text>
               <entry>
                  <reference value="urn:uuid:df5eadd3-c02f-11ea-1271-020000000000"/>
                  <display value="E: Evaluatie - HNP"/>
               </entry>
            </section>
            <section>
               <code>
                  <coding>
                     <system value="http://fhir.nl/fhir/NamingSystem/journaalregeltypen"/>
                     <code value="P"/>
                     <display value="Plan"/>
                  </coding>
               </code>
               <text>
                  <status value="additional"/>
                  <div xmlns="http://www.w3.org/1999/xhtml">Scan laten maken, afspraak gepland.</div>
               </text>
               <entry>
                  <reference value="urn:uuid:df5eadea-c02f-11ea-1271-020000000000"/>
                  <display value="P: Plan - Scan laten maken, afspraak gepland."/>
               </entry>
            </section>
         </Composition>
      </resource>
      <search>
         <mode value="match"/>
      </search>
   </entry>
   <entry>
      <fullUrl value="urn:uuid:df5eadf6-c02f-11ea-1271-020000000000"/>
      <resource>
         <Composition>
            <meta>
               <profile value="http://nictiz.nl/fhir/StructureDefinition/gp-EncounterReport"/>
            </meta>
            <text>
               <status value="generated"/>
               <div xmlns="http://www.w3.org/1999/xhtml">
                  <b>lage rugpijn</b>
                  <table>
                     <caption>Samengestelde informatie. Subject: J. XXX_Cevat. Status: definitief<span style="display: block;">Auteur: Huisarts 1</span>
                     </caption>
                     <tbody>
                        <tr>
                           <th>Type</th>
                           <td>
                              <span title="Summarization of encounter note Narrative (67781-5 - LOINC)">Summarization of encounter note Narrative</span>
                           </td>
                        </tr>
                        <tr>
                           <th>Gemaakt</th>
                           <td>14:15:02, 7 april 2020</td>
                        </tr>
                        <tr>
                           <th>Contact</th>
                           <td>Contactmoment: MedMijHG_contactmoment14 consult 2020-04-07T14:15:01+02:00</td>
                        </tr>
                     </tbody>
                  </table>
               </div>
            </text>
            <status value="final"/>
            <type>
               <coding>
                  <system value="http://loinc.org"/>
                  <code value="67781-5"/>
                  <display value="Summarization of encounter note Narrative"/>
               </coding>
            </type>
            <subject>
               <reference value="urn:uuid:df5eb880-c02f-11ea-1271-020000000000"/>
               <display value="J. XXX_Cevat"/>
            </subject>
            <encounter>
               <reference value="urn:uuid:df5eaea7-c02f-11ea-1271-020000000000"/>
               <display value="Contactmoment: MedMijHG_contactmoment14 consult 2020-04-07T14:15:01+02:00"/>
            </encounter>
            <date value="2020-04-07T14:15:02+02:00"/>
            <author>
                  <reference value="urn:oid:2.16.528.1.1007.3.1.900016431"/>
               <display value="Huisarts 1"/>
               </author>
            <title value="lage rugpijn"/>
            <section>
               <extension url="http://nictiz.nl/fhir/StructureDefinition/code-icpc-1-nl">
                  <valueCodeableConcept>
                     <coding>
                        <system value="http://hl7.org/fhir/sid/icpc-1-nl"/>
                        <code value="L03"/>
                        <display value="lage rugpijn"/>
                     </coding>
                  </valueCodeableConcept>
               </extension>
               <code>
                  <coding>
                     <system value="http://fhir.nl/fhir/NamingSystem/journaalregeltypen"/>
                     <code value="E"/>
                     <display value="Evaluatie"/>
                  </coding>
               </code>
               <text>
                  <status value="additional"/>
                  <div xmlns="http://www.w3.org/1999/xhtml">Lage rugpijn</div>
               </text>
               <entry>
                  <reference value="urn:uuid:df5eae1c-c02f-11ea-1271-020000000000"/>
                  <display value="E: Evaluatie - Lage rugpijn"/>
               </entry>
            </section>
            <section>
               <code>
                  <coding>
                     <system value="http://fhir.nl/fhir/NamingSystem/journaalregeltypen"/>
                     <code value="P"/>
                     <display value="Plan"/>
                  </coding>
               </code>
               <text>
                  <status value="additional"/>
                  <div xmlns="http://www.w3.org/1999/xhtml">Cesar of Mensendieck. Verwijzing aangemaakt</div>
               </text>
               <entry>
                  <reference value="urn:uuid:df5eae33-c02f-11ea-1271-020000000000"/>
                  <display value="P: Plan - Cesar of Mensendieck. Verwijzing aangemaakt"/>
               </entry>
            </section>
         </Composition>
      </resource>
      <search>
         <mode value="match"/>
      </search>
   </entry>
   <entry>
      <fullUrl value="urn:uuid:df5eae3f-c02f-11ea-1271-020000000000"/>
      <resource>
         <Composition>
            <meta>
               <profile value="http://nictiz.nl/fhir/StructureDefinition/gp-EncounterReport"/>
            </meta>
            <text>
               <status value="generated"/>
               <div xmlns="http://www.w3.org/1999/xhtml">
                  <b>Keelpijn</b>
                  <table>
                     <caption>Samengestelde informatie. Subject: J. XXX_Cevat. Status: definitief<span style="display: block;">Auteur: Huisarts 1</span>
                     </caption>
                     <tbody>
                        <tr>
                           <th>Type</th>
                           <td>
                              <span title="Summarization of encounter note Narrative (67781-5 - LOINC)">Summarization of encounter note Narrative</span>
                           </td>
                        </tr>
                        <tr>
                           <th>Gemaakt</th>
                           <td>14:15:02, 28 maart 2020</td>
                        </tr>
                        <tr>
                           <th>Contact</th>
                           <td>Contactmoment: MedMijHG_contactmoment11 consult 2020-03-28T13:15:01+01:00</td>
                        </tr>
                     </tbody>
                  </table>
               </div>
            </text>
            <status value="final"/>
            <type>
               <coding>
                  <system value="http://loinc.org"/>
                  <code value="67781-5"/>
                  <display value="Summarization of encounter note Narrative"/>
               </coding>
            </type>
            <subject>
               <reference value="urn:uuid:df5eb880-c02f-11ea-1271-020000000000"/>
               <display value="J. XXX_Cevat"/>
            </subject>
            <encounter>
               <reference value="urn:uuid:df5eaed8-c02f-11ea-1271-020000000000"/>
               <display value="Contactmoment: MedMijHG_contactmoment11 consult 2020-03-28T13:15:01+01:00"/>
            </encounter>
            <date value="2020-03-28T14:15:02+01:00"/>
            <author>
                  <reference value="urn:oid:2.16.528.1.1007.3.1.900016431"/>
               <display value="Huisarts 1"/>
               </author>
            <title value="Keelpijn"/>
            <section>
               <extension url="http://nictiz.nl/fhir/StructureDefinition/code-icpc-1-nl">
                  <valueCodeableConcept>
                     <coding>
                        <system value="http://hl7.org/fhir/sid/icpc-1-nl"/>
                        <code value="R21.01"/>
                        <display value="Keelpijn"/>
                     </coding>
                  </valueCodeableConcept>
               </extension>
               <code>
                  <coding>
                     <system value="http://fhir.nl/fhir/NamingSystem/journaalregeltypen"/>
                     <code value="E"/>
                     <display value="Evaluatie"/>
                  </coding>
               </code>
               <text>
                  <status value="additional"/>
                  <div xmlns="http://www.w3.org/1999/xhtml">Keelpijn eci.</div>
               </text>
               <entry>
                  <reference value="urn:uuid:df5eae65-c02f-11ea-1271-020000000000"/>
                  <display value="E: Evaluatie - Keelpijn eci."/>
               </entry>
            </section>
            <section>
               <code>
                  <coding>
                     <system value="http://fhir.nl/fhir/NamingSystem/journaalregeltypen"/>
                     <code value="P"/>
                     <display value="Plan"/>
                  </coding>
               </code>
               <text>
                  <status value="additional"/>
                  <div xmlns="http://www.w3.org/1999/xhtml">Kweek van aanslag keel</div>
               </text>
               <entry>
                  <reference value="urn:uuid:df5eae7c-c02f-11ea-1271-020000000000"/>
                  <display value="P: Plan - Kweek van aanslag keel"/>
               </entry>
            </section>
         </Composition>
      </resource>
      <search>
         <mode value="match"/>
      </search>
   </entry>
   <entry>
      <fullUrl value="urn:uuid:df5eae88-c02f-11ea-1271-020000000000"/>
      <resource>
         <Composition>
            <meta>
               <profile value="http://nictiz.nl/fhir/StructureDefinition/gp-EncounterReport"/>
            </meta>
            <text>
               <status value="generated"/>
               <div xmlns="http://www.w3.org/1999/xhtml">
                  <b>Maagpijn</b>
                  <table>
                     <caption>Samengestelde informatie. Subject: J. XXX_Cevat. Status: definitief<span style="display: block;">Auteur: Huisarts 1</span>
                     </caption>
                     <tbody>
                        <tr>
                           <th>Type</th>
                           <td>
                              <span title="Summarization of encounter note Narrative (67781-5 - LOINC)">Summarization of encounter note Narrative</span>
                           </td>
                        </tr>
                        <tr>
                           <th>Gemaakt</th>
                           <td>14:15:02, 23 maart 2020</td>
                        </tr>
                        <tr>
                           <th>Contact</th>
                           <td>Contactmoment: MedMijHG_contactmoment07 consult 2020-03-23T13:15:01+01:00</td>
                        </tr>
                     </tbody>
                  </table>
               </div>
            </text>
            <status value="final"/>
            <type>
               <coding>
                  <system value="http://loinc.org"/>
                  <code value="67781-5"/>
                  <display value="Summarization of encounter note Narrative"/>
               </coding>
            </type>
            <subject>
               <reference value="urn:uuid:df5eb880-c02f-11ea-1271-020000000000"/>
               <display value="J. XXX_Cevat"/>
            </subject>
            <encounter>
               <reference value="urn:uuid:df5eaf09-c02f-11ea-1271-020000000000"/>
               <display value="Contactmoment: MedMijHG_contactmoment07 consult 2020-03-23T13:15:01+01:00"/>
            </encounter>
            <date value="2020-03-23T14:15:02+01:00"/>
            <author>
                  <reference value="urn:oid:2.16.528.1.1007.3.1.900016431"/>
               <display value="Huisarts 1"/>
               </author>
            <title value="Maagpijn"/>
            <section>
               <extension url="http://nictiz.nl/fhir/StructureDefinition/code-icpc-1-nl">
                  <valueCodeableConcept>
                     <coding>
                        <system value="http://hl7.org/fhir/sid/icpc-1-nl"/>
                        <code value="D02"/>
                        <display value="Maagpijn"/>
                     </coding>
                  </valueCodeableConcept>
               </extension>
               <code>
                  <coding>
                     <system value="http://fhir.nl/fhir/NamingSystem/journaalregeltypen"/>
                     <code value="E"/>
                     <display value="Evaluatie"/>
                  </coding>
               </code>
               <text>
                  <status value="additional"/>
                  <div xmlns="http://www.w3.org/1999/xhtml">Maag/duodenum problemen?</div>
               </text>
               <entry>
                  <reference value="urn:uuid:df5eaeae-c02f-11ea-1271-020000000000"/>
                  <display value="E: Evaluatie - Maag/duodenum problemen?"/>
               </entry>
            </section>
         </Composition>
      </resource>
      <search>
         <mode value="match"/>
      </search>
   </entry>
   <entry>
      <fullUrl value="urn:uuid:df5eaecd-c02f-11ea-1271-020000000000"/>
      <resource>
         <Composition>
            <meta>
               <profile value="http://nictiz.nl/fhir/StructureDefinition/gp-EncounterReport"/>
            </meta>
            <text>
               <status value="generated"/>
               <div xmlns="http://www.w3.org/1999/xhtml">
                  <b>lage rugpijn</b>
                  <table>
                     <caption>Samengestelde informatie. Subject: J. XXX_Cevat. Status: definitief<span style="display: block;">Auteur: Huisarts 1</span>
                     </caption>
                     <tbody>
                        <tr>
                           <th>Type</th>
                           <td>
                              <span title="Summarization of encounter note Narrative (67781-5 - LOINC)">Summarization of encounter note Narrative</span>
                           </td>
                        </tr>
                        <tr>
                           <th>Gemaakt</th>
                           <td>14:15:02, 18 maart 2020</td>
                        </tr>
                        <tr>
                           <th>Contact</th>
                           <td>Contactmoment: MedMijHG_contactmoment05 consult 2020-03-18T13:15:01+01:00</td>
                        </tr>
                     </tbody>
                  </table>
               </div>
            </text>
            <status value="final"/>
            <type>
               <coding>
                  <system value="http://loinc.org"/>
                  <code value="67781-5"/>
                  <display value="Summarization of encounter note Narrative"/>
               </coding>
            </type>
            <subject>
               <reference value="urn:uuid:df5eb880-c02f-11ea-1271-020000000000"/>
               <display value="J. XXX_Cevat"/>
            </subject>
            <encounter>
               <reference value="urn:uuid:df5eaf3a-c02f-11ea-1271-020000000000"/>
               <display value="Contactmoment: MedMijHG_contactmoment05 consult 2020-03-18T13:15:01+01:00"/>
            </encounter>
            <date value="2020-03-18T14:15:02+01:00"/>
            <author>
                  <reference value="urn:oid:2.16.528.1.1007.3.1.900016431"/>
               <display value="Huisarts 1"/>
               </author>
            <title value="lage rugpijn"/>
            <section>
               <extension url="http://nictiz.nl/fhir/StructureDefinition/code-icpc-1-nl">
                  <valueCodeableConcept>
                     <coding>
                        <system value="http://hl7.org/fhir/sid/icpc-1-nl"/>
                        <code value="L03"/>
                        <display value="lage rugpijn"/>
                     </coding>
                  </valueCodeableConcept>
               </extension>
               <code>
                  <coding>
                     <system value="http://fhir.nl/fhir/NamingSystem/journaalregeltypen"/>
                     <code value="E"/>
                     <display value="Evaluatie"/>
                  </coding>
               </code>
               <text>
                  <status value="additional"/>
                  <div xmlns="http://www.w3.org/1999/xhtml">Maag/duodenum problemen?</div>
               </text>
               <entry>
                  <reference value="urn:uuid:df5eaef3-c02f-11ea-1271-020000000000"/>
                  <display value="E: Evaluatie - Maag/duodenum problemen?"/>
               </entry>
            </section>
            <section>
               <code>
                  <coding>
                     <system value="http://fhir.nl/fhir/NamingSystem/journaalregeltypen"/>
                     <code value="P"/>
                     <display value="Plan"/>
                  </coding>
               </code>
               <text>
                  <status value="additional"/>
                  <div xmlns="http://www.w3.org/1999/xhtml">Cesar of Mensendieck.</div>
               </text>
               <entry>
                  <reference value="urn:uuid:df5eaf0a-c02f-11ea-1271-020000000000"/>
                  <display value="P: Plan - Cesar of Mensendieck."/>
               </entry>
            </section>
         </Composition>
      </resource>
      <search>
         <mode value="match"/>
      </search>
   </entry>
   <entry>
      <fullUrl value="urn:uuid:df5eaf16-c02f-11ea-1271-020000000000"/>
      <resource>
         <Composition>
            <meta>
               <profile value="http://nictiz.nl/fhir/StructureDefinition/gp-EncounterReport"/>
            </meta>
            <text>
               <status value="generated"/>
               <div xmlns="http://www.w3.org/1999/xhtml">
                  <b>Keelpijn</b>
                  <table>
                     <caption>Samengestelde informatie. Subject: J. XXX_Cevat. Status: definitief<span style="display: block;">Auteur: Huisarts 1</span>
                     </caption>
                     <tbody>
                        <tr>
                           <th>Type</th>
                           <td>
                              <span title="Summarization of encounter note Narrative (67781-5 - LOINC)">Summarization of encounter note Narrative</span>
                           </td>
                        </tr>
                        <tr>
                           <th>Gemaakt</th>
                           <td>14:15:02, 3 maart 2020</td>
                        </tr>
                        <tr>
                           <th>Contact</th>
                           <td>Contactmoment: MedMijHG_contactmoment10 consult 2020-03-03T13:15:01+01:00</td>
                        </tr>
                     </tbody>
                  </table>
               </div>
            </text>
            <status value="final"/>
            <type>
               <coding>
                  <system value="http://loinc.org"/>
                  <code value="67781-5"/>
                  <display value="Summarization of encounter note Narrative"/>
               </coding>
            </type>
            <subject>
               <reference value="urn:uuid:df5eb880-c02f-11ea-1271-020000000000"/>
               <display value="J. XXX_Cevat"/>
            </subject>
            <encounter>
               <reference value="urn:uuid:df5eaf6b-c02f-11ea-1271-020000000000"/>
               <display value="Contactmoment: MedMijHG_contactmoment10 consult 2020-03-03T13:15:01+01:00"/>
            </encounter>
            <date value="2020-03-03T14:15:02+01:00"/>
            <author>
                  <reference value="urn:oid:2.16.528.1.1007.3.1.900016431"/>
               <display value="Huisarts 1"/>
               </author>
            <title value="Keelpijn"/>
            <section>
               <extension url="http://nictiz.nl/fhir/StructureDefinition/code-icpc-1-nl">
                  <valueCodeableConcept>
                     <coding>
                        <system value="http://hl7.org/fhir/sid/icpc-1-nl"/>
                        <code value="R21.01"/>
                        <display value="Keelpijn"/>
                     </coding>
                  </valueCodeableConcept>
               </extension>
               <code>
                  <coding>
                     <system value="http://fhir.nl/fhir/NamingSystem/journaalregeltypen"/>
                     <code value="E"/>
                     <display value="Evaluatie"/>
                  </coding>
               </code>
               <text>
                  <status value="additional"/>
                  <div xmlns="http://www.w3.org/1999/xhtml">Keelpijn eci.</div>
               </text>
               <entry>
                  <reference value="urn:uuid:df5eaf3c-c02f-11ea-1271-020000000000"/>
                  <display value="E: Evaluatie - Keelpijn eci."/>
               </entry>
            </section>
            <section>
               <code>
                  <coding>
                     <system value="http://fhir.nl/fhir/NamingSystem/journaalregeltypen"/>
                     <code value="P"/>
                     <display value="Plan"/>
                  </coding>
               </code>
               <text>
                  <status value="additional"/>
                  <div xmlns="http://www.w3.org/1999/xhtml">Afwachten, zn. Medicatie is nog beschikbaar</div>
               </text>
               <entry>
                  <reference value="urn:uuid:df5eaf53-c02f-11ea-1271-020000000000"/>
                  <display value="P: Plan - Afwachten, zn. Medicatie is nog beschikbaar"/>
               </entry>
            </section>
         </Composition>
      </resource>
      <search>
         <mode value="match"/>
      </search>
   </entry>
   <entry>
      <fullUrl value="urn:uuid:df5eaf60-c02f-11ea-1271-020000000000"/>
      <resource>
         <Composition>
            <meta>
               <profile value="http://nictiz.nl/fhir/StructureDefinition/gp-EncounterReport"/>
            </meta>
            <text>
               <status value="generated"/>
               <div xmlns="http://www.w3.org/1999/xhtml">
                  <b>lage rugpijn</b>
                  <table>
                     <caption>Samengestelde informatie. Subject: J. XXX_Cevat. Status: definitief<span style="display: block;">Auteur: Huisarts 1</span>
                     </caption>
                     <tbody>
                        <tr>
                           <th>Type</th>
                           <td>
                              <span title="Summarization of encounter note Narrative (67781-5 - LOINC)">Summarization of encounter note Narrative</span>
                           </td>
                        </tr>
                        <tr>
                           <th>Gemaakt</th>
                           <td>14:15:02, 27 februari 2020</td>
                        </tr>
                        <tr>
                           <th>Contact</th>
                           <td>Contactmoment: MedMijHG_contactmoment04 consult 2020-02-27T13:15:01+01:00</td>
                        </tr>
                     </tbody>
                  </table>
               </div>
            </text>
            <status value="final"/>
            <type>
               <coding>
                  <system value="http://loinc.org"/>
                  <code value="67781-5"/>
                  <display value="Summarization of encounter note Narrative"/>
               </coding>
            </type>
            <subject>
               <reference value="urn:uuid:df5eb880-c02f-11ea-1271-020000000000"/>
               <display value="J. XXX_Cevat"/>
            </subject>
            <encounter>
               <reference value="urn:uuid:df5eaf9d-c02f-11ea-1271-020000000000"/>
               <display value="Contactmoment: MedMijHG_contactmoment04 consult 2020-02-27T13:15:01+01:00"/>
            </encounter>
            <date value="2020-02-27T14:15:02+01:00"/>
            <author>
                  <reference value="urn:oid:2.16.528.1.1007.3.1.900016431"/>
               <display value="Huisarts 1"/>
               </author>
            <title value="lage rugpijn"/>
            <section>
               <extension url="http://nictiz.nl/fhir/StructureDefinition/code-icpc-1-nl">
                  <valueCodeableConcept>
                     <coding>
                        <system value="http://hl7.org/fhir/sid/icpc-1-nl"/>
                        <code value="L03"/>
                        <display value="lage rugpijn"/>
                     </coding>
                  </valueCodeableConcept>
               </extension>
               <code>
                  <coding>
                     <system value="http://fhir.nl/fhir/NamingSystem/journaalregeltypen"/>
                     <code value="E"/>
                     <display value="Evaluatie"/>
                  </coding>
               </code>
               <text>
                  <status value="additional"/>
                  <div xmlns="http://www.w3.org/1999/xhtml">lage rugpijn</div>
               </text>
               <entry>
                  <reference value="urn:uuid:df5eaf86-c02f-11ea-1271-020000000000"/>
                  <display value="E: Evaluatie - lage rugpijn"/>
               </entry>
            </section>
         </Composition>
      </resource>
      <search>
         <mode value="match"/>
      </search>
   </entry>
   <entry>
      <fullUrl value="urn:uuid:df5eafa2-c02f-11ea-1271-020000000000"/>
      <resource>
         <Composition>
            <meta>
               <profile value="http://nictiz.nl/fhir/StructureDefinition/gp-EncounterReport"/>
            </meta>
            <text>
               <status value="generated"/>
               <div xmlns="http://www.w3.org/1999/xhtml">
                  <b>Keelpijn</b>
                  <table>
                     <caption>Samengestelde informatie. Subject: J. XXX_Cevat. Status: definitief<span style="display: block;">Auteur: Huisarts 1</span>
                     </caption>
                     <tbody>
                        <tr>
                           <th>Type</th>
                           <td>
                              <span title="Summarization of encounter note Narrative (67781-5 - LOINC)">Summarization of encounter note Narrative</span>
                           </td>
                        </tr>
                        <tr>
                           <th>Gemaakt</th>
                           <td>14:15:02, 28 januari 2020</td>
                        </tr>
                        <tr>
                           <th>Contact</th>
                           <td>Contactmoment: MedMijHG_contactmoment06 consult 2020-01-28T13:15:01+01:00</td>
                        </tr>
                     </tbody>
                  </table>
               </div>
            </text>
            <status value="final"/>
            <type>
               <coding>
                  <system value="http://loinc.org"/>
                  <code value="67781-5"/>
                  <display value="Summarization of encounter note Narrative"/>
               </coding>
            </type>
            <subject>
               <reference value="urn:uuid:df5eb880-c02f-11ea-1271-020000000000"/>
               <display value="J. XXX_Cevat"/>
            </subject>
            <encounter>
               <reference value="urn:uuid:df5eafce-c02f-11ea-1271-020000000000"/>
               <display value="Contactmoment: MedMijHG_contactmoment06 consult 2020-01-28T13:15:01+01:00"/>
            </encounter>
            <date value="2020-01-28T14:15:02+01:00"/>
            <author>
                  <reference value="urn:oid:2.16.528.1.1007.3.1.900016431"/>
               <display value="Huisarts 1"/>
               </author>
            <title value="Keelpijn"/>
            <section>
               <extension url="http://nictiz.nl/fhir/StructureDefinition/code-icpc-1-nl">
                  <valueCodeableConcept>
                     <coding>
                        <system value="http://hl7.org/fhir/sid/icpc-1-nl"/>
                        <code value="R21.01"/>
                        <display value="Keelpijn"/>
                     </coding>
                  </valueCodeableConcept>
               </extension>
               <code>
                  <coding>
                     <system value="http://fhir.nl/fhir/NamingSystem/journaalregeltypen"/>
                     <code value="E"/>
                     <display value="Evaluatie"/>
                  </coding>
               </code>
               <text>
                  <status value="additional"/>
                  <div xmlns="http://www.w3.org/1999/xhtml">Keelpijn eci.</div>
               </text>
               <entry>
                  <reference value="urn:uuid:df5eafc8-c02f-11ea-1271-020000000000"/>
                  <display value="E: Evaluatie - Keelpijn eci."/>
               </entry>
            </section>
            <section>
               <code>
                  <coding>
                     <system value="http://fhir.nl/fhir/NamingSystem/journaalregeltypen"/>
                     <code value="P"/>
                     <display value="Plan"/>
                  </coding>
               </code>
               <text>
                  <status value="additional"/>
                  <div xmlns="http://www.w3.org/1999/xhtml">Afwachten, zn. Pcm, tijdens feest paracod.</div>
               </text>
               <entry>
                  <reference value="urn:uuid:df5eafdf-c02f-11ea-1271-020000000000"/>
                  <display value="P: Plan - Afwachten, zn. Pcm, tijdens feest paracod."/>
               </entry>
            </section>
         </Composition>
      </resource>
      <search>
         <mode value="match"/>
      </search>
   </entry>
   <entry>
      <fullUrl value="urn:uuid:df5eafeb-c02f-11ea-1271-020000000000"/>
      <resource>
         <Composition>
            <meta>
               <profile value="http://nictiz.nl/fhir/StructureDefinition/gp-EncounterReport"/>
            </meta>
            <text>
               <status value="generated"/>
               <div xmlns="http://www.w3.org/1999/xhtml">
                  <b>Astma</b>
                  <table>
                     <caption>Samengestelde informatie. Subject: J. XXX_Cevat. Status: definitief<span style="display: block;">Auteur: Huisarts 1</span>
                     </caption>
                     <tbody>
                        <tr>
                           <th>Type</th>
                           <td>
                              <span title="Summarization of encounter note Narrative (67781-5 - LOINC)">Summarization of encounter note Narrative</span>
                           </td>
                        </tr>
                        <tr>
                           <th>Gemaakt</th>
                           <td>14:15:02, 18 januari 2020</td>
                        </tr>
                        <tr>
                           <th>Contact</th>
                           <td>Contactmoment: MedMijHG_contactmomentMMK consult 2020-01-18T13:15:01+01:00</td>
                        </tr>
                     </tbody>
                  </table>
               </div>
            </text>
            <status value="final"/>
            <type>
               <coding>
                  <system value="http://loinc.org"/>
                  <code value="67781-5"/>
                  <display value="Summarization of encounter note Narrative"/>
               </coding>
            </type>
            <subject>
               <reference value="urn:uuid:df5eb880-c02f-11ea-1271-020000000000"/>
               <display value="J. XXX_Cevat"/>
            </subject>
            <encounter>
               <reference value="urn:uuid:df5eafff-c02f-11ea-1271-020000000000"/>
               <display value="Contactmoment: MedMijHG_contactmomentMMK consult 2020-01-18T13:15:01+01:00"/>
            </encounter>
            <date value="2020-01-18T14:15:02+01:00"/>
            <author>
                  <reference value="urn:oid:2.16.528.1.1007.3.1.900016431"/>
               <display value="Huisarts 1"/>
               </author>
            <title value="Astma"/>
            <section>
               <extension url="http://nictiz.nl/fhir/StructureDefinition/code-icpc-1-nl">
                  <valueCodeableConcept>
                     <coding>
                        <system value="http://hl7.org/fhir/sid/icpc-1-nl"/>
                        <code value="R96"/>
                        <display value="Astma"/>
                     </coding>
                  </valueCodeableConcept>
               </extension>
               <code>
                  <coding>
                     <system value="http://fhir.nl/fhir/NamingSystem/journaalregeltypen"/>
                     <code value="E"/>
                     <display value="Evaluatie"/>
                  </coding>
               </code>
               <text>
                  <status value="additional"/>
                  <div xmlns="http://www.w3.org/1999/xhtml">astma</div>
               </text>
               <entry>
                  <reference value="urn:uuid:df5eb011-c02f-11ea-1271-020000000000"/>
                  <display value="E: Evaluatie - astma"/>
               </entry>
            </section>
            <section>
               <code>
                  <coding>
                     <system value="http://fhir.nl/fhir/NamingSystem/journaalregeltypen"/>
                     <code value="P"/>
                     <display value="Plan"/>
                  </coding>
               </code>
               <text>
                  <status value="additional"/>
                  <div xmlns="http://www.w3.org/1999/xhtml">Salbutamol half uur voor het sporten.</div>
               </text>
               <entry>
                  <reference value="urn:uuid:df5eb028-c02f-11ea-1271-020000000000"/>
                  <display value="P: Plan - Salbutamol half uur voor het sporten."/>
               </entry>
            </section>
         </Composition>
      </resource>
      <search>
         <mode value="match"/>
      </search>
   </entry>
   <entry>
      <fullUrl value="urn:uuid:df5eac4c-c02f-11ea-1271-020000000000"/>
      <resource>
         <Composition>
            <meta>
               <profile value="http://nictiz.nl/fhir/StructureDefinition/gp-EncounterReport"/>
            </meta>
            <text>
               <status value="generated"/>
               <div xmlns="http://www.w3.org/1999/xhtml">
                  <b>Tinea Pedis</b>
                  <table>
                     <caption>Samengestelde informatie. Subject: J. XXX_Cevat. Status: definitief<span style="display: block;">Auteur: Huisarts 1</span>
                     </caption>
                     <tbody>
                        <tr>
                           <th>Type</th>
                           <td>
                              <span title="Summarization of encounter note Narrative (67781-5 - LOINC)">Summarization of encounter note Narrative</span>
                           </td>
                        </tr>
                        <tr>
                           <th>Gemaakt</th>
                           <td>14:15:02, 8 januari 2020</td>
                        </tr>
                        <tr>
                           <th>Contact</th>
                           <td>Contactmoment: MedMijHG_contactmoment09 consult 2020-01-08T13:15:01+01:00</td>
                        </tr>
                     </tbody>
                  </table>
               </div>
            </text>
            <status value="final"/>
            <type>
               <coding>
                  <system value="http://loinc.org"/>
                  <code value="67781-5"/>
                  <display value="Summarization of encounter note Narrative"/>
               </coding>
            </type>
            <subject>
               <reference value="urn:uuid:df5eb880-c02f-11ea-1271-020000000000"/>
               <display value="J. XXX_Cevat"/>
            </subject>
            <encounter>
               <reference value="urn:uuid:df5eb030-c02f-11ea-1271-020000000000"/>
               <display value="Contactmoment: MedMijHG_contactmoment09 consult 2020-01-08T13:15:01+01:00"/>
            </encounter>
            <date value="2020-01-08T14:15:02+01:00"/>
            <author>
                  <reference value="urn:oid:2.16.528.1.1007.3.1.900016431"/>
               <display value="Huisarts 1"/>
               </author>
            <title value="Tinea Pedis"/>
            <section>
               <extension url="http://nictiz.nl/fhir/StructureDefinition/code-icpc-1-nl">
                  <valueCodeableConcept>
                     <coding>
                        <system value="http://hl7.org/fhir/sid/icpc-1-nl"/>
                        <code value="S74.01"/>
                        <display value="Tinea Pedis"/>
                     </coding>
                  </valueCodeableConcept>
               </extension>
               <code>
                  <coding>
                     <system value="http://fhir.nl/fhir/NamingSystem/journaalregeltypen"/>
                     <code value="E"/>
                     <display value="Evaluatie"/>
                  </coding>
               </code>
               <text>
                  <status value="additional"/>
                  <div xmlns="http://www.w3.org/1999/xhtml">Mycose</div>
               </text>
               <entry>
                  <reference value="urn:uuid:df5eac72-c02f-11ea-1271-020000000000"/>
                  <display value="E: Evaluatie - Mycose"/>
               </entry>
            </section>
            <section>
               <code>
                  <coding>
                     <system value="http://fhir.nl/fhir/NamingSystem/journaalregeltypen"/>
                     <code value="P"/>
                     <display value="Plan"/>
                  </coding>
               </code>
               <text>
                  <status value="additional"/>
                  <div xmlns="http://www.w3.org/1999/xhtml">Heeft nog canesten via drogist; 2x daags gebruiken.</div>
               </text>
               <entry>
                  <reference value="urn:uuid:df5eac89-c02f-11ea-1271-020000000000"/>
                  <display value="P: Plan - Heeft nog canesten via drogist; 2x daags gebruiken."/>
               </entry>
            </section>
         </Composition>
      </resource>
      <search>
         <mode value="match"/>
      </search>
   </entry>
   <entry>
      <fullUrl value="urn:uuid:df5eac95-c02f-11ea-1271-020000000000"/>
      <resource>
         <Composition>
            <meta>
               <profile value="http://nictiz.nl/fhir/StructureDefinition/gp-EncounterReport"/>
            </meta>
            <text>
               <status value="generated"/>
               <div xmlns="http://www.w3.org/1999/xhtml">
                  <b>Contactverslag J. XXX_Cevat</b>
                  <table>
                     <caption>Samengestelde informatie. Subject: J. XXX_Cevat. Status: definitief<span style="display: block;">Auteur: Huisarts 1</span>
                     </caption>
                     <tbody>
                        <tr>
                           <th>Type</th>
                           <td>
                              <span title="Summarization of encounter note Narrative (67781-5 - LOINC)">Summarization of encounter note Narrative</span>
                           </td>
                        </tr>
                        <tr>
                           <th>Gemaakt</th>
                           <td>14:15:02, 3 januari 2020</td>
                        </tr>
                        <tr>
                           <th>Contact</th>
                           <td>Contactmoment: MedMijHG_contactmoment08 consult 2020-01-03T13:15:01+01:00</td>
                        </tr>
                     </tbody>
                  </table>
               </div>
            </text>
            <status value="final"/>
            <type>
               <coding>
                  <system value="http://loinc.org"/>
                  <code value="67781-5"/>
                  <display value="Summarization of encounter note Narrative"/>
               </coding>
            </type>
            <subject>
               <reference value="urn:uuid:df5eb880-c02f-11ea-1271-020000000000"/>
               <display value="J. XXX_Cevat"/>
            </subject>
            <encounter>
               <reference value="urn:uuid:df5eb061-c02f-11ea-1271-020000000000"/>
               <display value="Contactmoment: MedMijHG_contactmoment08 consult 2020-01-03T13:15:01+01:00"/>
            </encounter>
            <date value="2020-01-03T14:15:02+01:00"/>
            <author>
                  <reference value="urn:oid:2.16.528.1.1007.3.1.900016431"/>
               <display value="Huisarts 1"/>
               </author>
            <title value="Contactverslag J. XXX_Cevat"/>
            <section>
               <code>
                  <coding>
                     <system value="http://fhir.nl/fhir/NamingSystem/journaalregeltypen"/>
                     <code value="E"/>
                     <display value="Evaluatie"/>
                  </coding>
               </code>
               <text>
                  <status value="additional"/>
                  <div xmlns="http://www.w3.org/1999/xhtml">Onder mandibula re. glad weinig mobile zwelling, lijkt speekselkl.</div>
               </text>
               <entry>
                  <reference value="urn:uuid:df5eacbb-c02f-11ea-1271-020000000000"/>
                  <display value="E: Evaluatie - Onder mandibula re. glad weinig mobile zwelling, lijkt speekselkl."/>
               </entry>
            </section>
            <section>
               <code>
                  <coding>
                     <system value="http://fhir.nl/fhir/NamingSystem/journaalregeltypen"/>
                     <code value="P"/>
                     <display value="Plan"/>
                  </coding>
               </code>
               <text>
                  <status value="additional"/>
                  <div xmlns="http://www.w3.org/1999/xhtml">Echo</div>
               </text>
               <entry>
                  <reference value="urn:uuid:df5eacc2-c02f-11ea-1271-020000000000"/>
                  <display value="P: Plan - Echo"/>
               </entry>
            </section>
         </Composition>
      </resource>
      <search>
         <mode value="match"/>
      </search>
   </entry>
   <entry>
      <fullUrl value="urn:uuid:df5eacce-c02f-11ea-1271-020000000000"/>
      <resource>
         <Composition>
            <meta>
               <profile value="http://nictiz.nl/fhir/StructureDefinition/gp-EncounterReport"/>
            </meta>
            <text>
               <status value="generated"/>
               <div xmlns="http://www.w3.org/1999/xhtml">
                  <b>Contactverslag J. XXX_Cevat</b>
                  <table>
                     <caption>Samengestelde informatie. Subject: J. XXX_Cevat. Status: definitief<span style="display: block;">Auteur: Huisarts 1</span>
                     </caption>
                     <tbody>
                        <tr>
                           <th>Type</th>
                           <td>
                              <span title="Summarization of encounter note Narrative (67781-5 - LOINC)">Summarization of encounter note Narrative</span>
                           </td>
                        </tr>
                        <tr>
                           <th>Gemaakt</th>
                           <td>14:15:02, 2 juli 2019</td>
                        </tr>
                        <tr>
                           <th>Contact</th>
                           <td>Contactmoment: MedMijHG_contactmoment03 consult 2019-07-02T14:15:01+02:00</td>
                        </tr>
                     </tbody>
                  </table>
               </div>
            </text>
            <status value="final"/>
            <type>
               <coding>
                  <system value="http://loinc.org"/>
                  <code value="67781-5"/>
                  <display value="Summarization of encounter note Narrative"/>
               </coding>
            </type>
            <subject>
               <reference value="urn:uuid:df5eb880-c02f-11ea-1271-020000000000"/>
               <display value="J. XXX_Cevat"/>
            </subject>
            <encounter>
               <reference value="urn:uuid:df5eb092-c02f-11ea-1271-020000000000"/>
               <display value="Contactmoment: MedMijHG_contactmoment03 consult 2019-07-02T14:15:01+02:00"/>
            </encounter>
            <date value="2019-07-02T14:15:02+02:00"/>
            <author>
                  <reference value="urn:oid:2.16.528.1.1007.3.1.900016431"/>
               <display value="Huisarts 1"/>
               </author>
            <title value="Contactverslag J. XXX_Cevat"/>
            <section>
               <code>
                  <coding>
                     <system value="http://fhir.nl/fhir/NamingSystem/journaalregeltypen"/>
                     <code value="P"/>
                     <display value="Plan"/>
                  </coding>
               </code>
               <text>
                  <status value="additional"/>
                  <div xmlns="http://www.w3.org/1999/xhtml">Over paar weken RR thuis.</div>
               </text>
               <entry>
                  <reference value="urn:uuid:df5eacf2-c02f-11ea-1271-020000000000"/>
                  <display value="P: Plan - Over paar weken RR thuis."/>
               </entry>
            </section>
         </Composition>
      </resource>
      <search>
         <mode value="match"/>
      </search>
   </entry>
   <entry>
      <fullUrl value="urn:uuid:df5eacff-c02f-11ea-1271-020000000000"/>
      <resource>
         <Composition>
            <meta>
               <profile value="http://nictiz.nl/fhir/StructureDefinition/gp-EncounterReport"/>
            </meta>
            <text>
               <status value="generated"/>
               <div xmlns="http://www.w3.org/1999/xhtml">
                  <b>Contactverslag J. XXX_Cevat</b>
                  <table>
                     <caption>Samengestelde informatie. Subject: J. XXX_Cevat. Status: definitief<span style="display: block;">Auteur: Huisarts 1</span>
                     </caption>
                     <tbody>
                        <tr>
                           <th>Type</th>
                           <td>
                              <span title="Summarization of encounter note Narrative (67781-5 - LOINC)">Summarization of encounter note Narrative</span>
                           </td>
                        </tr>
                        <tr>
                           <th>Gemaakt</th>
                           <td>14:15:02, 12 juni 2019</td>
                        </tr>
                        <tr>
                           <th>Contact</th>
                           <td>Contactmoment: MedMijHG_contactmoment02 consult 2019-06-12T14:15:01+02:00</td>
                        </tr>
                     </tbody>
                  </table>
               </div>
            </text>
            <status value="final"/>
            <type>
               <coding>
                  <system value="http://loinc.org"/>
                  <code value="67781-5"/>
                  <display value="Summarization of encounter note Narrative"/>
               </coding>
            </type>
            <subject>
               <reference value="urn:uuid:df5eb880-c02f-11ea-1271-020000000000"/>
               <display value="J. XXX_Cevat"/>
            </subject>
            <encounter>
               <reference value="urn:uuid:df5eb0be-c02f-11ea-1271-020000000000"/>
               <display value="Contactmoment: MedMijHG_contactmoment02 consult 2019-06-12T14:15:01+02:00"/>
            </encounter>
            <date value="2019-06-12T14:15:02+02:00"/>
            <author>
                  <reference value="urn:oid:2.16.528.1.1007.3.1.900016431"/>
               <display value="Huisarts 1"/>
               </author>
            <title value="Contactverslag J. XXX_Cevat"/>
            <section>
               <code>
                  <coding>
                     <system value="http://fhir.nl/fhir/NamingSystem/journaalregeltypen"/>
                     <code value="P"/>
                     <display value="Plan"/>
                  </coding>
               </code>
               <text>
                  <status value="additional"/>
                  <div xmlns="http://www.w3.org/1999/xhtml">Na vakantie nogmaals.</div>
               </text>
               <entry>
                  <reference value="urn:uuid:df5ead23-c02f-11ea-1271-020000000000"/>
                  <display value="P: Plan - Na vakantie nogmaals."/>
               </entry>
            </section>
         </Composition>
      </resource>
      <search>
         <mode value="match"/>
      </search>
   </entry>
   <entry>
      <fullUrl value="urn:uuid:df5ead2f-c02f-11ea-1271-020000000000"/>
      <resource>
         <Composition>
            <meta>
               <profile value="http://nictiz.nl/fhir/StructureDefinition/gp-EncounterReport"/>
            </meta>
            <text>
               <status value="generated"/>
               <div xmlns="http://www.w3.org/1999/xhtml">
                  <b>Boezemfibrilleren/-fladderen</b>
                  <table>
                     <caption>Samengestelde informatie. Subject: J. XXX_Cevat. Status: definitief<span style="display: block;">Auteur: Huisarts 1</span>
                     </caption>
                     <tbody>
                        <tr>
                           <th>Type</th>
                           <td>
                              <span title="Summarization of encounter note Narrative (67781-5 - LOINC)">Summarization of encounter note Narrative</span>
                           </td>
                        </tr>
                        <tr>
                           <th>Gemaakt</th>
                           <td>14:15:02, 23 mei 2019</td>
                        </tr>
                        <tr>
                           <th>Contact</th>
                           <td>Contactmoment: MedMijHG_contactmoment01 consult 2019-05-23T14:15:01+02:00</td>
                        </tr>
                     </tbody>
                  </table>
               </div>
            </text>
            <status value="final"/>
            <type>
               <coding>
                  <system value="http://loinc.org"/>
                  <code value="67781-5"/>
                  <display value="Summarization of encounter note Narrative"/>
               </coding>
            </type>
            <subject>
               <reference value="urn:uuid:df5eb880-c02f-11ea-1271-020000000000"/>
               <display value="J. XXX_Cevat"/>
            </subject>
            <encounter>
               <reference value="urn:uuid:df5eb0e9-c02f-11ea-1271-020000000000"/>
               <display value="Contactmoment: MedMijHG_contactmoment01 consult 2019-05-23T14:15:01+02:00"/>
            </encounter>
            <date value="2019-05-23T14:15:02+02:00"/>
            <author>
                  <reference value="urn:oid:2.16.528.1.1007.3.1.900016431"/>
               <display value="Huisarts 1"/>
               </author>
            <title value="Boezemfibrilleren/-fladderen"/>
            <section>
               <extension url="http://nictiz.nl/fhir/StructureDefinition/code-icpc-1-nl">
                  <valueCodeableConcept>
                     <coding>
                        <system value="http://hl7.org/fhir/sid/icpc-1-nl"/>
                        <code value="K78"/>
                        <display value="Boezemfibrilleren/-fladderen"/>
                     </coding>
                  </valueCodeableConcept>
               </extension>
               <code>
                  <coding>
                     <system value="http://fhir.nl/fhir/NamingSystem/journaalregeltypen"/>
                     <code value="E"/>
                     <display value="Evaluatie"/>
                  </coding>
               </code>
               <text>
                  <status value="additional"/>
                  <div xmlns="http://www.w3.org/1999/xhtml">Ritmestoornis</div>
               </text>
               <entry>
                  <reference value="urn:uuid:df5ead55-c02f-11ea-1271-020000000000"/>
                  <display value="E: Evaluatie - Ritmestoornis"/>
               </entry>
            </section>
            <section>
               <code>
                  <coding>
                     <system value="http://fhir.nl/fhir/NamingSystem/journaalregeltypen"/>
                     <code value="P"/>
                     <display value="Plan"/>
                  </coding>
               </code>
               <text>
                  <status value="additional"/>
                  <div xmlns="http://www.w3.org/1999/xhtml">Naar SEH.</div>
               </text>
               <entry>
                  <reference value="urn:uuid:df5ead6c-c02f-11ea-1271-020000000000"/>
                  <display value="P: Plan - Naar SEH."/>
               </entry>
            </section>
         </Composition>
      </resource>
      <search>
         <mode value="match"/>
      </search>
   </entry>
   <entry>
      <fullUrl value="urn:uuid:df5eadb1-c02f-11ea-1271-020000000000"/>
      <resource>
         <Encounter>
            <meta>
               <profile value="http://nictiz.nl/fhir/StructureDefinition/gp-Encounter"/>
            </meta>
            <text>
               <status value="generated"/>
               <div xmlns="http://www.w3.org/1999/xhtml">
                  <table>
                     <caption>Contact. Subject: J. XXX_Cevat. Id: MedMijHG_contactmoment13 (urn:oid:2.16.840.1.113883.2.4.3.111.19.1), Status: voltooid</caption>
                     <tbody>
                        <tr>
                           <th>Type contact</th>
                           <td>
                              <div>
                                 <span title="Ambulatory (AMB - v3/ActCode)">Ambulatory</span>
                              </div>
                              <span title="consult (03 - nhg-tabel-14-contactwijze)">consult</span>
                           </td>
                        </tr>
                        <tr>
                           <th>Periode</th>
                           <td>14:15:01 - 14:45:01 op 16 juni 2020</td>
                        </tr>
                        <tr>
                           <th>Participant</th>
                           <td>
                              <div>
                                 <span title="Performer (PRF - v3/ParticipationType)">Performer</span> - Huisarts 1 || Gezondheidscentrum Aesculaap</div>
                           </td>
                        </tr>
                        <tr>
                           <th>Zorgaanbieder</th>
                           <td>Gezondheidscentrum Aesculaap</td>
                        </tr>
                     </tbody>
                  </table>
               </div>
            </text>
            <identifier>
               <system value="urn:oid:2.16.840.1.113883.2.4.3.111.19.1"/>
               <value value="MedMijHG_contactmoment13"/>
            </identifier>
            <status value="finished"/>
            <class>
               <system value="http://hl7.org/fhir/v3/ActCode"/>
               <code value="AMB"/>
               <display value="Ambulatory"/>
            </class>
            <type>
               <coding>
                  <system value="https://referentiemodel.nhg.org/tabellen/nhg-tabel-14-contactwijze"/>
                  <version value="v3"/>
                  <code value="03"/>
                  <display value="consult"/>
               </coding>
            </type>
            <subject>
               <reference value="urn:uuid:df5eb880-c02f-11ea-1271-020000000000"/>
               <display value="J. XXX_Cevat"/>
            </subject>
            <episodeOfCare>
               <identifier>
                  <system value="urn:oid:2.16.840.1.113883.2.4.3.111.19.1"/>
                  <value value="MedMijHG_concern_R21.01"/>
               </identifier>
               <display value="Episode: MedMijHG_concern_R21.01 2.16.840.1.113883.2.4.3.111.19.1"/>
            </episodeOfCare>
            <participant>
               <type>
                  <coding>
                     <system value="http://hl7.org/fhir/v3/ParticipationType"/>
                     <code value="PRF"/>
                     <display value="Performer"/>
                  </coding>
               </type>
               <individual>
                  <extension url="http://nictiz.nl/fhir/StructureDefinition/practitionerrole-reference">
                     <valueReference>
                        <reference value="urn:uuid:df5eadb6-c02f-11ea-1271-020000000000"/>
                        <display value="Huisarts 1 || Gezondheidscentrum Aesculaap"/>
                     </valueReference>
                  </extension>
                  <reference value="urn:oid:2.16.528.1.1007.3.1.900016431"/>
                  <display value="Huisarts 1"/>
               </individual>
            </participant>
            <period>
               <start value="2020-06-16T14:15:01+02:00"/>
               <end value="2020-06-16T14:45:01+02:00"/>
            </period>
            <serviceProvider>
               <reference value="urn:oid:2.16.528.1.1007.3.3.2727"/>
               <display value="Gezondheidscentrum Aesculaap"/>
            </serviceProvider>
         </Encounter>
      </resource>
      <search>
         <mode value="include"/>
      </search>
   </entry>
   <entry>
      <fullUrl value="urn:uuid:df5eade2-c02f-11ea-1271-020000000000"/>
      <resource>
         <Encounter>
            <meta>
               <profile value="http://nictiz.nl/fhir/StructureDefinition/gp-Encounter"/>
            </meta>
            <text>
               <status value="generated"/>
               <div xmlns="http://www.w3.org/1999/xhtml">
                  <table>
                     <caption>Contact. Subject: J. XXX_Cevat. Id: MedMijHG_contactmoment17 (urn:oid:2.16.840.1.113883.2.4.3.111.19.1), Status: voltooid</caption>
                     <tbody>
                        <tr>
                           <th>Type contact</th>
                           <td>
                              <div>
                                 <span title="Ambulatory (AMB - v3/ActCode)">Ambulatory</span>
                              </div>
                              <span title="consult (03 - nhg-tabel-14-contactwijze)">consult</span>
                           </td>
                        </tr>
                        <tr>
                           <th>Periode</th>
                           <td>14:15:01 - 14:45:01 op 11 juni 2020</td>
                        </tr>
                        <tr>
                           <th>Participant</th>
                           <td>
                              <div>
                                 <span title="Performer (PRF - v3/ParticipationType)">Performer</span> - Huisarts 1 || Gezondheidscentrum Aesculaap</div>
                           </td>
                        </tr>
                        <tr>
                           <th>Zorgaanbieder</th>
                           <td>Gezondheidscentrum Aesculaap</td>
                        </tr>
                     </tbody>
                  </table>
               </div>
            </text>
            <identifier>
               <system value="urn:oid:2.16.840.1.113883.2.4.3.111.19.1"/>
               <value value="MedMijHG_contactmoment17"/>
            </identifier>
            <status value="finished"/>
            <class>
               <system value="http://hl7.org/fhir/v3/ActCode"/>
               <code value="AMB"/>
               <display value="Ambulatory"/>
            </class>
            <type>
               <coding>
                  <system value="https://referentiemodel.nhg.org/tabellen/nhg-tabel-14-contactwijze"/>
                  <version value="v3"/>
                  <code value="03"/>
                  <display value="consult"/>
               </coding>
            </type>
            <subject>
               <reference value="urn:uuid:df5eb880-c02f-11ea-1271-020000000000"/>
               <display value="J. XXX_Cevat"/>
            </subject>
            <episodeOfCare>
               <identifier>
                  <system value="urn:oid:2.16.840.1.113883.2.4.3.111.19.1"/>
                  <value value="MedMijHG_concern_L86.01"/>
               </identifier>
               <display value="Episode: MedMijHG_concern_L86.01 2.16.840.1.113883.2.4.3.111.19.1"/>
            </episodeOfCare>
            <participant>
               <type>
                  <coding>
                     <system value="http://hl7.org/fhir/v3/ParticipationType"/>
                     <code value="PRF"/>
                     <display value="Performer"/>
                  </coding>
               </type>
               <individual>
                  <extension url="http://nictiz.nl/fhir/StructureDefinition/practitionerrole-reference">
                     <valueReference>
                        <reference value="urn:uuid:df5eadb6-c02f-11ea-1271-020000000000"/>
                        <display value="Huisarts 1 || Gezondheidscentrum Aesculaap"/>
                     </valueReference>
                  </extension>
                  <reference value="urn:oid:2.16.528.1.1007.3.1.900016431"/>
                  <display value="Huisarts 1"/>
               </individual>
            </participant>
            <period>
               <start value="2020-06-11T14:15:01+02:00"/>
               <end value="2020-06-11T14:45:01+02:00"/>
            </period>
            <serviceProvider>
               <reference value="urn:oid:2.16.528.1.1007.3.3.2727"/>
               <display value="Gezondheidscentrum Aesculaap"/>
            </serviceProvider>
         </Encounter>
      </resource>
      <search>
         <mode value="include"/>
      </search>
   </entry>
   <entry>
      <fullUrl value="urn:uuid:df5eae13-c02f-11ea-1271-020000000000"/>
      <resource>
         <Encounter>
            <meta>
               <profile value="http://nictiz.nl/fhir/StructureDefinition/gp-Encounter"/>
            </meta>
            <text>
               <status value="generated"/>
               <div xmlns="http://www.w3.org/1999/xhtml">
                  <table>
                     <caption>Contact. Subject: J. XXX_Cevat. Id: MedMijHG_contactmoment12 (urn:oid:2.16.840.1.113883.2.4.3.111.19.1), Status: voltooid</caption>
                     <tbody>
                        <tr>
                           <th>Type contact</th>
                           <td>
                              <div>
                                 <span title="Ambulatory (AMB - v3/ActCode)">Ambulatory</span>
                              </div>
                              <span title="consult (03 - nhg-tabel-14-contactwijze)">consult</span>
                           </td>
                        </tr>
                        <tr>
                           <th>Periode</th>
                           <td>14:15:01 - 14:45:01 op 7 mei 2020</td>
                        </tr>
                        <tr>
                           <th>Participant</th>
                           <td>
                              <div>
                                 <span title="Performer (PRF - v3/ParticipationType)">Performer</span> - Huisarts 1 || Gezondheidscentrum Aesculaap</div>
                           </td>
                        </tr>
                        <tr>
                           <th>Zorgaanbieder</th>
                           <td>Gezondheidscentrum Aesculaap</td>
                        </tr>
                     </tbody>
                  </table>
               </div>
            </text>
            <identifier>
               <system value="urn:oid:2.16.840.1.113883.2.4.3.111.19.1"/>
               <value value="MedMijHG_contactmoment12"/>
            </identifier>
            <status value="finished"/>
            <class>
               <system value="http://hl7.org/fhir/v3/ActCode"/>
               <code value="AMB"/>
               <display value="Ambulatory"/>
            </class>
            <type>
               <coding>
                  <system value="https://referentiemodel.nhg.org/tabellen/nhg-tabel-14-contactwijze"/>
                  <version value="v3"/>
                  <code value="03"/>
                  <display value="consult"/>
               </coding>
            </type>
            <subject>
               <reference value="urn:uuid:df5eb880-c02f-11ea-1271-020000000000"/>
               <display value="J. XXX_Cevat"/>
            </subject>
            <episodeOfCare>
               <identifier>
                  <system value="urn:oid:2.16.840.1.113883.2.4.3.111.19.1"/>
                  <value value="MedMijHG_concern_R21.01"/>
               </identifier>
               <display value="Episode: MedMijHG_concern_R21.01 2.16.840.1.113883.2.4.3.111.19.1"/>
            </episodeOfCare>
            <participant>
               <type>
                  <coding>
                     <system value="http://hl7.org/fhir/v3/ParticipationType"/>
                     <code value="PRF"/>
                     <display value="Performer"/>
                  </coding>
               </type>
               <individual>
                  <extension url="http://nictiz.nl/fhir/StructureDefinition/practitionerrole-reference">
                     <valueReference>
                        <reference value="urn:uuid:df5eadb6-c02f-11ea-1271-020000000000"/>
                        <display value="Huisarts 1 || Gezondheidscentrum Aesculaap"/>
                     </valueReference>
                  </extension>
                  <reference value="urn:oid:2.16.528.1.1007.3.1.900016431"/>
                  <display value="Huisarts 1"/>
               </individual>
            </participant>
            <period>
               <start value="2020-05-07T14:15:01+02:00"/>
               <end value="2020-05-07T14:45:01+02:00"/>
            </period>
            <serviceProvider>
               <reference value="urn:oid:2.16.528.1.1007.3.3.2727"/>
               <display value="Gezondheidscentrum Aesculaap"/>
            </serviceProvider>
         </Encounter>
      </resource>
      <search>
         <mode value="include"/>
      </search>
   </entry>
   <entry>
      <fullUrl value="urn:uuid:df5eae44-c02f-11ea-1271-020000000000"/>
      <resource>
         <Encounter>
            <meta>
               <profile value="http://nictiz.nl/fhir/StructureDefinition/gp-Encounter"/>
            </meta>
            <text>
               <status value="generated"/>
               <div xmlns="http://www.w3.org/1999/xhtml">
                  <table>
                     <caption>Contact. Subject: J. XXX_Cevat. Id: MedMijHG_contactmoment16 (urn:oid:2.16.840.1.113883.2.4.3.111.19.1), Status: voltooid</caption>
                     <tbody>
                        <tr>
                           <th>Type contact</th>
                           <td>
                              <div>
                                 <span title="Ambulatory (AMB - v3/ActCode)">Ambulatory</span>
                              </div>
                              <span title="consult (03 - nhg-tabel-14-contactwijze)">consult</span>
                           </td>
                        </tr>
                        <tr>
                           <th>Periode</th>
                           <td>14:15:01 - 14:45:01 op 2 mei 2020</td>
                        </tr>
                        <tr>
                           <th>Participant</th>
                           <td>
                              <div>
                                 <span title="Performer (PRF - v3/ParticipationType)">Performer</span> - Huisarts 1 || Gezondheidscentrum Aesculaap</div>
                           </td>
                        </tr>
                        <tr>
                           <th>Zorgaanbieder</th>
                           <td>Gezondheidscentrum Aesculaap</td>
                        </tr>
                     </tbody>
                  </table>
               </div>
            </text>
            <identifier>
               <system value="urn:oid:2.16.840.1.113883.2.4.3.111.19.1"/>
               <value value="MedMijHG_contactmoment16"/>
            </identifier>
            <status value="finished"/>
            <class>
               <system value="http://hl7.org/fhir/v3/ActCode"/>
               <code value="AMB"/>
               <display value="Ambulatory"/>
            </class>
            <type>
               <coding>
                  <system value="https://referentiemodel.nhg.org/tabellen/nhg-tabel-14-contactwijze"/>
                  <version value="v3"/>
                  <code value="03"/>
                  <display value="consult"/>
               </coding>
            </type>
            <subject>
               <reference value="urn:uuid:df5eb880-c02f-11ea-1271-020000000000"/>
               <display value="J. XXX_Cevat"/>
            </subject>
            <episodeOfCare>
               <identifier>
                  <system value="urn:oid:2.16.840.1.113883.2.4.3.111.19.1"/>
                  <value value="MedMijHG_concern_L86.01"/>
               </identifier>
               <display value="Episode: MedMijHG_concern_L86.01 2.16.840.1.113883.2.4.3.111.19.1"/>
            </episodeOfCare>
            <participant>
               <type>
                  <coding>
                     <system value="http://hl7.org/fhir/v3/ParticipationType"/>
                     <code value="PRF"/>
                     <display value="Performer"/>
                  </coding>
               </type>
               <individual>
                  <extension url="http://nictiz.nl/fhir/StructureDefinition/practitionerrole-reference">
                     <valueReference>
                        <reference value="urn:uuid:df5eadb6-c02f-11ea-1271-020000000000"/>
                        <display value="Huisarts 1 || Gezondheidscentrum Aesculaap"/>
                     </valueReference>
                  </extension>
                  <reference value="urn:oid:2.16.528.1.1007.3.1.900016431"/>
                  <display value="Huisarts 1"/>
               </individual>
            </participant>
            <period>
               <start value="2020-05-02T14:15:01+02:00"/>
               <end value="2020-05-02T14:45:01+02:00"/>
            </period>
            <serviceProvider>
               <reference value="urn:oid:2.16.528.1.1007.3.3.2727"/>
               <display value="Gezondheidscentrum Aesculaap"/>
            </serviceProvider>
         </Encounter>
      </resource>
      <search>
         <mode value="include"/>
      </search>
   </entry>
   <entry>
      <fullUrl value="urn:uuid:df5eae76-c02f-11ea-1271-020000000000"/>
      <resource>
         <Encounter>
            <meta>
               <profile value="http://nictiz.nl/fhir/StructureDefinition/gp-Encounter"/>
            </meta>
            <text>
               <status value="generated"/>
               <div xmlns="http://www.w3.org/1999/xhtml">
                  <table>
                     <caption>Contact. Subject: J. XXX_Cevat. Id: MedMijHG_contactmoment15 (urn:oid:2.16.840.1.113883.2.4.3.111.19.1), Status: voltooid</caption>
                     <tbody>
                        <tr>
                           <th>Type contact</th>
                           <td>
                              <div>
                                 <span title="Ambulatory (AMB - v3/ActCode)">Ambulatory</span>
                              </div>
                              <span title="consult (03 - nhg-tabel-14-contactwijze)">consult</span>
                           </td>
                        </tr>
                        <tr>
                           <th>Periode</th>
                           <td>14:15:01 - 14:45:01 op 27 april 2020</td>
                        </tr>
                        <tr>
                           <th>Participant</th>
                           <td>
                              <div>
                                 <span title="Performer (PRF - v3/ParticipationType)">Performer</span> - Huisarts 1 || Gezondheidscentrum Aesculaap</div>
                           </td>
                        </tr>
                        <tr>
                           <th>Zorgaanbieder</th>
                           <td>Gezondheidscentrum Aesculaap</td>
                        </tr>
                     </tbody>
                  </table>
               </div>
            </text>
            <identifier>
               <system value="urn:oid:2.16.840.1.113883.2.4.3.111.19.1"/>
               <value value="MedMijHG_contactmoment15"/>
            </identifier>
            <status value="finished"/>
            <class>
               <system value="http://hl7.org/fhir/v3/ActCode"/>
               <code value="AMB"/>
               <display value="Ambulatory"/>
            </class>
            <type>
               <coding>
                  <system value="https://referentiemodel.nhg.org/tabellen/nhg-tabel-14-contactwijze"/>
                  <version value="v3"/>
                  <code value="03"/>
                  <display value="consult"/>
               </coding>
            </type>
            <subject>
               <reference value="urn:uuid:df5eb880-c02f-11ea-1271-020000000000"/>
               <display value="J. XXX_Cevat"/>
            </subject>
            <episodeOfCare>
               <identifier>
                  <system value="urn:oid:2.16.840.1.113883.2.4.3.111.19.1"/>
                  <value value="MedMijHG_concern_L86.01"/>
               </identifier>
               <display value="Episode: MedMijHG_concern_L86.01 2.16.840.1.113883.2.4.3.111.19.1"/>
            </episodeOfCare>
            <participant>
               <type>
                  <coding>
                     <system value="http://hl7.org/fhir/v3/ParticipationType"/>
                     <code value="PRF"/>
                     <display value="Performer"/>
                  </coding>
               </type>
               <individual>
                  <extension url="http://nictiz.nl/fhir/StructureDefinition/practitionerrole-reference">
                     <valueReference>
                        <reference value="urn:uuid:df5eadb6-c02f-11ea-1271-020000000000"/>
                        <display value="Huisarts 1 || Gezondheidscentrum Aesculaap"/>
                     </valueReference>
                  </extension>
                  <reference value="urn:oid:2.16.528.1.1007.3.1.900016431"/>
                  <display value="Huisarts 1"/>
               </individual>
            </participant>
            <period>
               <start value="2020-04-27T14:15:01+02:00"/>
               <end value="2020-04-27T14:45:01+02:00"/>
            </period>
            <serviceProvider>
               <reference value="urn:oid:2.16.528.1.1007.3.3.2727"/>
               <display value="Gezondheidscentrum Aesculaap"/>
            </serviceProvider>
         </Encounter>
      </resource>
      <search>
         <mode value="include"/>
      </search>
   </entry>
   <entry>
      <fullUrl value="urn:uuid:df5eaea7-c02f-11ea-1271-020000000000"/>
      <resource>
         <Encounter>
            <meta>
               <profile value="http://nictiz.nl/fhir/StructureDefinition/gp-Encounter"/>
            </meta>
            <text>
               <status value="generated"/>
               <div xmlns="http://www.w3.org/1999/xhtml">
                  <table>
                     <caption>Contact. Subject: J. XXX_Cevat. Id: MedMijHG_contactmoment14 (urn:oid:2.16.840.1.113883.2.4.3.111.19.1), Status: voltooid</caption>
                     <tbody>
                        <tr>
                           <th>Type contact</th>
                           <td>
                              <div>
                                 <span title="Ambulatory (AMB - v3/ActCode)">Ambulatory</span>
                              </div>
                              <span title="consult (03 - nhg-tabel-14-contactwijze)">consult</span>
                           </td>
                        </tr>
                        <tr>
                           <th>Periode</th>
                           <td>14:15:01 - 14:45:01 op 7 april 2020</td>
                        </tr>
                        <tr>
                           <th>Participant</th>
                           <td>
                              <div>
                                 <span title="Performer (PRF - v3/ParticipationType)">Performer</span> - Huisarts 1 || Gezondheidscentrum Aesculaap</div>
                           </td>
                        </tr>
                        <tr>
                           <th>Zorgaanbieder</th>
                           <td>Gezondheidscentrum Aesculaap</td>
                        </tr>
                     </tbody>
                  </table>
               </div>
            </text>
            <identifier>
               <system value="urn:oid:2.16.840.1.113883.2.4.3.111.19.1"/>
               <value value="MedMijHG_contactmoment14"/>
            </identifier>
            <status value="finished"/>
            <class>
               <system value="http://hl7.org/fhir/v3/ActCode"/>
               <code value="AMB"/>
               <display value="Ambulatory"/>
            </class>
            <type>
               <coding>
                  <system value="https://referentiemodel.nhg.org/tabellen/nhg-tabel-14-contactwijze"/>
                  <version value="v3"/>
                  <code value="03"/>
                  <display value="consult"/>
               </coding>
            </type>
            <subject>
               <reference value="urn:uuid:df5eb880-c02f-11ea-1271-020000000000"/>
               <display value="J. XXX_Cevat"/>
            </subject>
            <episodeOfCare>
               <identifier>
                  <system value="urn:oid:2.16.840.1.113883.2.4.3.111.19.1"/>
                  <value value="MedMijHG_concern_L86.01"/>
               </identifier>
               <display value="Episode: MedMijHG_concern_L86.01 2.16.840.1.113883.2.4.3.111.19.1"/>
            </episodeOfCare>
            <participant>
               <type>
                  <coding>
                     <system value="http://hl7.org/fhir/v3/ParticipationType"/>
                     <code value="PRF"/>
                     <display value="Performer"/>
                  </coding>
               </type>
               <individual>
                  <extension url="http://nictiz.nl/fhir/StructureDefinition/practitionerrole-reference">
                     <valueReference>
                        <reference value="urn:uuid:df5eadb6-c02f-11ea-1271-020000000000"/>
                        <display value="Huisarts 1 || Gezondheidscentrum Aesculaap"/>
                     </valueReference>
                  </extension>
                  <reference value="urn:oid:2.16.528.1.1007.3.1.900016431"/>
                  <display value="Huisarts 1"/>
               </individual>
            </participant>
            <period>
               <start value="2020-04-07T14:15:01+02:00"/>
               <end value="2020-04-07T14:45:01+02:00"/>
            </period>
            <serviceProvider>
               <reference value="urn:oid:2.16.528.1.1007.3.3.2727"/>
               <display value="Gezondheidscentrum Aesculaap"/>
            </serviceProvider>
         </Encounter>
      </resource>
      <search>
         <mode value="include"/>
      </search>
   </entry>
   <entry>
      <fullUrl value="urn:uuid:df5eaed8-c02f-11ea-1271-020000000000"/>
      <resource>
         <Encounter>
            <meta>
               <profile value="http://nictiz.nl/fhir/StructureDefinition/gp-Encounter"/>
            </meta>
            <text>
               <status value="generated"/>
               <div xmlns="http://www.w3.org/1999/xhtml">
                  <table>
                     <caption>Contact. Subject: J. XXX_Cevat. Id: MedMijHG_contactmoment11 (urn:oid:2.16.840.1.113883.2.4.3.111.19.1), Status: voltooid</caption>
                     <tbody>
                        <tr>
                           <th>Type contact</th>
                           <td>
                              <div>
                                 <span title="Ambulatory (AMB - v3/ActCode)">Ambulatory</span>
                              </div>
                              <span title="consult (03 - nhg-tabel-14-contactwijze)">consult</span>
                           </td>
                        </tr>
                        <tr>
                           <th>Periode</th>
                           <td>13:15:01 - 13:45:01 op 28 maart 2020</td>
                        </tr>
                        <tr>
                           <th>Participant</th>
                           <td>
                              <div>
                                 <span title="Performer (PRF - v3/ParticipationType)">Performer</span> - Huisarts 1 || Gezondheidscentrum Aesculaap</div>
                           </td>
                        </tr>
                        <tr>
                           <th>Zorgaanbieder</th>
                           <td>Gezondheidscentrum Aesculaap</td>
                        </tr>
                     </tbody>
                  </table>
               </div>
            </text>
            <identifier>
               <system value="urn:oid:2.16.840.1.113883.2.4.3.111.19.1"/>
               <value value="MedMijHG_contactmoment11"/>
            </identifier>
            <status value="finished"/>
            <class>
               <system value="http://hl7.org/fhir/v3/ActCode"/>
               <code value="AMB"/>
               <display value="Ambulatory"/>
            </class>
            <type>
               <coding>
                  <system value="https://referentiemodel.nhg.org/tabellen/nhg-tabel-14-contactwijze"/>
                  <version value="v3"/>
                  <code value="03"/>
                  <display value="consult"/>
               </coding>
            </type>
            <subject>
               <reference value="urn:uuid:df5eb880-c02f-11ea-1271-020000000000"/>
               <display value="J. XXX_Cevat"/>
            </subject>
            <episodeOfCare>
               <identifier>
                  <system value="urn:oid:2.16.840.1.113883.2.4.3.111.19.1"/>
                  <value value="MedMijHG_concern_R21.01"/>
               </identifier>
               <display value="Episode: MedMijHG_concern_R21.01 2.16.840.1.113883.2.4.3.111.19.1"/>
            </episodeOfCare>
            <participant>
               <type>
                  <coding>
                     <system value="http://hl7.org/fhir/v3/ParticipationType"/>
                     <code value="PRF"/>
                     <display value="Performer"/>
                  </coding>
               </type>
               <individual>
                  <extension url="http://nictiz.nl/fhir/StructureDefinition/practitionerrole-reference">
                     <valueReference>
                        <reference value="urn:uuid:df5eadb6-c02f-11ea-1271-020000000000"/>
                        <display value="Huisarts 1 || Gezondheidscentrum Aesculaap"/>
                     </valueReference>
                  </extension>
                  <reference value="urn:oid:2.16.528.1.1007.3.1.900016431"/>
                  <display value="Huisarts 1"/>
               </individual>
            </participant>
            <period>
               <start value="2020-03-28T13:15:01+01:00"/>
               <end value="2020-03-28T13:45:01+01:00"/>
            </period>
            <serviceProvider>
               <reference value="urn:oid:2.16.528.1.1007.3.3.2727"/>
               <display value="Gezondheidscentrum Aesculaap"/>
            </serviceProvider>
         </Encounter>
      </resource>
      <search>
         <mode value="include"/>
      </search>
   </entry>
   <entry>
      <fullUrl value="urn:uuid:df5eaf09-c02f-11ea-1271-020000000000"/>
      <resource>
         <Encounter>
            <meta>
               <profile value="http://nictiz.nl/fhir/StructureDefinition/gp-Encounter"/>
            </meta>
            <text>
               <status value="generated"/>
               <div xmlns="http://www.w3.org/1999/xhtml">
                  <table>
                     <caption>Contact. Subject: J. XXX_Cevat. Id: MedMijHG_contactmoment07 (urn:oid:2.16.840.1.113883.2.4.3.111.19.1), Status: voltooid</caption>
                     <tbody>
                        <tr>
                           <th>Type contact</th>
                           <td>
                              <div>
                                 <span title="Ambulatory (AMB - v3/ActCode)">Ambulatory</span>
                              </div>
                              <span title="consult (03 - nhg-tabel-14-contactwijze)">consult</span>
                           </td>
                        </tr>
                        <tr>
                           <th>Periode</th>
                           <td>13:15:01 - 13:45:01 op 23 maart 2020</td>
                        </tr>
                        <tr>
                           <th>Participant</th>
                           <td>
                              <div>
                                 <span title="Performer (PRF - v3/ParticipationType)">Performer</span> - Huisarts 1 || Gezondheidscentrum Aesculaap</div>
                           </td>
                        </tr>
                        <tr>
                           <th>Zorgaanbieder</th>
                           <td>Gezondheidscentrum Aesculaap</td>
                        </tr>
                     </tbody>
                  </table>
               </div>
            </text>
            <identifier>
               <system value="urn:oid:2.16.840.1.113883.2.4.3.111.19.1"/>
               <value value="MedMijHG_contactmoment07"/>
            </identifier>
            <status value="finished"/>
            <class>
               <system value="http://hl7.org/fhir/v3/ActCode"/>
               <code value="AMB"/>
               <display value="Ambulatory"/>
            </class>
            <type>
               <coding>
                  <system value="https://referentiemodel.nhg.org/tabellen/nhg-tabel-14-contactwijze"/>
                  <version value="v3"/>
                  <code value="03"/>
                  <display value="consult"/>
               </coding>
            </type>
            <subject>
               <reference value="urn:uuid:df5eb880-c02f-11ea-1271-020000000000"/>
               <display value="J. XXX_Cevat"/>
            </subject>
            <episodeOfCare>
               <identifier>
                  <system value="urn:oid:2.16.840.1.113883.2.4.3.111.19.1"/>
                  <value value="MedMijHG_concern_D02"/>
               </identifier>
               <display value="Episode: MedMijHG_concern_D02 2.16.840.1.113883.2.4.3.111.19.1"/>
            </episodeOfCare>
            <participant>
               <type>
                  <coding>
                     <system value="http://hl7.org/fhir/v3/ParticipationType"/>
                     <code value="PRF"/>
                     <display value="Performer"/>
                  </coding>
               </type>
               <individual>
                  <extension url="http://nictiz.nl/fhir/StructureDefinition/practitionerrole-reference">
                     <valueReference>
                        <reference value="urn:uuid:df5eadb6-c02f-11ea-1271-020000000000"/>
                        <display value="Huisarts 1 || Gezondheidscentrum Aesculaap"/>
                     </valueReference>
                  </extension>
                  <reference value="urn:oid:2.16.528.1.1007.3.1.900016431"/>
                  <display value="Huisarts 1"/>
               </individual>
            </participant>
            <period>
               <start value="2020-03-23T13:15:01+01:00"/>
               <end value="2020-03-23T13:45:01+01:00"/>
            </period>
            <serviceProvider>
               <reference value="urn:oid:2.16.528.1.1007.3.3.2727"/>
               <display value="Gezondheidscentrum Aesculaap"/>
            </serviceProvider>
         </Encounter>
      </resource>
      <search>
         <mode value="include"/>
      </search>
   </entry>
   <entry>
      <fullUrl value="urn:uuid:df5eaf3a-c02f-11ea-1271-020000000000"/>
      <resource>
         <Encounter>
            <meta>
               <profile value="http://nictiz.nl/fhir/StructureDefinition/gp-Encounter"/>
            </meta>
            <text>
               <status value="generated"/>
               <div xmlns="http://www.w3.org/1999/xhtml">
                  <table>
                     <caption>Contact. Subject: J. XXX_Cevat. Id: MedMijHG_contactmoment05 (urn:oid:2.16.840.1.113883.2.4.3.111.19.1), Status: voltooid</caption>
                     <tbody>
                        <tr>
                           <th>Type contact</th>
                           <td>
                              <div>
                                 <span title="Ambulatory (AMB - v3/ActCode)">Ambulatory</span>
                              </div>
                              <span title="consult (03 - nhg-tabel-14-contactwijze)">consult</span>
                           </td>
                        </tr>
                        <tr>
                           <th>Periode</th>
                           <td>13:15:01 - 13:45:01 op 18 maart 2020</td>
                        </tr>
                        <tr>
                           <th>Participant</th>
                           <td>
                              <div>
                                 <span title="Performer (PRF - v3/ParticipationType)">Performer</span> - Huisarts 1 || Gezondheidscentrum Aesculaap</div>
                           </td>
                        </tr>
                        <tr>
                           <th>Zorgaanbieder</th>
                           <td>Gezondheidscentrum Aesculaap</td>
                        </tr>
                     </tbody>
                  </table>
               </div>
            </text>
            <identifier>
               <system value="urn:oid:2.16.840.1.113883.2.4.3.111.19.1"/>
               <value value="MedMijHG_contactmoment05"/>
            </identifier>
            <status value="finished"/>
            <class>
               <system value="http://hl7.org/fhir/v3/ActCode"/>
               <code value="AMB"/>
               <display value="Ambulatory"/>
            </class>
            <type>
               <coding>
                  <system value="https://referentiemodel.nhg.org/tabellen/nhg-tabel-14-contactwijze"/>
                  <version value="v3"/>
                  <code value="03"/>
                  <display value="consult"/>
               </coding>
            </type>
            <subject>
               <reference value="urn:uuid:df5eb880-c02f-11ea-1271-020000000000"/>
               <display value="J. XXX_Cevat"/>
            </subject>
            <episodeOfCare>
               <identifier>
                  <system value="urn:oid:2.16.840.1.113883.2.4.3.111.19.1"/>
                  <value value="MedMijHG_concern_L86.01"/>
               </identifier>
               <display value="Episode: MedMijHG_concern_L86.01 2.16.840.1.113883.2.4.3.111.19.1"/>
            </episodeOfCare>
            <participant>
               <type>
                  <coding>
                     <system value="http://hl7.org/fhir/v3/ParticipationType"/>
                     <code value="PRF"/>
                     <display value="Performer"/>
                  </coding>
               </type>
               <individual>
                  <extension url="http://nictiz.nl/fhir/StructureDefinition/practitionerrole-reference">
                     <valueReference>
                        <reference value="urn:uuid:df5eadb6-c02f-11ea-1271-020000000000"/>
                        <display value="Huisarts 1 || Gezondheidscentrum Aesculaap"/>
                     </valueReference>
                  </extension>
                  <reference value="urn:oid:2.16.528.1.1007.3.1.900016431"/>
                  <display value="Huisarts 1"/>
               </individual>
            </participant>
            <period>
               <start value="2020-03-18T13:15:01+01:00"/>
               <end value="2020-03-18T13:45:01+01:00"/>
            </period>
            <serviceProvider>
               <reference value="urn:oid:2.16.528.1.1007.3.3.2727"/>
               <display value="Gezondheidscentrum Aesculaap"/>
            </serviceProvider>
         </Encounter>
      </resource>
      <search>
         <mode value="include"/>
      </search>
   </entry>
   <entry>
      <fullUrl value="urn:uuid:df5eaf6b-c02f-11ea-1271-020000000000"/>
      <resource>
         <Encounter>
            <meta>
               <profile value="http://nictiz.nl/fhir/StructureDefinition/gp-Encounter"/>
            </meta>
            <text>
               <status value="generated"/>
               <div xmlns="http://www.w3.org/1999/xhtml">
                  <table>
                     <caption>Contact. Subject: J. XXX_Cevat. Id: MedMijHG_contactmoment10 (urn:oid:2.16.840.1.113883.2.4.3.111.19.1), Status: voltooid</caption>
                     <tbody>
                        <tr>
                           <th>Type contact</th>
                           <td>
                              <div>
                                 <span title="Ambulatory (AMB - v3/ActCode)">Ambulatory</span>
                              </div>
                              <span title="consult (03 - nhg-tabel-14-contactwijze)">consult</span>
                           </td>
                        </tr>
                        <tr>
                           <th>Periode</th>
                           <td>13:15:01 - 13:45:01 op 3 maart 2020</td>
                        </tr>
                        <tr>
                           <th>Participant</th>
                           <td>
                              <div>
                                 <span title="Performer (PRF - v3/ParticipationType)">Performer</span> - Huisarts 1 || Gezondheidscentrum Aesculaap</div>
                           </td>
                        </tr>
                        <tr>
                           <th>Zorgaanbieder</th>
                           <td>Gezondheidscentrum Aesculaap</td>
                        </tr>
                     </tbody>
                  </table>
               </div>
            </text>
            <identifier>
               <system value="urn:oid:2.16.840.1.113883.2.4.3.111.19.1"/>
               <value value="MedMijHG_contactmoment10"/>
            </identifier>
            <status value="finished"/>
            <class>
               <system value="http://hl7.org/fhir/v3/ActCode"/>
               <code value="AMB"/>
               <display value="Ambulatory"/>
            </class>
            <type>
               <coding>
                  <system value="https://referentiemodel.nhg.org/tabellen/nhg-tabel-14-contactwijze"/>
                  <version value="v3"/>
                  <code value="03"/>
                  <display value="consult"/>
               </coding>
            </type>
            <subject>
               <reference value="urn:uuid:df5eb880-c02f-11ea-1271-020000000000"/>
               <display value="J. XXX_Cevat"/>
            </subject>
            <episodeOfCare>
               <identifier>
                  <system value="urn:oid:2.16.840.1.113883.2.4.3.111.19.1"/>
                  <value value="MedMijHG_concern_R21.01"/>
               </identifier>
               <display value="Episode: MedMijHG_concern_R21.01 2.16.840.1.113883.2.4.3.111.19.1"/>
            </episodeOfCare>
            <participant>
               <type>
                  <coding>
                     <system value="http://hl7.org/fhir/v3/ParticipationType"/>
                     <code value="PRF"/>
                     <display value="Performer"/>
                  </coding>
               </type>
               <individual>
                  <extension url="http://nictiz.nl/fhir/StructureDefinition/practitionerrole-reference">
                     <valueReference>
                        <reference value="urn:uuid:df5eadb6-c02f-11ea-1271-020000000000"/>
                        <display value="Huisarts 1 || Gezondheidscentrum Aesculaap"/>
                     </valueReference>
                  </extension>
                  <reference value="urn:oid:2.16.528.1.1007.3.1.900016431"/>
                  <display value="Huisarts 1"/>
               </individual>
            </participant>
            <period>
               <start value="2020-03-03T13:15:01+01:00"/>
               <end value="2020-03-03T13:45:01+01:00"/>
            </period>
            <serviceProvider>
               <reference value="urn:oid:2.16.528.1.1007.3.3.2727"/>
               <display value="Gezondheidscentrum Aesculaap"/>
            </serviceProvider>
         </Encounter>
      </resource>
      <search>
         <mode value="include"/>
      </search>
   </entry>
   <entry>
      <fullUrl value="urn:uuid:df5eaf9d-c02f-11ea-1271-020000000000"/>
      <resource>
         <Encounter>
            <meta>
               <profile value="http://nictiz.nl/fhir/StructureDefinition/gp-Encounter"/>
            </meta>
            <text>
               <status value="generated"/>
               <div xmlns="http://www.w3.org/1999/xhtml">
                  <table>
                     <caption>Contact. Subject: J. XXX_Cevat. Id: MedMijHG_contactmoment04 (urn:oid:2.16.840.1.113883.2.4.3.111.19.1), Status: voltooid</caption>
                     <tbody>
                        <tr>
                           <th>Type contact</th>
                           <td>
                              <div>
                                 <span title="Ambulatory (AMB - v3/ActCode)">Ambulatory</span>
                              </div>
                              <span title="consult (03 - nhg-tabel-14-contactwijze)">consult</span>
                           </td>
                        </tr>
                        <tr>
                           <th>Periode</th>
                           <td>13:15:01 - 13:45:01 op 27 februari 2020</td>
                        </tr>
                        <tr>
                           <th>Participant</th>
                           <td>
                              <div>
                                 <span title="Performer (PRF - v3/ParticipationType)">Performer</span> - Huisarts 1 || Gezondheidscentrum Aesculaap</div>
                           </td>
                        </tr>
                        <tr>
                           <th>Zorgaanbieder</th>
                           <td>Gezondheidscentrum Aesculaap</td>
                        </tr>
                     </tbody>
                  </table>
               </div>
            </text>
            <identifier>
               <system value="urn:oid:2.16.840.1.113883.2.4.3.111.19.1"/>
               <value value="MedMijHG_contactmoment04"/>
            </identifier>
            <status value="finished"/>
            <class>
               <system value="http://hl7.org/fhir/v3/ActCode"/>
               <code value="AMB"/>
               <display value="Ambulatory"/>
            </class>
            <type>
               <coding>
                  <system value="https://referentiemodel.nhg.org/tabellen/nhg-tabel-14-contactwijze"/>
                  <version value="v3"/>
                  <code value="03"/>
                  <display value="consult"/>
               </coding>
            </type>
            <subject>
               <reference value="urn:uuid:df5eb880-c02f-11ea-1271-020000000000"/>
               <display value="J. XXX_Cevat"/>
            </subject>
            <episodeOfCare>
               <identifier>
                  <system value="urn:oid:2.16.840.1.113883.2.4.3.111.19.1"/>
                  <value value="MedMijHG_concern_L86.01"/>
               </identifier>
               <display value="Episode: MedMijHG_concern_L86.01 2.16.840.1.113883.2.4.3.111.19.1"/>
            </episodeOfCare>
            <participant>
               <type>
                  <coding>
                     <system value="http://hl7.org/fhir/v3/ParticipationType"/>
                     <code value="PRF"/>
                     <display value="Performer"/>
                  </coding>
               </type>
               <individual>
                  <extension url="http://nictiz.nl/fhir/StructureDefinition/practitionerrole-reference">
                     <valueReference>
                        <reference value="urn:uuid:df5eadb6-c02f-11ea-1271-020000000000"/>
                        <display value="Huisarts 1 || Gezondheidscentrum Aesculaap"/>
                     </valueReference>
                  </extension>
                  <reference value="urn:oid:2.16.528.1.1007.3.1.900016431"/>
                  <display value="Huisarts 1"/>
               </individual>
            </participant>
            <period>
               <start value="2020-02-27T13:15:01+01:00"/>
               <end value="2020-02-27T13:45:01+01:00"/>
            </period>
            <serviceProvider>
               <reference value="urn:oid:2.16.528.1.1007.3.3.2727"/>
               <display value="Gezondheidscentrum Aesculaap"/>
            </serviceProvider>
         </Encounter>
      </resource>
      <search>
         <mode value="include"/>
      </search>
   </entry>
   <entry>
      <fullUrl value="urn:uuid:df5eafce-c02f-11ea-1271-020000000000"/>
      <resource>
         <Encounter>
            <meta>
               <profile value="http://nictiz.nl/fhir/StructureDefinition/gp-Encounter"/>
            </meta>
            <text>
               <status value="generated"/>
               <div xmlns="http://www.w3.org/1999/xhtml">
                  <table>
                     <caption>Contact. Subject: J. XXX_Cevat. Id: MedMijHG_contactmoment06 (urn:oid:2.16.840.1.113883.2.4.3.111.19.1), Status: voltooid</caption>
                     <tbody>
                        <tr>
                           <th>Type contact</th>
                           <td>
                              <div>
                                 <span title="Ambulatory (AMB - v3/ActCode)">Ambulatory</span>
                              </div>
                              <span title="consult (03 - nhg-tabel-14-contactwijze)">consult</span>
                           </td>
                        </tr>
                        <tr>
                           <th>Periode</th>
                           <td>13:15:01 - 13:45:01 op 28 januari 2020</td>
                        </tr>
                        <tr>
                           <th>Participant</th>
                           <td>
                              <div>
                                 <span title="Performer (PRF - v3/ParticipationType)">Performer</span> - Huisarts 1 || Gezondheidscentrum Aesculaap</div>
                           </td>
                        </tr>
                        <tr>
                           <th>Zorgaanbieder</th>
                           <td>Gezondheidscentrum Aesculaap</td>
                        </tr>
                     </tbody>
                  </table>
               </div>
            </text>
            <identifier>
               <system value="urn:oid:2.16.840.1.113883.2.4.3.111.19.1"/>
               <value value="MedMijHG_contactmoment06"/>
            </identifier>
            <status value="finished"/>
            <class>
               <system value="http://hl7.org/fhir/v3/ActCode"/>
               <code value="AMB"/>
               <display value="Ambulatory"/>
            </class>
            <type>
               <coding>
                  <system value="https://referentiemodel.nhg.org/tabellen/nhg-tabel-14-contactwijze"/>
                  <version value="v3"/>
                  <code value="03"/>
                  <display value="consult"/>
               </coding>
            </type>
            <subject>
               <reference value="urn:uuid:df5eb880-c02f-11ea-1271-020000000000"/>
               <display value="J. XXX_Cevat"/>
            </subject>
            <episodeOfCare>
               <identifier>
                  <system value="urn:oid:2.16.840.1.113883.2.4.3.111.19.1"/>
                  <value value="MedMijHG_concern_R21.01"/>
               </identifier>
               <display value="Episode: MedMijHG_concern_R21.01 2.16.840.1.113883.2.4.3.111.19.1"/>
            </episodeOfCare>
            <participant>
               <type>
                  <coding>
                     <system value="http://hl7.org/fhir/v3/ParticipationType"/>
                     <code value="PRF"/>
                     <display value="Performer"/>
                  </coding>
               </type>
               <individual>
                  <extension url="http://nictiz.nl/fhir/StructureDefinition/practitionerrole-reference">
                     <valueReference>
                        <reference value="urn:uuid:df5eadb6-c02f-11ea-1271-020000000000"/>
                        <display value="Huisarts 1 || Gezondheidscentrum Aesculaap"/>
                     </valueReference>
                  </extension>
                  <reference value="urn:oid:2.16.528.1.1007.3.1.900016431"/>
                  <display value="Huisarts 1"/>
               </individual>
            </participant>
            <period>
               <start value="2020-01-28T13:15:01+01:00"/>
               <end value="2020-01-28T13:45:01+01:00"/>
            </period>
            <serviceProvider>
               <reference value="urn:oid:2.16.528.1.1007.3.3.2727"/>
               <display value="Gezondheidscentrum Aesculaap"/>
            </serviceProvider>
         </Encounter>
      </resource>
      <search>
         <mode value="include"/>
      </search>
   </entry>
   <entry>
      <fullUrl value="urn:uuid:df5eafff-c02f-11ea-1271-020000000000"/>
      <resource>
         <Encounter>
            <meta>
               <profile value="http://nictiz.nl/fhir/StructureDefinition/gp-Encounter"/>
            </meta>
            <text>
               <status value="generated"/>
               <div xmlns="http://www.w3.org/1999/xhtml">
                  <table>
                     <caption>Contact. Subject: J. XXX_Cevat. Id: MedMijHG_contactmomentMMK (urn:oid:2.16.840.1.113883.2.4.3.111.19.1), Status: voltooid</caption>
                     <tbody>
                        <tr>
                           <th>Type contact</th>
                           <td>
                              <div>
                                 <span title="Ambulatory (AMB - v3/ActCode)">Ambulatory</span>
                              </div>
                              <span title="consult (03 - nhg-tabel-14-contactwijze)">consult</span>
                           </td>
                        </tr>
                        <tr>
                           <th>Periode</th>
                           <td>13:15:01 - 13:45:01 op 18 januari 2020</td>
                        </tr>
                        <tr>
                           <th>Participant</th>
                           <td>
                              <div>
                                 <span title="Performer (PRF - v3/ParticipationType)">Performer</span> - Huisarts 1 || Gezondheidscentrum Aesculaap</div>
                           </td>
                        </tr>
                        <tr>
                           <th>Zorgaanbieder</th>
                           <td>Gezondheidscentrum Aesculaap</td>
                        </tr>
                     </tbody>
                  </table>
               </div>
            </text>
            <identifier>
               <system value="urn:oid:2.16.840.1.113883.2.4.3.111.19.1"/>
               <value value="MedMijHG_contactmomentMMK"/>
            </identifier>
            <status value="finished"/>
            <class>
               <system value="http://hl7.org/fhir/v3/ActCode"/>
               <code value="AMB"/>
               <display value="Ambulatory"/>
            </class>
            <type>
               <coding>
                  <system value="https://referentiemodel.nhg.org/tabellen/nhg-tabel-14-contactwijze"/>
                  <version value="v3"/>
                  <code value="03"/>
                  <display value="consult"/>
               </coding>
            </type>
            <subject>
               <reference value="urn:uuid:df5eb880-c02f-11ea-1271-020000000000"/>
               <display value="J. XXX_Cevat"/>
            </subject>
            <episodeOfCare>
               <identifier>
                  <system value="urn:oid:2.16.840.1.113883.2.4.3.111.19.1"/>
                  <value value="MedMijHG_concern_R96"/>
               </identifier>
               <display value="Episode: MedMijHG_concern_R96 2.16.840.1.113883.2.4.3.111.19.1"/>
            </episodeOfCare>
            <participant>
               <type>
                  <coding>
                     <system value="http://hl7.org/fhir/v3/ParticipationType"/>
                     <code value="PRF"/>
                     <display value="Performer"/>
                  </coding>
               </type>
               <individual>
                  <extension url="http://nictiz.nl/fhir/StructureDefinition/practitionerrole-reference">
                     <valueReference>
                        <reference value="urn:uuid:df5eadb6-c02f-11ea-1271-020000000000"/>
                        <display value="Huisarts 1 || Gezondheidscentrum Aesculaap"/>
                     </valueReference>
                  </extension>
                  <reference value="urn:oid:2.16.528.1.1007.3.1.900016431"/>
                  <display value="Huisarts 1"/>
               </individual>
            </participant>
            <period>
               <start value="2020-01-18T13:15:01+01:00"/>
               <end value="2020-01-18T13:45:01+01:00"/>
            </period>
            <serviceProvider>
               <reference value="urn:oid:2.16.528.1.1007.3.3.2727"/>
               <display value="Gezondheidscentrum Aesculaap"/>
            </serviceProvider>
         </Encounter>
      </resource>
      <search>
         <mode value="include"/>
      </search>
   </entry>
   <entry>
      <fullUrl value="urn:uuid:df5eb030-c02f-11ea-1271-020000000000"/>
      <resource>
         <Encounter>
            <meta>
               <profile value="http://nictiz.nl/fhir/StructureDefinition/gp-Encounter"/>
            </meta>
            <text>
               <status value="generated"/>
               <div xmlns="http://www.w3.org/1999/xhtml">
                  <table>
                     <caption>Contact. Subject: J. XXX_Cevat. Id: MedMijHG_contactmoment09 (urn:oid:2.16.840.1.113883.2.4.3.111.19.1), Status: voltooid</caption>
                     <tbody>
                        <tr>
                           <th>Type contact</th>
                           <td>
                              <div>
                                 <span title="Ambulatory (AMB - v3/ActCode)">Ambulatory</span>
                              </div>
                              <span title="consult (03 - nhg-tabel-14-contactwijze)">consult</span>
                           </td>
                        </tr>
                        <tr>
                           <th>Periode</th>
                           <td>13:15:01 - 13:45:01 op 8 januari 2020</td>
                        </tr>
                        <tr>
                           <th>Participant</th>
                           <td>
                              <div>
                                 <span title="Performer (PRF - v3/ParticipationType)">Performer</span> - Huisarts 1 || Gezondheidscentrum Aesculaap</div>
                           </td>
                        </tr>
                        <tr>
                           <th>Zorgaanbieder</th>
                           <td>Gezondheidscentrum Aesculaap</td>
                        </tr>
                     </tbody>
                  </table>
               </div>
            </text>
            <identifier>
               <system value="urn:oid:2.16.840.1.113883.2.4.3.111.19.1"/>
               <value value="MedMijHG_contactmoment09"/>
            </identifier>
            <status value="finished"/>
            <class>
               <system value="http://hl7.org/fhir/v3/ActCode"/>
               <code value="AMB"/>
               <display value="Ambulatory"/>
            </class>
            <type>
               <coding>
                  <system value="https://referentiemodel.nhg.org/tabellen/nhg-tabel-14-contactwijze"/>
                  <version value="v3"/>
                  <code value="03"/>
                  <display value="consult"/>
               </coding>
            </type>
            <subject>
               <reference value="urn:uuid:df5eb880-c02f-11ea-1271-020000000000"/>
               <display value="J. XXX_Cevat"/>
            </subject>
            <episodeOfCare>
               <identifier>
                  <system value="urn:oid:2.16.840.1.113883.2.4.3.111.19.1"/>
                  <value value="MedMijHG_concern_S74.01"/>
               </identifier>
               <display value="Episode: MedMijHG_concern_S74.01 2.16.840.1.113883.2.4.3.111.19.1"/>
            </episodeOfCare>
            <participant>
               <type>
                  <coding>
                     <system value="http://hl7.org/fhir/v3/ParticipationType"/>
                     <code value="PRF"/>
                     <display value="Performer"/>
                  </coding>
               </type>
               <individual>
                  <extension url="http://nictiz.nl/fhir/StructureDefinition/practitionerrole-reference">
                     <valueReference>
                        <reference value="urn:uuid:df5eadb6-c02f-11ea-1271-020000000000"/>
                        <display value="Huisarts 1 || Gezondheidscentrum Aesculaap"/>
                     </valueReference>
                  </extension>
                  <reference value="urn:oid:2.16.528.1.1007.3.1.900016431"/>
                  <display value="Huisarts 1"/>
               </individual>
            </participant>
            <period>
               <start value="2020-01-08T13:15:01+01:00"/>
               <end value="2020-01-08T13:45:01+01:00"/>
            </period>
            <serviceProvider>
               <reference value="urn:oid:2.16.528.1.1007.3.3.2727"/>
               <display value="Gezondheidscentrum Aesculaap"/>
            </serviceProvider>
         </Encounter>
      </resource>
      <search>
         <mode value="include"/>
      </search>
   </entry>
   <entry>
      <fullUrl value="urn:uuid:df5eb061-c02f-11ea-1271-020000000000"/>
      <resource>
         <Encounter>
            <meta>
               <profile value="http://nictiz.nl/fhir/StructureDefinition/gp-Encounter"/>
            </meta>
            <text>
               <status value="generated"/>
               <div xmlns="http://www.w3.org/1999/xhtml">
                  <table>
                     <caption>Contact. Subject: J. XXX_Cevat. Id: MedMijHG_contactmoment08 (urn:oid:2.16.840.1.113883.2.4.3.111.19.1), Status: voltooid</caption>
                     <tbody>
                        <tr>
                           <th>Type contact</th>
                           <td>
                              <div>
                                 <span title="Ambulatory (AMB - v3/ActCode)">Ambulatory</span>
                              </div>
                              <span title="consult (03 - nhg-tabel-14-contactwijze)">consult</span>
                           </td>
                        </tr>
                        <tr>
                           <th>Periode</th>
                           <td>13:15:01 - 13:45:01 op 3 januari 2020</td>
                        </tr>
                        <tr>
                           <th>Participant</th>
                           <td>
                              <div>
                                 <span title="Performer (PRF - v3/ParticipationType)">Performer</span> - Huisarts 1 || Gezondheidscentrum Aesculaap</div>
                           </td>
                        </tr>
                        <tr>
                           <th>Zorgaanbieder</th>
                           <td>Gezondheidscentrum Aesculaap</td>
                        </tr>
                     </tbody>
                  </table>
               </div>
            </text>
            <identifier>
               <system value="urn:oid:2.16.840.1.113883.2.4.3.111.19.1"/>
               <value value="MedMijHG_contactmoment08"/>
            </identifier>
            <status value="finished"/>
            <class>
               <system value="http://hl7.org/fhir/v3/ActCode"/>
               <code value="AMB"/>
               <display value="Ambulatory"/>
            </class>
            <type>
               <coding>
                  <system value="https://referentiemodel.nhg.org/tabellen/nhg-tabel-14-contactwijze"/>
                  <version value="v3"/>
                  <code value="03"/>
                  <display value="consult"/>
               </coding>
            </type>
            <subject>
               <reference value="urn:uuid:df5eb880-c02f-11ea-1271-020000000000"/>
               <display value="J. XXX_Cevat"/>
            </subject>
            <episodeOfCare>
               <identifier>
                  <system value="urn:oid:2.16.840.1.113883.2.4.3.111.19.1"/>
                  <value value="MedMijHG_concern_S04"/>
               </identifier>
               <display value="Episode: MedMijHG_concern_S04 2.16.840.1.113883.2.4.3.111.19.1"/>
            </episodeOfCare>
            <participant>
               <type>
                  <coding>
                     <system value="http://hl7.org/fhir/v3/ParticipationType"/>
                     <code value="PRF"/>
                     <display value="Performer"/>
                  </coding>
               </type>
               <individual>
                  <extension url="http://nictiz.nl/fhir/StructureDefinition/practitionerrole-reference">
                     <valueReference>
                        <reference value="urn:uuid:df5eadb6-c02f-11ea-1271-020000000000"/>
                        <display value="Huisarts 1 || Gezondheidscentrum Aesculaap"/>
                     </valueReference>
                  </extension>
                  <reference value="urn:oid:2.16.528.1.1007.3.1.900016431"/>
                  <display value="Huisarts 1"/>
               </individual>
            </participant>
            <period>
               <start value="2020-01-03T13:15:01+01:00"/>
               <end value="2020-01-03T13:45:01+01:00"/>
            </period>
            <serviceProvider>
               <reference value="urn:oid:2.16.528.1.1007.3.3.2727"/>
               <display value="Gezondheidscentrum Aesculaap"/>
            </serviceProvider>
         </Encounter>
      </resource>
      <search>
         <mode value="include"/>
      </search>
   </entry>
   <entry>
      <fullUrl value="urn:uuid:df5eb092-c02f-11ea-1271-020000000000"/>
      <resource>
         <Encounter>
            <meta>
               <profile value="http://nictiz.nl/fhir/StructureDefinition/gp-Encounter"/>
            </meta>
            <text>
               <status value="generated"/>
               <div xmlns="http://www.w3.org/1999/xhtml">
                  <table>
                     <caption>Contact. Subject: J. XXX_Cevat. Id: MedMijHG_contactmoment03 (urn:oid:2.16.840.1.113883.2.4.3.111.19.1), Status: voltooid</caption>
                     <tbody>
                        <tr>
                           <th>Type contact</th>
                           <td>
                              <div>
                                 <span title="Ambulatory (AMB - v3/ActCode)">Ambulatory</span>
                              </div>
                              <span title="consult (03 - nhg-tabel-14-contactwijze)">consult</span>
                           </td>
                        </tr>
                        <tr>
                           <th>Periode</th>
                           <td>14:15:01 - 14:45:01 op 2 juli 2019</td>
                        </tr>
                        <tr>
                           <th>Participant</th>
                           <td>
                              <div>
                                 <span title="Performer (PRF - v3/ParticipationType)">Performer</span> - Huisarts 1 || Gezondheidscentrum Aesculaap</div>
                           </td>
                        </tr>
                        <tr>
                           <th>Zorgaanbieder</th>
                           <td>Gezondheidscentrum Aesculaap</td>
                        </tr>
                     </tbody>
                  </table>
               </div>
            </text>
            <identifier>
               <system value="urn:oid:2.16.840.1.113883.2.4.3.111.19.1"/>
               <value value="MedMijHG_contactmoment03"/>
            </identifier>
            <status value="finished"/>
            <class>
               <system value="http://hl7.org/fhir/v3/ActCode"/>
               <code value="AMB"/>
               <display value="Ambulatory"/>
            </class>
            <type>
               <coding>
                  <system value="https://referentiemodel.nhg.org/tabellen/nhg-tabel-14-contactwijze"/>
                  <version value="v3"/>
                  <code value="03"/>
                  <display value="consult"/>
               </coding>
            </type>
            <subject>
               <reference value="urn:uuid:df5eb880-c02f-11ea-1271-020000000000"/>
               <display value="J. XXX_Cevat"/>
            </subject>
            <participant>
               <type>
                  <coding>
                     <system value="http://hl7.org/fhir/v3/ParticipationType"/>
                     <code value="PRF"/>
                     <display value="Performer"/>
                  </coding>
               </type>
               <individual>
                  <extension url="http://nictiz.nl/fhir/StructureDefinition/practitionerrole-reference">
                     <valueReference>
                        <reference value="urn:uuid:df5eadb6-c02f-11ea-1271-020000000000"/>
                        <display value="Huisarts 1 || Gezondheidscentrum Aesculaap"/>
                     </valueReference>
                  </extension>
                  <reference value="urn:oid:2.16.528.1.1007.3.1.900016431"/>
                  <display value="Huisarts 1"/>
               </individual>
            </participant>
            <period>
               <start value="2019-07-02T14:15:01+02:00"/>
               <end value="2019-07-02T14:45:01+02:00"/>
            </period>
            <serviceProvider>
               <reference value="urn:oid:2.16.528.1.1007.3.3.2727"/>
               <display value="Gezondheidscentrum Aesculaap"/>
            </serviceProvider>
         </Encounter>
      </resource>
      <search>
         <mode value="include"/>
      </search>
   </entry>
   <entry>
      <fullUrl value="urn:uuid:df5eb0be-c02f-11ea-1271-020000000000"/>
      <resource>
         <Encounter>
            <meta>
               <profile value="http://nictiz.nl/fhir/StructureDefinition/gp-Encounter"/>
            </meta>
            <text>
               <status value="generated"/>
               <div xmlns="http://www.w3.org/1999/xhtml">
                  <table>
                     <caption>Contact. Subject: J. XXX_Cevat. Id: MedMijHG_contactmoment02 (urn:oid:2.16.840.1.113883.2.4.3.111.19.1), Status: voltooid</caption>
                     <tbody>
                        <tr>
                           <th>Type contact</th>
                           <td>
                              <div>
                                 <span title="Ambulatory (AMB - v3/ActCode)">Ambulatory</span>
                              </div>
                              <span title="consult (03 - nhg-tabel-14-contactwijze)">consult</span>
                           </td>
                        </tr>
                        <tr>
                           <th>Periode</th>
                           <td>14:15:01 - 14:45:01 op 12 juni 2019</td>
                        </tr>
                        <tr>
                           <th>Participant</th>
                           <td>
                              <div>
                                 <span title="Performer (PRF - v3/ParticipationType)">Performer</span> - Huisarts 1 || Gezondheidscentrum Aesculaap</div>
                           </td>
                        </tr>
                        <tr>
                           <th>Zorgaanbieder</th>
                           <td>Gezondheidscentrum Aesculaap</td>
                        </tr>
                     </tbody>
                  </table>
               </div>
            </text>
            <identifier>
               <system value="urn:oid:2.16.840.1.113883.2.4.3.111.19.1"/>
               <value value="MedMijHG_contactmoment02"/>
            </identifier>
            <status value="finished"/>
            <class>
               <system value="http://hl7.org/fhir/v3/ActCode"/>
               <code value="AMB"/>
               <display value="Ambulatory"/>
            </class>
            <type>
               <coding>
                  <system value="https://referentiemodel.nhg.org/tabellen/nhg-tabel-14-contactwijze"/>
                  <version value="v3"/>
                  <code value="03"/>
                  <display value="consult"/>
               </coding>
            </type>
            <subject>
               <reference value="urn:uuid:df5eb880-c02f-11ea-1271-020000000000"/>
               <display value="J. XXX_Cevat"/>
            </subject>
            <participant>
               <type>
                  <coding>
                     <system value="http://hl7.org/fhir/v3/ParticipationType"/>
                     <code value="PRF"/>
                     <display value="Performer"/>
                  </coding>
               </type>
               <individual>
                  <extension url="http://nictiz.nl/fhir/StructureDefinition/practitionerrole-reference">
                     <valueReference>
                        <reference value="urn:uuid:df5eadb6-c02f-11ea-1271-020000000000"/>
                        <display value="Huisarts 1 || Gezondheidscentrum Aesculaap"/>
                     </valueReference>
                  </extension>
                  <reference value="urn:oid:2.16.528.1.1007.3.1.900016431"/>
                  <display value="Huisarts 1"/>
               </individual>
            </participant>
            <period>
               <start value="2019-06-12T14:15:01+02:00"/>
               <end value="2019-06-12T14:45:01+02:00"/>
            </period>
            <serviceProvider>
               <reference value="urn:oid:2.16.528.1.1007.3.3.2727"/>
               <display value="Gezondheidscentrum Aesculaap"/>
            </serviceProvider>
         </Encounter>
      </resource>
      <search>
         <mode value="include"/>
      </search>
   </entry>
   <entry>
      <fullUrl value="urn:uuid:df5eb0e9-c02f-11ea-1271-020000000000"/>
      <resource>
         <Encounter>
            <meta>
               <profile value="http://nictiz.nl/fhir/StructureDefinition/gp-Encounter"/>
            </meta>
            <text>
               <status value="generated"/>
               <div xmlns="http://www.w3.org/1999/xhtml">
                  <table>
                     <caption>Contact. Subject: J. XXX_Cevat. Id: MedMijHG_contactmoment01 (urn:oid:2.16.840.1.113883.2.4.3.111.19.1), Status: voltooid</caption>
                     <tbody>
                        <tr>
                           <th>Type contact</th>
                           <td>
                              <div>
                                 <span title="Ambulatory (AMB - v3/ActCode)">Ambulatory</span>
                              </div>
                              <span title="consult (03 - nhg-tabel-14-contactwijze)">consult</span>
                           </td>
                        </tr>
                        <tr>
                           <th>Periode</th>
                           <td>14:15:01 - 14:45:01 op 23 mei 2019</td>
                        </tr>
                        <tr>
                           <th>Participant</th>
                           <td>
                              <div>
                                 <span title="Performer (PRF - v3/ParticipationType)">Performer</span> - Huisarts 1 || Gezondheidscentrum Aesculaap</div>
                           </td>
                        </tr>
                        <tr>
                           <th>Zorgaanbieder</th>
                           <td>Gezondheidscentrum Aesculaap</td>
                        </tr>
                     </tbody>
                  </table>
               </div>
            </text>
            <identifier>
               <system value="urn:oid:2.16.840.1.113883.2.4.3.111.19.1"/>
               <value value="MedMijHG_contactmoment01"/>
            </identifier>
            <status value="finished"/>
            <class>
               <system value="http://hl7.org/fhir/v3/ActCode"/>
               <code value="AMB"/>
               <display value="Ambulatory"/>
            </class>
            <type>
               <coding>
                  <system value="https://referentiemodel.nhg.org/tabellen/nhg-tabel-14-contactwijze"/>
                  <version value="v3"/>
                  <code value="03"/>
                  <display value="consult"/>
               </coding>
            </type>
            <subject>
               <reference value="urn:uuid:df5eb880-c02f-11ea-1271-020000000000"/>
               <display value="J. XXX_Cevat"/>
            </subject>
            <episodeOfCare>
               <identifier>
                  <system value="urn:oid:2.16.840.1.113883.2.4.3.111.19.1"/>
                  <value value="MedMijHG_concern_K78"/>
               </identifier>
               <display value="Episode: MedMijHG_concern_K78 2.16.840.1.113883.2.4.3.111.19.1"/>
            </episodeOfCare>
            <participant>
               <type>
                  <coding>
                     <system value="http://hl7.org/fhir/v3/ParticipationType"/>
                     <code value="PRF"/>
                     <display value="Performer"/>
                  </coding>
               </type>
               <individual>
                  <extension url="http://nictiz.nl/fhir/StructureDefinition/practitionerrole-reference">
                     <valueReference>
                        <reference value="urn:uuid:df5eadb6-c02f-11ea-1271-020000000000"/>
                        <display value="Huisarts 1 || Gezondheidscentrum Aesculaap"/>
                     </valueReference>
                  </extension>
                  <reference value="urn:oid:2.16.528.1.1007.3.1.900016431"/>
                  <display value="Huisarts 1"/>
               </individual>
            </participant>
            <period>
               <start value="2019-05-23T14:15:01+02:00"/>
               <end value="2019-05-23T14:45:01+02:00"/>
            </period>
            <serviceProvider>
               <reference value="urn:oid:2.16.528.1.1007.3.3.2727"/>
               <display value="Gezondheidscentrum Aesculaap"/>
            </serviceProvider>
         </Encounter>
      </resource>
      <search>
         <mode value="include"/>
      </search>
   </entry>
   <entry>
      <fullUrl value="urn:uuid:df5eb880-c02f-11ea-1271-020000000000"/>
      <resource>
         <Patient>
            <meta>
               <profile value="http://fhir.nl/fhir/StructureDefinition/nl-core-patient"/>
            </meta>
            <text>
               <status value="generated"/>
               <div xmlns="http://www.w3.org/1999/xhtml">
                  <div>Id <i>afgeschermd (ontbrekend gegeven)</i> (BSN), J. XXX_Cevat, Man, 30 december 1985</div>
                  <div>Knolweg 1003, 9999ZA STITSWERD, Nederland ()</div>
               </div>
            </text>
            <identifier>
               <system value="http://fhir.nl/fhir/NamingSystem/bsn"/>
               <value>
                  <extension url="http://hl7.org/fhir/StructureDefinition/data-absent-reason">
                     <valueCode value="masked"/>
                  </extension>
               </value>
            </identifier>
            <name>
               <extension url="http://hl7.org/fhir/StructureDefinition/humanname-assembly-order">
                  <valueCode value="NL1"/>
               </extension>
               <family value="XXX_Cevat">
                  <extension url="http://hl7.org/fhir/StructureDefinition/humanname-own-name">
                     <valueString value="XXX_Cevat"/>
                  </extension>
               </family>
               <given value="J.">
                  <extension url="http://hl7.org/fhir/StructureDefinition/iso21090-EN-qualifier">
                     <valueCode value="IN"/>
                  </extension>
               </given>
            </name>
            <gender value="male"/>
            <birthDate value="1985-12-30"/>
            <address>
               <line value="Knolweg 1003">
                  <extension url="http://hl7.org/fhir/StructureDefinition/iso21090-ADXP-streetName">
                     <valueString value="Knolweg"/>
                  </extension>
                  <extension url="http://hl7.org/fhir/StructureDefinition/iso21090-ADXP-houseNumber">
                     <valueString value="1003"/>
                  </extension>
               </line>
               <city value="STITSWERD"/>
               <postalCode value="9999ZA"/>
               <country value="Nederland"/>
            </address>
         </Patient>
      </resource>
      <search>
         <mode value="include"/>
      </search>
   </entry>
   <entry>
      <fullUrl value="urn:oid:2.16.528.1.1007.3.1.900016431"/>
      <resource>
         <Practitioner>
            <meta>
               <profile value="http://fhir.nl/fhir/StructureDefinition/nl-core-practitioner"/>
            </meta>
            <text>
               <status value="generated"/>
               <div xmlns="http://www.w3.org/1999/xhtml">
                  <div>Id 900016431 (UZI-NR-PERS), Huisarts 1</div>
               </div>
            </text>
            <identifier>
               <system value="http://fhir.nl/fhir/NamingSystem/uzi-nr-pers"/>
               <value value="900016431"/>
            </identifier>
            <name>
               <extension url="http://hl7.org/fhir/StructureDefinition/humanname-assembly-order">
                  <valueCode value="NL1"/>
               </extension>
               <family value="Huisarts 1">
                  <extension url="http://hl7.org/fhir/StructureDefinition/humanname-own-name">
                     <valueString value="Huisarts 1"/>
                  </extension>
               </family>
            </name>
         </Practitioner>
      </resource>
      <search>
         <mode value="include"/>
      </search>
   </entry>
   <entry>
      <fullUrl value="urn:oid:2.16.528.1.1007.3.3.2727"/>
      <resource>
         <Organization>
            <meta>
               <profile value="http://fhir.nl/fhir/StructureDefinition/nl-core-organization"/>
            </meta>
            <text>
               <status value="generated"/>
               <div xmlns="http://www.w3.org/1999/xhtml">
                  <table>
                     <caption>OrganisatieId: 00002727 (URA)</caption>
                     <tbody>
                        <tr>
                           <th>Naam</th>
                           <td>Gezondheidscentrum Aesculaap</td>
                        </tr>
                     </tbody>
                  </table>
               </div>
            </text>
            <identifier>
               <system value="http://fhir.nl/fhir/NamingSystem/ura"/>
               <value value="00002727"/>
            </identifier>
            <name value="Gezondheidscentrum Aesculaap"/>
         </Organization>
      </resource>
      <search>
         <mode value="include"/>
      </search>
   </entry>
   <entry>
      <fullUrl value="urn:uuid:df5eb8aa-c02f-11ea-1271-020000000000"/>
      <resource>
         <PractitionerRole>
            <meta>
               <profile value="http://fhir.nl/fhir/StructureDefinition/nl-core-practitionerrole"/>
            </meta>
            <text>
               <status value="generated"/>
               <div xmlns="http://www.w3.org/1999/xhtml">
                  <table>
                     <caption>Zorgverlenerrol</caption>
                     <tbody>
                        <tr>
                           <th>Zorgverlener</th>
                           <td>
                              <div>Huisarts 1</div>
                              <div>Gezondheidscentrum Aesculaap</div>
                           </td>
                        </tr>
                        <tr>
                           <th>Specialisme</th>
                           <td>01.015 (http://fhir.nl/fhir/NamingSystem/uzi-rolcode)</td>
                        </tr>
                     </tbody>
                  </table>
               </div>
            </text>
            <practitioner>
               <reference value="urn:oid:2.16.528.1.1007.3.1.900016431"/>
               <display value="Huisarts 1"/>
            </practitioner>
            <organization>
               <reference value="urn:oid:2.16.528.1.1007.3.3.2727"/>
               <display value="Gezondheidscentrum Aesculaap"/>
            </organization>
            <specialty>
               <coding>
                  <system value="http://fhir.nl/fhir/NamingSystem/uzi-rolcode"/>
                  <code value="01.015"/>
               </coding>
            </specialty>
         </PractitionerRole>
      </resource>
      <search>
         <mode value="include"/>
      </search>
   </entry>
   <entry>
      <fullUrl value="urn:uuid:df5eadb6-c02f-11ea-1271-020000000000"/>
      <resource>
         <PractitionerRole>
            <meta>
               <profile value="http://fhir.nl/fhir/StructureDefinition/nl-core-practitionerrole"/>
            </meta>
            <text>
               <status value="generated"/>
               <div xmlns="http://www.w3.org/1999/xhtml">
                  <table>
                     <caption>Zorgverlenerrol</caption>
                     <tbody>
                        <tr>
                           <th>Zorgverlener</th>
                           <td>
                              <div>Huisarts 1</div>
                              <div>Gezondheidscentrum Aesculaap</div>
                           </td>
                        </tr>
                        <tr>
                           <th>Specialisme</th>
                           <td>01.015 (http://fhir.nl/fhir/NamingSystem/uzi-rolcode)</td>
                        </tr>
                     </tbody>
                  </table>
               </div>
            </text>
            <practitioner>
               <reference value="urn:oid:2.16.528.1.1007.3.1.900016431"/>
               <display value="Huisarts 1"/>
            </practitioner>
            <organization>
               <reference value="urn:oid:2.16.528.1.1007.3.3.2727"/>
               <display value="Gezondheidscentrum Aesculaap"/>
            </organization>
            <specialty>
               <coding>
                  <system value="http://fhir.nl/fhir/NamingSystem/uzi-rolcode"/>
                  <code value="01.015"/>
               </coding>
            </specialty>
         </PractitionerRole>
      </resource>
      <search>
         <mode value="include"/>
      </search>
   </entry>
   <entry>
      <fullUrl value="urn:uuid:df5eacb2-c02f-11ea-1271-020000000000"/>
      <resource>
         <Observation>
            <meta>
               <profile value="http://nictiz.nl/fhir/StructureDefinition/gp-JournalEntry"/>
            </meta>
            <text>
               <status value="generated"/>
               <div xmlns="http://www.w3.org/1999/xhtml">
                  <table>
                     <caption>Observatie/bepaling. Subject: J. XXX_Cevat. Status: definitief</caption>
                     <tbody>
                        <tr>
                           <th>Context</th>
                           <td>Contact ID: MedMijHG_contactmoment13 2.16.840.1.113883.2.4.3.111.19.1 (Id: MedMijHG_contactmoment13 (urn:oid:2.16.840.1.113883.2.4.3.111.19.1))</td>
                        </tr>
                        <tr>
                           <th>Code</th>
                           <th>Waarde</th>
                        </tr>
                        <tr>
                           <td>
                              <span title="Evaluatie (E - http://fhir.nl/fhir/NamingSystem/journaalregeltypen)">Evaluatie</span>
                           </td>
                           <td>Keelpijn eci.</td>
                        </tr>
                        <tr>
                           <td>
                              <span title="discharge diagnosis (DISDX - v3/ActCode)">discharge diagnosis</span>
                           </td>
                           <td>
                              <span title="Keelpijn (R21.01 - sid/icpc-1-nl)">Keelpijn</span>
                           </td>
                        </tr>
                     </tbody>
                  </table>
               </div>
            </text>
            <status value="final"/>
            <code>
               <coding>
                  <system value="http://fhir.nl/fhir/NamingSystem/journaalregeltypen"/>
                  <code value="E"/>
                  <display value="Evaluatie"/>
               </coding>
            </code>
            <subject>
               <reference value="urn:uuid:df5eb880-c02f-11ea-1271-020000000000"/>
               <display value="J. XXX_Cevat"/>
            </subject>
            <context>
               <identifier>
                  <system value="urn:oid:2.16.840.1.113883.2.4.3.111.19.1"/>
                  <value value="MedMijHG_contactmoment13"/>
               </identifier>
               <display value="Contact ID: MedMijHG_contactmoment13 2.16.840.1.113883.2.4.3.111.19.1"/>
            </context>
            <valueString value="Keelpijn eci."/>
            <component>
               <code>
                  <coding>
                     <system value="http://hl7.org/fhir/v3/ActCode"/>
                     <code value="DISDX"/>
                     <display value="discharge diagnosis"/>
                  </coding>
               </code>
               <valueCodeableConcept>
                  <coding>
                     <system value="http://hl7.org/fhir/sid/icpc-1-nl"/>
                     <code value="R21.01"/>
                     <display value="Keelpijn"/>
                  </coding>
               </valueCodeableConcept>
            </component>
         </Observation>
      </resource>
      <search>
         <mode value="include"/>
      </search>
   </entry>
   <entry>
      <fullUrl value="urn:uuid:df5eacf7-c02f-11ea-1271-020000000000"/>
      <resource>
         <Observation>
            <meta>
               <profile value="http://nictiz.nl/fhir/StructureDefinition/gp-JournalEntry"/>
            </meta>
            <text>
               <status value="generated"/>
               <div xmlns="http://www.w3.org/1999/xhtml">
                  <table>
                     <caption>Observatie/bepaling. Subject: J. XXX_Cevat. Status: definitief</caption>
                     <tbody>
                        <tr>
                           <th>Context</th>
                           <td>Contact ID: MedMijHG_contactmoment17 2.16.840.1.113883.2.4.3.111.19.1 (Id: MedMijHG_contactmoment17 (urn:oid:2.16.840.1.113883.2.4.3.111.19.1))</td>
                        </tr>
                        <tr>
                           <th>Code</th>
                           <th>Waarde</th>
                        </tr>
                        <tr>
                           <td>
                              <span title="Evaluatie (E - http://fhir.nl/fhir/NamingSystem/journaalregeltypen)">Evaluatie</span>
                           </td>
                           <td>HNP</td>
                        </tr>
                        <tr>
                           <td>
                              <span title="discharge diagnosis (DISDX - v3/ActCode)">discharge diagnosis</span>
                           </td>
                           <td>
                              <span title="HNP (thoracaal/lumbaal) (L86.01 - sid/icpc-1-nl)">HNP (thoracaal/lumbaal)</span>
                           </td>
                        </tr>
                     </tbody>
                  </table>
               </div>
            </text>
            <status value="final"/>
            <code>
               <coding>
                  <system value="http://fhir.nl/fhir/NamingSystem/journaalregeltypen"/>
                  <code value="E"/>
                  <display value="Evaluatie"/>
               </coding>
            </code>
            <subject>
               <reference value="urn:uuid:df5eb880-c02f-11ea-1271-020000000000"/>
               <display value="J. XXX_Cevat"/>
            </subject>
            <context>
               <identifier>
                  <system value="urn:oid:2.16.840.1.113883.2.4.3.111.19.1"/>
                  <value value="MedMijHG_contactmoment17"/>
               </identifier>
               <display value="Contact ID: MedMijHG_contactmoment17 2.16.840.1.113883.2.4.3.111.19.1"/>
            </context>
            <valueString value="HNP"/>
            <component>
               <code>
                  <coding>
                     <system value="http://hl7.org/fhir/v3/ActCode"/>
                     <code value="DISDX"/>
                     <display value="discharge diagnosis"/>
                  </coding>
               </code>
               <valueCodeableConcept>
                  <coding>
                     <system value="http://hl7.org/fhir/sid/icpc-1-nl"/>
                     <code value="L86.01"/>
                     <display value="HNP (thoracaal/lumbaal)"/>
                  </coding>
               </valueCodeableConcept>
            </component>
         </Observation>
      </resource>
      <search>
         <mode value="include"/>
      </search>
   </entry>
   <entry>
      <fullUrl value="urn:uuid:df5ead0e-c02f-11ea-1271-020000000000"/>
      <resource>
         <Observation>
            <meta>
               <profile value="http://nictiz.nl/fhir/StructureDefinition/gp-JournalEntry"/>
            </meta>
            <text>
               <status value="generated"/>
               <div xmlns="http://www.w3.org/1999/xhtml">
                  <table>
                     <caption>Observatie/bepaling. Subject: J. XXX_Cevat. Status: definitief</caption>
                     <tbody>
                        <tr>
                           <th>Context</th>
                           <td>Contact ID: MedMijHG_contactmoment17 2.16.840.1.113883.2.4.3.111.19.1 (Id: MedMijHG_contactmoment17 (urn:oid:2.16.840.1.113883.2.4.3.111.19.1))</td>
                        </tr>
                        <tr>
                           <th>Code</th>
                           <th>Waarde</th>
                        </tr>
                        <tr>
                           <td>
                              <span title="Plan (P - http://fhir.nl/fhir/NamingSystem/journaalregeltypen)">Plan</span>
                           </td>
                           <td>Nogmaals verwijzing Cesar</td>
                        </tr>
                     </tbody>
                  </table>
               </div>
            </text>
            <status value="final"/>
            <code>
               <coding>
                  <system value="http://fhir.nl/fhir/NamingSystem/journaalregeltypen"/>
                  <code value="P"/>
                  <display value="Plan"/>
               </coding>
            </code>
            <subject>
               <reference value="urn:uuid:df5eb880-c02f-11ea-1271-020000000000"/>
               <display value="J. XXX_Cevat"/>
            </subject>
            <context>
               <identifier>
                  <system value="urn:oid:2.16.840.1.113883.2.4.3.111.19.1"/>
                  <value value="MedMijHG_contactmoment17"/>
               </identifier>
               <display value="Contact ID: MedMijHG_contactmoment17 2.16.840.1.113883.2.4.3.111.19.1"/>
            </context>
            <valueString value="Nogmaals verwijzing Cesar"/>
         </Observation>
      </resource>
      <search>
         <mode value="include"/>
      </search>
   </entry>
   <entry>
      <fullUrl value="urn:uuid:df5ead40-c02f-11ea-1271-020000000000"/>
      <resource>
         <Observation>
            <meta>
               <profile value="http://nictiz.nl/fhir/StructureDefinition/gp-JournalEntry"/>
            </meta>
            <text>
               <status value="generated"/>
               <div xmlns="http://www.w3.org/1999/xhtml">
                  <table>
                     <caption>Observatie/bepaling. Subject: J. XXX_Cevat. Status: definitief</caption>
                     <tbody>
                        <tr>
                           <th>Context</th>
                           <td>Contact ID: MedMijHG_contactmoment12 2.16.840.1.113883.2.4.3.111.19.1 (Id: MedMijHG_contactmoment12 (urn:oid:2.16.840.1.113883.2.4.3.111.19.1))</td>
                        </tr>
                        <tr>
                           <th>Code</th>
                           <th>Waarde</th>
                        </tr>
                        <tr>
                           <td>
                              <span title="Evaluatie (E - http://fhir.nl/fhir/NamingSystem/journaalregeltypen)">Evaluatie</span>
                           </td>
                           <td>Keelpijn eci.</td>
                        </tr>
                        <tr>
                           <td>
                              <span title="discharge diagnosis (DISDX - v3/ActCode)">discharge diagnosis</span>
                           </td>
                           <td>
                              <span title="Keelpijn (R21.01 - sid/icpc-1-nl)">Keelpijn</span>
                           </td>
                        </tr>
                     </tbody>
                  </table>
               </div>
            </text>
            <status value="final"/>
            <code>
               <coding>
                  <system value="http://fhir.nl/fhir/NamingSystem/journaalregeltypen"/>
                  <code value="E"/>
                  <display value="Evaluatie"/>
               </coding>
            </code>
            <subject>
               <reference value="urn:uuid:df5eb880-c02f-11ea-1271-020000000000"/>
               <display value="J. XXX_Cevat"/>
            </subject>
            <context>
               <identifier>
                  <system value="urn:oid:2.16.840.1.113883.2.4.3.111.19.1"/>
                  <value value="MedMijHG_contactmoment12"/>
               </identifier>
               <display value="Contact ID: MedMijHG_contactmoment12 2.16.840.1.113883.2.4.3.111.19.1"/>
            </context>
            <valueString value="Keelpijn eci."/>
            <component>
               <code>
                  <coding>
                     <system value="http://hl7.org/fhir/v3/ActCode"/>
                     <code value="DISDX"/>
                     <display value="discharge diagnosis"/>
                  </coding>
               </code>
               <valueCodeableConcept>
                  <coding>
                     <system value="http://hl7.org/fhir/sid/icpc-1-nl"/>
                     <code value="R21.01"/>
                     <display value="Keelpijn"/>
                  </coding>
               </valueCodeableConcept>
            </component>
         </Observation>
      </resource>
      <search>
         <mode value="include"/>
      </search>
   </entry>
   <entry>
      <fullUrl value="urn:uuid:df5ead57-c02f-11ea-1271-020000000000"/>
      <resource>
         <Observation>
            <meta>
               <profile value="http://nictiz.nl/fhir/StructureDefinition/gp-JournalEntry"/>
            </meta>
            <text>
               <status value="generated"/>
               <div xmlns="http://www.w3.org/1999/xhtml">
                  <table>
                     <caption>Observatie/bepaling. Subject: J. XXX_Cevat. Status: definitief</caption>
                     <tbody>
                        <tr>
                           <th>Context</th>
                           <td>Contact ID: MedMijHG_contactmoment12 2.16.840.1.113883.2.4.3.111.19.1 (Id: MedMijHG_contactmoment12 (urn:oid:2.16.840.1.113883.2.4.3.111.19.1))</td>
                        </tr>
                        <tr>
                           <th>Code</th>
                           <th>Waarde</th>
                        </tr>
                        <tr>
                           <td>
                              <span title="Plan (P - http://fhir.nl/fhir/NamingSystem/journaalregeltypen)">Plan</span>
                           </td>
                           <td>Bezoek brengen aan de tandarts, wellicht zit er daar iets.</td>
                        </tr>
                     </tbody>
                  </table>
               </div>
            </text>
            <status value="final"/>
            <code>
               <coding>
                  <system value="http://fhir.nl/fhir/NamingSystem/journaalregeltypen"/>
                  <code value="P"/>
                  <display value="Plan"/>
               </coding>
            </code>
            <subject>
               <reference value="urn:uuid:df5eb880-c02f-11ea-1271-020000000000"/>
               <display value="J. XXX_Cevat"/>
            </subject>
            <context>
               <identifier>
                  <system value="urn:oid:2.16.840.1.113883.2.4.3.111.19.1"/>
                  <value value="MedMijHG_contactmoment12"/>
               </identifier>
               <display value="Contact ID: MedMijHG_contactmoment12 2.16.840.1.113883.2.4.3.111.19.1"/>
            </context>
            <valueString value="Bezoek brengen aan de tandarts, wellicht zit er daar iets."/>
         </Observation>
      </resource>
      <search>
         <mode value="include"/>
      </search>
   </entry>
   <entry>
      <fullUrl value="urn:uuid:df5ead89-c02f-11ea-1271-020000000000"/>
      <resource>
         <Observation>
            <meta>
               <profile value="http://nictiz.nl/fhir/StructureDefinition/gp-JournalEntry"/>
            </meta>
            <text>
               <status value="generated"/>
               <div xmlns="http://www.w3.org/1999/xhtml">
                  <table>
                     <caption>Observatie/bepaling. Subject: J. XXX_Cevat. Status: definitief</caption>
                     <tbody>
                        <tr>
                           <th>Context</th>
                           <td>Contact ID: MedMijHG_contactmoment16 2.16.840.1.113883.2.4.3.111.19.1 (Id: MedMijHG_contactmoment16 (urn:oid:2.16.840.1.113883.2.4.3.111.19.1))</td>
                        </tr>
                        <tr>
                           <th>Code</th>
                           <th>Waarde</th>
                        </tr>
                        <tr>
                           <td>
                              <span title="Evaluatie (E - http://fhir.nl/fhir/NamingSystem/journaalregeltypen)">Evaluatie</span>
                           </td>
                           <td>HNP</td>
                        </tr>
                        <tr>
                           <td>
                              <span title="discharge diagnosis (DISDX - v3/ActCode)">discharge diagnosis</span>
                           </td>
                           <td>
                              <span title="HNP (thoracaal/lumbaal) (L86.01 - sid/icpc-1-nl)">HNP (thoracaal/lumbaal)</span>
                           </td>
                        </tr>
                     </tbody>
                  </table>
               </div>
            </text>
            <status value="final"/>
            <code>
               <coding>
                  <system value="http://fhir.nl/fhir/NamingSystem/journaalregeltypen"/>
                  <code value="E"/>
                  <display value="Evaluatie"/>
               </coding>
            </code>
            <subject>
               <reference value="urn:uuid:df5eb880-c02f-11ea-1271-020000000000"/>
               <display value="J. XXX_Cevat"/>
            </subject>
            <context>
               <identifier>
                  <system value="urn:oid:2.16.840.1.113883.2.4.3.111.19.1"/>
                  <value value="MedMijHG_contactmoment16"/>
               </identifier>
               <display value="Contact ID: MedMijHG_contactmoment16 2.16.840.1.113883.2.4.3.111.19.1"/>
            </context>
            <valueString value="HNP"/>
            <component>
               <code>
                  <coding>
                     <system value="http://hl7.org/fhir/v3/ActCode"/>
                     <code value="DISDX"/>
                     <display value="discharge diagnosis"/>
                  </coding>
               </code>
               <valueCodeableConcept>
                  <coding>
                     <system value="http://hl7.org/fhir/sid/icpc-1-nl"/>
                     <code value="L86.01"/>
                     <display value="HNP (thoracaal/lumbaal)"/>
                  </coding>
               </valueCodeableConcept>
            </component>
         </Observation>
      </resource>
      <search>
         <mode value="include"/>
      </search>
   </entry>
   <entry>
      <fullUrl value="urn:uuid:df5eada0-c02f-11ea-1271-020000000000"/>
      <resource>
         <Observation>
            <meta>
               <profile value="http://nictiz.nl/fhir/StructureDefinition/gp-JournalEntry"/>
            </meta>
            <text>
               <status value="generated"/>
               <div xmlns="http://www.w3.org/1999/xhtml">
                  <table>
                     <caption>Observatie/bepaling. Subject: J. XXX_Cevat. Status: definitief</caption>
                     <tbody>
                        <tr>
                           <th>Context</th>
                           <td>Contact ID: MedMijHG_contactmoment16 2.16.840.1.113883.2.4.3.111.19.1 (Id: MedMijHG_contactmoment16 (urn:oid:2.16.840.1.113883.2.4.3.111.19.1))</td>
                        </tr>
                        <tr>
                           <th>Code</th>
                           <th>Waarde</th>
                        </tr>
                        <tr>
                           <td>
                              <span title="Plan (P - http://fhir.nl/fhir/NamingSystem/journaalregeltypen)">Plan</span>
                           </td>
                           <td>Patiënt geïnformeerd, ziet het nog even aan.</td>
                        </tr>
                     </tbody>
                  </table>
               </div>
            </text>
            <status value="final"/>
            <code>
               <coding>
                  <system value="http://fhir.nl/fhir/NamingSystem/journaalregeltypen"/>
                  <code value="P"/>
                  <display value="Plan"/>
               </coding>
            </code>
            <subject>
               <reference value="urn:uuid:df5eb880-c02f-11ea-1271-020000000000"/>
               <display value="J. XXX_Cevat"/>
            </subject>
            <context>
               <identifier>
                  <system value="urn:oid:2.16.840.1.113883.2.4.3.111.19.1"/>
                  <value value="MedMijHG_contactmoment16"/>
               </identifier>
               <display value="Contact ID: MedMijHG_contactmoment16 2.16.840.1.113883.2.4.3.111.19.1"/>
            </context>
            <valueString value="Patiënt geïnformeerd, ziet het nog even aan."/>
         </Observation>
      </resource>
      <search>
         <mode value="include"/>
      </search>
   </entry>
   <entry>
      <fullUrl value="urn:uuid:df5eadd3-c02f-11ea-1271-020000000000"/>
      <resource>
         <Observation>
            <meta>
               <profile value="http://nictiz.nl/fhir/StructureDefinition/gp-JournalEntry"/>
            </meta>
            <text>
               <status value="generated"/>
               <div xmlns="http://www.w3.org/1999/xhtml">
                  <table>
                     <caption>Observatie/bepaling. Subject: J. XXX_Cevat. Status: definitief</caption>
                     <tbody>
                        <tr>
                           <th>Context</th>
                           <td>Contact ID: MedMijHG_contactmoment15 2.16.840.1.113883.2.4.3.111.19.1 (Id: MedMijHG_contactmoment15 (urn:oid:2.16.840.1.113883.2.4.3.111.19.1))</td>
                        </tr>
                        <tr>
                           <th>Code</th>
                           <th>Waarde</th>
                        </tr>
                        <tr>
                           <td>
                              <span title="Evaluatie (E - http://fhir.nl/fhir/NamingSystem/journaalregeltypen)">Evaluatie</span>
                           </td>
                           <td>HNP</td>
                        </tr>
                        <tr>
                           <td>
                              <span title="discharge diagnosis (DISDX - v3/ActCode)">discharge diagnosis</span>
                           </td>
                           <td>
                              <span title="HNP (thoracaal/lumbaal) (L86.01 - sid/icpc-1-nl)">HNP (thoracaal/lumbaal)</span>
                           </td>
                        </tr>
                     </tbody>
                  </table>
               </div>
            </text>
            <status value="final"/>
            <code>
               <coding>
                  <system value="http://fhir.nl/fhir/NamingSystem/journaalregeltypen"/>
                  <code value="E"/>
                  <display value="Evaluatie"/>
               </coding>
            </code>
            <subject>
               <reference value="urn:uuid:df5eb880-c02f-11ea-1271-020000000000"/>
               <display value="J. XXX_Cevat"/>
            </subject>
            <context>
               <identifier>
                  <system value="urn:oid:2.16.840.1.113883.2.4.3.111.19.1"/>
                  <value value="MedMijHG_contactmoment15"/>
               </identifier>
               <display value="Contact ID: MedMijHG_contactmoment15 2.16.840.1.113883.2.4.3.111.19.1"/>
            </context>
            <valueString value="HNP"/>
            <component>
               <code>
                  <coding>
                     <system value="http://hl7.org/fhir/v3/ActCode"/>
                     <code value="DISDX"/>
                     <display value="discharge diagnosis"/>
                  </coding>
               </code>
               <valueCodeableConcept>
                  <coding>
                     <system value="http://hl7.org/fhir/sid/icpc-1-nl"/>
                     <code value="L86.01"/>
                     <display value="HNP (thoracaal/lumbaal)"/>
                  </coding>
               </valueCodeableConcept>
            </component>
         </Observation>
      </resource>
      <search>
         <mode value="include"/>
      </search>
   </entry>
   <entry>
      <fullUrl value="urn:uuid:df5eadea-c02f-11ea-1271-020000000000"/>
      <resource>
         <Observation>
            <meta>
               <profile value="http://nictiz.nl/fhir/StructureDefinition/gp-JournalEntry"/>
            </meta>
            <text>
               <status value="generated"/>
               <div xmlns="http://www.w3.org/1999/xhtml">
                  <table>
                     <caption>Observatie/bepaling. Subject: J. XXX_Cevat. Status: definitief</caption>
                     <tbody>
                        <tr>
                           <th>Context</th>
                           <td>Contact ID: MedMijHG_contactmoment15 2.16.840.1.113883.2.4.3.111.19.1 (Id: MedMijHG_contactmoment15 (urn:oid:2.16.840.1.113883.2.4.3.111.19.1))</td>
                        </tr>
                        <tr>
                           <th>Code</th>
                           <th>Waarde</th>
                        </tr>
                        <tr>
                           <td>
                              <span title="Plan (P - http://fhir.nl/fhir/NamingSystem/journaalregeltypen)">Plan</span>
                           </td>
                           <td>Scan laten maken, afspraak gepland.</td>
                        </tr>
                     </tbody>
                  </table>
               </div>
            </text>
            <status value="final"/>
            <code>
               <coding>
                  <system value="http://fhir.nl/fhir/NamingSystem/journaalregeltypen"/>
                  <code value="P"/>
                  <display value="Plan"/>
               </coding>
            </code>
            <subject>
               <reference value="urn:uuid:df5eb880-c02f-11ea-1271-020000000000"/>
               <display value="J. XXX_Cevat"/>
            </subject>
            <context>
               <identifier>
                  <system value="urn:oid:2.16.840.1.113883.2.4.3.111.19.1"/>
                  <value value="MedMijHG_contactmoment15"/>
               </identifier>
               <display value="Contact ID: MedMijHG_contactmoment15 2.16.840.1.113883.2.4.3.111.19.1"/>
            </context>
            <valueString value="Scan laten maken, afspraak gepland."/>
         </Observation>
      </resource>
      <search>
         <mode value="include"/>
      </search>
   </entry>
   <entry>
      <fullUrl value="urn:uuid:df5eae1c-c02f-11ea-1271-020000000000"/>
      <resource>
         <Observation>
            <meta>
               <profile value="http://nictiz.nl/fhir/StructureDefinition/gp-JournalEntry"/>
            </meta>
            <text>
               <status value="generated"/>
               <div xmlns="http://www.w3.org/1999/xhtml">
                  <table>
                     <caption>Observatie/bepaling. Subject: J. XXX_Cevat. Status: definitief</caption>
                     <tbody>
                        <tr>
                           <th>Context</th>
                           <td>Contact ID: MedMijHG_contactmoment14 2.16.840.1.113883.2.4.3.111.19.1 (Id: MedMijHG_contactmoment14 (urn:oid:2.16.840.1.113883.2.4.3.111.19.1))</td>
                        </tr>
                        <tr>
                           <th>Code</th>
                           <th>Waarde</th>
                        </tr>
                        <tr>
                           <td>
                              <span title="Evaluatie (E - http://fhir.nl/fhir/NamingSystem/journaalregeltypen)">Evaluatie</span>
                           </td>
                           <td>Lage rugpijn</td>
                        </tr>
                        <tr>
                           <td>
                              <span title="discharge diagnosis (DISDX - v3/ActCode)">discharge diagnosis</span>
                           </td>
                           <td>
                              <span title="lage rugpijn (L03 - sid/icpc-1-nl)">lage rugpijn</span>
                           </td>
                        </tr>
                     </tbody>
                  </table>
               </div>
            </text>
            <status value="final"/>
            <code>
               <coding>
                  <system value="http://fhir.nl/fhir/NamingSystem/journaalregeltypen"/>
                  <code value="E"/>
                  <display value="Evaluatie"/>
               </coding>
            </code>
            <subject>
               <reference value="urn:uuid:df5eb880-c02f-11ea-1271-020000000000"/>
               <display value="J. XXX_Cevat"/>
            </subject>
            <context>
               <identifier>
                  <system value="urn:oid:2.16.840.1.113883.2.4.3.111.19.1"/>
                  <value value="MedMijHG_contactmoment14"/>
               </identifier>
               <display value="Contact ID: MedMijHG_contactmoment14 2.16.840.1.113883.2.4.3.111.19.1"/>
            </context>
            <valueString value="Lage rugpijn"/>
            <component>
               <code>
                  <coding>
                     <system value="http://hl7.org/fhir/v3/ActCode"/>
                     <code value="DISDX"/>
                     <display value="discharge diagnosis"/>
                  </coding>
               </code>
               <valueCodeableConcept>
                  <coding>
                     <system value="http://hl7.org/fhir/sid/icpc-1-nl"/>
                     <code value="L03"/>
                     <display value="lage rugpijn"/>
                  </coding>
               </valueCodeableConcept>
            </component>
         </Observation>
      </resource>
      <search>
         <mode value="include"/>
      </search>
   </entry>
   <entry>
      <fullUrl value="urn:uuid:df5eae33-c02f-11ea-1271-020000000000"/>
      <resource>
         <Observation>
            <meta>
               <profile value="http://nictiz.nl/fhir/StructureDefinition/gp-JournalEntry"/>
            </meta>
            <text>
               <status value="generated"/>
               <div xmlns="http://www.w3.org/1999/xhtml">
                  <table>
                     <caption>Observatie/bepaling. Subject: J. XXX_Cevat. Status: definitief</caption>
                     <tbody>
                        <tr>
                           <th>Context</th>
                           <td>Contact ID: MedMijHG_contactmoment14 2.16.840.1.113883.2.4.3.111.19.1 (Id: MedMijHG_contactmoment14 (urn:oid:2.16.840.1.113883.2.4.3.111.19.1))</td>
                        </tr>
                        <tr>
                           <th>Code</th>
                           <th>Waarde</th>
                        </tr>
                        <tr>
                           <td>
                              <span title="Plan (P - http://fhir.nl/fhir/NamingSystem/journaalregeltypen)">Plan</span>
                           </td>
                           <td>Cesar of Mensendieck. Verwijzing aangemaakt</td>
                        </tr>
                     </tbody>
                  </table>
               </div>
            </text>
            <status value="final"/>
            <code>
               <coding>
                  <system value="http://fhir.nl/fhir/NamingSystem/journaalregeltypen"/>
                  <code value="P"/>
                  <display value="Plan"/>
               </coding>
            </code>
            <subject>
               <reference value="urn:uuid:df5eb880-c02f-11ea-1271-020000000000"/>
               <display value="J. XXX_Cevat"/>
            </subject>
            <context>
               <identifier>
                  <system value="urn:oid:2.16.840.1.113883.2.4.3.111.19.1"/>
                  <value value="MedMijHG_contactmoment14"/>
               </identifier>
               <display value="Contact ID: MedMijHG_contactmoment14 2.16.840.1.113883.2.4.3.111.19.1"/>
            </context>
            <valueString value="Cesar of Mensendieck. Verwijzing aangemaakt"/>
         </Observation>
      </resource>
      <search>
         <mode value="include"/>
      </search>
   </entry>
   <entry>
      <fullUrl value="urn:uuid:df5eae65-c02f-11ea-1271-020000000000"/>
      <resource>
         <Observation>
            <meta>
               <profile value="http://nictiz.nl/fhir/StructureDefinition/gp-JournalEntry"/>
            </meta>
            <text>
               <status value="generated"/>
               <div xmlns="http://www.w3.org/1999/xhtml">
                  <table>
                     <caption>Observatie/bepaling. Subject: J. XXX_Cevat. Status: definitief</caption>
                     <tbody>
                        <tr>
                           <th>Context</th>
                           <td>Contact ID: MedMijHG_contactmoment11 2.16.840.1.113883.2.4.3.111.19.1 (Id: MedMijHG_contactmoment11 (urn:oid:2.16.840.1.113883.2.4.3.111.19.1))</td>
                        </tr>
                        <tr>
                           <th>Code</th>
                           <th>Waarde</th>
                        </tr>
                        <tr>
                           <td>
                              <span title="Evaluatie (E - http://fhir.nl/fhir/NamingSystem/journaalregeltypen)">Evaluatie</span>
                           </td>
                           <td>Keelpijn eci.</td>
                        </tr>
                        <tr>
                           <td>
                              <span title="discharge diagnosis (DISDX - v3/ActCode)">discharge diagnosis</span>
                           </td>
                           <td>
                              <span title="Keelpijn (R21.01 - sid/icpc-1-nl)">Keelpijn</span>
                           </td>
                        </tr>
                     </tbody>
                  </table>
               </div>
            </text>
            <status value="final"/>
            <code>
               <coding>
                  <system value="http://fhir.nl/fhir/NamingSystem/journaalregeltypen"/>
                  <code value="E"/>
                  <display value="Evaluatie"/>
               </coding>
            </code>
            <subject>
               <reference value="urn:uuid:df5eb880-c02f-11ea-1271-020000000000"/>
               <display value="J. XXX_Cevat"/>
            </subject>
            <context>
               <identifier>
                  <system value="urn:oid:2.16.840.1.113883.2.4.3.111.19.1"/>
                  <value value="MedMijHG_contactmoment11"/>
               </identifier>
               <display value="Contact ID: MedMijHG_contactmoment11 2.16.840.1.113883.2.4.3.111.19.1"/>
            </context>
            <valueString value="Keelpijn eci."/>
            <component>
               <code>
                  <coding>
                     <system value="http://hl7.org/fhir/v3/ActCode"/>
                     <code value="DISDX"/>
                     <display value="discharge diagnosis"/>
                  </coding>
               </code>
               <valueCodeableConcept>
                  <coding>
                     <system value="http://hl7.org/fhir/sid/icpc-1-nl"/>
                     <code value="R21.01"/>
                     <display value="Keelpijn"/>
                  </coding>
               </valueCodeableConcept>
            </component>
         </Observation>
      </resource>
      <search>
         <mode value="include"/>
      </search>
   </entry>
   <entry>
      <fullUrl value="urn:uuid:df5eae7c-c02f-11ea-1271-020000000000"/>
      <resource>
         <Observation>
            <meta>
               <profile value="http://nictiz.nl/fhir/StructureDefinition/gp-JournalEntry"/>
            </meta>
            <text>
               <status value="generated"/>
               <div xmlns="http://www.w3.org/1999/xhtml">
                  <table>
                     <caption>Observatie/bepaling. Subject: J. XXX_Cevat. Status: definitief</caption>
                     <tbody>
                        <tr>
                           <th>Context</th>
                           <td>Contact ID: MedMijHG_contactmoment11 2.16.840.1.113883.2.4.3.111.19.1 (Id: MedMijHG_contactmoment11 (urn:oid:2.16.840.1.113883.2.4.3.111.19.1))</td>
                        </tr>
                        <tr>
                           <th>Code</th>
                           <th>Waarde</th>
                        </tr>
                        <tr>
                           <td>
                              <span title="Plan (P - http://fhir.nl/fhir/NamingSystem/journaalregeltypen)">Plan</span>
                           </td>
                           <td>Kweek van aanslag keel</td>
                        </tr>
                     </tbody>
                  </table>
               </div>
            </text>
            <status value="final"/>
            <code>
               <coding>
                  <system value="http://fhir.nl/fhir/NamingSystem/journaalregeltypen"/>
                  <code value="P"/>
                  <display value="Plan"/>
               </coding>
            </code>
            <subject>
               <reference value="urn:uuid:df5eb880-c02f-11ea-1271-020000000000"/>
               <display value="J. XXX_Cevat"/>
            </subject>
            <context>
               <identifier>
                  <system value="urn:oid:2.16.840.1.113883.2.4.3.111.19.1"/>
                  <value value="MedMijHG_contactmoment11"/>
               </identifier>
               <display value="Contact ID: MedMijHG_contactmoment11 2.16.840.1.113883.2.4.3.111.19.1"/>
            </context>
            <valueString value="Kweek van aanslag keel"/>
         </Observation>
      </resource>
      <search>
         <mode value="include"/>
      </search>
   </entry>
   <entry>
      <fullUrl value="urn:uuid:df5eaeae-c02f-11ea-1271-020000000000"/>
      <resource>
         <Observation>
            <meta>
               <profile value="http://nictiz.nl/fhir/StructureDefinition/gp-JournalEntry"/>
            </meta>
            <text>
               <status value="generated"/>
               <div xmlns="http://www.w3.org/1999/xhtml">
                  <table>
                     <caption>Observatie/bepaling. Subject: J. XXX_Cevat. Status: definitief</caption>
                     <tbody>
                        <tr>
                           <th>Context</th>
                           <td>Contact ID: MedMijHG_contactmoment07 2.16.840.1.113883.2.4.3.111.19.1 (Id: MedMijHG_contactmoment07 (urn:oid:2.16.840.1.113883.2.4.3.111.19.1))</td>
                        </tr>
                        <tr>
                           <th>Code</th>
                           <th>Waarde</th>
                        </tr>
                        <tr>
                           <td>
                              <span title="Evaluatie (E - http://fhir.nl/fhir/NamingSystem/journaalregeltypen)">Evaluatie</span>
                           </td>
                           <td>Maag/duodenum problemen?</td>
                        </tr>
                        <tr>
                           <td>
                              <span title="discharge diagnosis (DISDX - v3/ActCode)">discharge diagnosis</span>
                           </td>
                           <td>
                              <span title="Maagpijn (D02 - sid/icpc-1-nl)">Maagpijn</span>
                           </td>
                        </tr>
                     </tbody>
                  </table>
               </div>
            </text>
            <status value="final"/>
            <code>
               <coding>
                  <system value="http://fhir.nl/fhir/NamingSystem/journaalregeltypen"/>
                  <code value="E"/>
                  <display value="Evaluatie"/>
               </coding>
            </code>
            <subject>
               <reference value="urn:uuid:df5eb880-c02f-11ea-1271-020000000000"/>
               <display value="J. XXX_Cevat"/>
            </subject>
            <context>
               <identifier>
                  <system value="urn:oid:2.16.840.1.113883.2.4.3.111.19.1"/>
                  <value value="MedMijHG_contactmoment07"/>
               </identifier>
               <display value="Contact ID: MedMijHG_contactmoment07 2.16.840.1.113883.2.4.3.111.19.1"/>
            </context>
            <valueString value="Maag/duodenum problemen?"/>
            <component>
               <code>
                  <coding>
                     <system value="http://hl7.org/fhir/v3/ActCode"/>
                     <code value="DISDX"/>
                     <display value="discharge diagnosis"/>
                  </coding>
               </code>
               <valueCodeableConcept>
                  <coding>
                     <system value="http://hl7.org/fhir/sid/icpc-1-nl"/>
                     <code value="D02"/>
                     <display value="Maagpijn"/>
                  </coding>
               </valueCodeableConcept>
            </component>
         </Observation>
      </resource>
      <search>
         <mode value="include"/>
      </search>
   </entry>
   <entry>
      <fullUrl value="urn:uuid:df5eaef3-c02f-11ea-1271-020000000000"/>
      <resource>
         <Observation>
            <meta>
               <profile value="http://nictiz.nl/fhir/StructureDefinition/gp-JournalEntry"/>
            </meta>
            <text>
               <status value="generated"/>
               <div xmlns="http://www.w3.org/1999/xhtml">
                  <table>
                     <caption>Observatie/bepaling. Subject: J. XXX_Cevat. Status: definitief</caption>
                     <tbody>
                        <tr>
                           <th>Context</th>
                           <td>Contact ID: MedMijHG_contactmoment05 2.16.840.1.113883.2.4.3.111.19.1 (Id: MedMijHG_contactmoment05 (urn:oid:2.16.840.1.113883.2.4.3.111.19.1))</td>
                        </tr>
                        <tr>
                           <th>Code</th>
                           <th>Waarde</th>
                        </tr>
                        <tr>
                           <td>
                              <span title="Evaluatie (E - http://fhir.nl/fhir/NamingSystem/journaalregeltypen)">Evaluatie</span>
                           </td>
                           <td>Maag/duodenum problemen?</td>
                        </tr>
                        <tr>
                           <td>
                              <span title="discharge diagnosis (DISDX - v3/ActCode)">discharge diagnosis</span>
                           </td>
                           <td>
                              <span title="lage rugpijn (L03 - sid/icpc-1-nl)">lage rugpijn</span>
                           </td>
                        </tr>
                     </tbody>
                  </table>
               </div>
            </text>
            <status value="final"/>
            <code>
               <coding>
                  <system value="http://fhir.nl/fhir/NamingSystem/journaalregeltypen"/>
                  <code value="E"/>
                  <display value="Evaluatie"/>
               </coding>
            </code>
            <subject>
               <reference value="urn:uuid:df5eb880-c02f-11ea-1271-020000000000"/>
               <display value="J. XXX_Cevat"/>
            </subject>
            <context>
               <identifier>
                  <system value="urn:oid:2.16.840.1.113883.2.4.3.111.19.1"/>
                  <value value="MedMijHG_contactmoment05"/>
               </identifier>
               <display value="Contact ID: MedMijHG_contactmoment05 2.16.840.1.113883.2.4.3.111.19.1"/>
            </context>
            <valueString value="Maag/duodenum problemen?"/>
            <component>
               <code>
                  <coding>
                     <system value="http://hl7.org/fhir/v3/ActCode"/>
                     <code value="DISDX"/>
                     <display value="discharge diagnosis"/>
                  </coding>
               </code>
               <valueCodeableConcept>
                  <coding>
                     <system value="http://hl7.org/fhir/sid/icpc-1-nl"/>
                     <code value="L03"/>
                     <display value="lage rugpijn"/>
                  </coding>
               </valueCodeableConcept>
            </component>
         </Observation>
      </resource>
      <search>
         <mode value="include"/>
      </search>
   </entry>
   <entry>
      <fullUrl value="urn:uuid:df5eaf0a-c02f-11ea-1271-020000000000"/>
      <resource>
         <Observation>
            <meta>
               <profile value="http://nictiz.nl/fhir/StructureDefinition/gp-JournalEntry"/>
            </meta>
            <text>
               <status value="generated"/>
               <div xmlns="http://www.w3.org/1999/xhtml">
                  <table>
                     <caption>Observatie/bepaling. Subject: J. XXX_Cevat. Status: definitief</caption>
                     <tbody>
                        <tr>
                           <th>Context</th>
                           <td>Contact ID: MedMijHG_contactmoment05 2.16.840.1.113883.2.4.3.111.19.1 (Id: MedMijHG_contactmoment05 (urn:oid:2.16.840.1.113883.2.4.3.111.19.1))</td>
                        </tr>
                        <tr>
                           <th>Code</th>
                           <th>Waarde</th>
                        </tr>
                        <tr>
                           <td>
                              <span title="Plan (P - http://fhir.nl/fhir/NamingSystem/journaalregeltypen)">Plan</span>
                           </td>
                           <td>Cesar of Mensendieck.</td>
                        </tr>
                     </tbody>
                  </table>
               </div>
            </text>
            <status value="final"/>
            <code>
               <coding>
                  <system value="http://fhir.nl/fhir/NamingSystem/journaalregeltypen"/>
                  <code value="P"/>
                  <display value="Plan"/>
               </coding>
            </code>
            <subject>
               <reference value="urn:uuid:df5eb880-c02f-11ea-1271-020000000000"/>
               <display value="J. XXX_Cevat"/>
            </subject>
            <context>
               <identifier>
                  <system value="urn:oid:2.16.840.1.113883.2.4.3.111.19.1"/>
                  <value value="MedMijHG_contactmoment05"/>
               </identifier>
               <display value="Contact ID: MedMijHG_contactmoment05 2.16.840.1.113883.2.4.3.111.19.1"/>
            </context>
            <valueString value="Cesar of Mensendieck."/>
         </Observation>
      </resource>
      <search>
         <mode value="include"/>
      </search>
   </entry>
   <entry>
      <fullUrl value="urn:uuid:df5eaf3c-c02f-11ea-1271-020000000000"/>
      <resource>
         <Observation>
            <meta>
               <profile value="http://nictiz.nl/fhir/StructureDefinition/gp-JournalEntry"/>
            </meta>
            <text>
               <status value="generated"/>
               <div xmlns="http://www.w3.org/1999/xhtml">
                  <table>
                     <caption>Observatie/bepaling. Subject: J. XXX_Cevat. Status: definitief</caption>
                     <tbody>
                        <tr>
                           <th>Context</th>
                           <td>Contact ID: MedMijHG_contactmoment10 2.16.840.1.113883.2.4.3.111.19.1 (Id: MedMijHG_contactmoment10 (urn:oid:2.16.840.1.113883.2.4.3.111.19.1))</td>
                        </tr>
                        <tr>
                           <th>Code</th>
                           <th>Waarde</th>
                        </tr>
                        <tr>
                           <td>
                              <span title="Evaluatie (E - http://fhir.nl/fhir/NamingSystem/journaalregeltypen)">Evaluatie</span>
                           </td>
                           <td>Keelpijn eci.</td>
                        </tr>
                        <tr>
                           <td>
                              <span title="discharge diagnosis (DISDX - v3/ActCode)">discharge diagnosis</span>
                           </td>
                           <td>
                              <span title="Keelpijn (R21.01 - sid/icpc-1-nl)">Keelpijn</span>
                           </td>
                        </tr>
                     </tbody>
                  </table>
               </div>
            </text>
            <status value="final"/>
            <code>
               <coding>
                  <system value="http://fhir.nl/fhir/NamingSystem/journaalregeltypen"/>
                  <code value="E"/>
                  <display value="Evaluatie"/>
               </coding>
            </code>
            <subject>
               <reference value="urn:uuid:df5eb880-c02f-11ea-1271-020000000000"/>
               <display value="J. XXX_Cevat"/>
            </subject>
            <context>
               <identifier>
                  <system value="urn:oid:2.16.840.1.113883.2.4.3.111.19.1"/>
                  <value value="MedMijHG_contactmoment10"/>
               </identifier>
               <display value="Contact ID: MedMijHG_contactmoment10 2.16.840.1.113883.2.4.3.111.19.1"/>
            </context>
            <valueString value="Keelpijn eci."/>
            <component>
               <code>
                  <coding>
                     <system value="http://hl7.org/fhir/v3/ActCode"/>
                     <code value="DISDX"/>
                     <display value="discharge diagnosis"/>
                  </coding>
               </code>
               <valueCodeableConcept>
                  <coding>
                     <system value="http://hl7.org/fhir/sid/icpc-1-nl"/>
                     <code value="R21.01"/>
                     <display value="Keelpijn"/>
                  </coding>
               </valueCodeableConcept>
            </component>
         </Observation>
      </resource>
      <search>
         <mode value="include"/>
      </search>
   </entry>
   <entry>
      <fullUrl value="urn:uuid:df5eaf53-c02f-11ea-1271-020000000000"/>
      <resource>
         <Observation>
            <meta>
               <profile value="http://nictiz.nl/fhir/StructureDefinition/gp-JournalEntry"/>
            </meta>
            <text>
               <status value="generated"/>
               <div xmlns="http://www.w3.org/1999/xhtml">
                  <table>
                     <caption>Observatie/bepaling. Subject: J. XXX_Cevat. Status: definitief</caption>
                     <tbody>
                        <tr>
                           <th>Context</th>
                           <td>Contact ID: MedMijHG_contactmoment10 2.16.840.1.113883.2.4.3.111.19.1 (Id: MedMijHG_contactmoment10 (urn:oid:2.16.840.1.113883.2.4.3.111.19.1))</td>
                        </tr>
                        <tr>
                           <th>Code</th>
                           <th>Waarde</th>
                        </tr>
                        <tr>
                           <td>
                              <span title="Plan (P - http://fhir.nl/fhir/NamingSystem/journaalregeltypen)">Plan</span>
                           </td>
                           <td>Afwachten, zn. Medicatie is nog beschikbaar</td>
                        </tr>
                     </tbody>
                  </table>
               </div>
            </text>
            <status value="final"/>
            <code>
               <coding>
                  <system value="http://fhir.nl/fhir/NamingSystem/journaalregeltypen"/>
                  <code value="P"/>
                  <display value="Plan"/>
               </coding>
            </code>
            <subject>
               <reference value="urn:uuid:df5eb880-c02f-11ea-1271-020000000000"/>
               <display value="J. XXX_Cevat"/>
            </subject>
            <context>
               <identifier>
                  <system value="urn:oid:2.16.840.1.113883.2.4.3.111.19.1"/>
                  <value value="MedMijHG_contactmoment10"/>
               </identifier>
               <display value="Contact ID: MedMijHG_contactmoment10 2.16.840.1.113883.2.4.3.111.19.1"/>
            </context>
            <valueString value="Afwachten, zn. Medicatie is nog beschikbaar"/>
         </Observation>
      </resource>
      <search>
         <mode value="include"/>
      </search>
   </entry>
   <entry>
      <fullUrl value="urn:uuid:df5eaf86-c02f-11ea-1271-020000000000"/>
      <resource>
         <Observation>
            <meta>
               <profile value="http://nictiz.nl/fhir/StructureDefinition/gp-JournalEntry"/>
            </meta>
            <text>
               <status value="generated"/>
               <div xmlns="http://www.w3.org/1999/xhtml">
                  <table>
                     <caption>Observatie/bepaling. Subject: J. XXX_Cevat. Status: definitief</caption>
                     <tbody>
                        <tr>
                           <th>Context</th>
                           <td>Contact ID: MedMijHG_contactmoment04 2.16.840.1.113883.2.4.3.111.19.1 (Id: MedMijHG_contactmoment04 (urn:oid:2.16.840.1.113883.2.4.3.111.19.1))</td>
                        </tr>
                        <tr>
                           <th>Code</th>
                           <th>Waarde</th>
                        </tr>
                        <tr>
                           <td>
                              <span title="Evaluatie (E - http://fhir.nl/fhir/NamingSystem/journaalregeltypen)">Evaluatie</span>
                           </td>
                           <td>lage rugpijn</td>
                        </tr>
                        <tr>
                           <td>
                              <span title="discharge diagnosis (DISDX - v3/ActCode)">discharge diagnosis</span>
                           </td>
                           <td>
                              <span title="lage rugpijn (L03 - sid/icpc-1-nl)">lage rugpijn</span>
                           </td>
                        </tr>
                     </tbody>
                  </table>
               </div>
            </text>
            <status value="final"/>
            <code>
               <coding>
                  <system value="http://fhir.nl/fhir/NamingSystem/journaalregeltypen"/>
                  <code value="E"/>
                  <display value="Evaluatie"/>
               </coding>
            </code>
            <subject>
               <reference value="urn:uuid:df5eb880-c02f-11ea-1271-020000000000"/>
               <display value="J. XXX_Cevat"/>
            </subject>
            <context>
               <identifier>
                  <system value="urn:oid:2.16.840.1.113883.2.4.3.111.19.1"/>
                  <value value="MedMijHG_contactmoment04"/>
               </identifier>
               <display value="Contact ID: MedMijHG_contactmoment04 2.16.840.1.113883.2.4.3.111.19.1"/>
            </context>
            <valueString value="lage rugpijn"/>
            <component>
               <code>
                  <coding>
                     <system value="http://hl7.org/fhir/v3/ActCode"/>
                     <code value="DISDX"/>
                     <display value="discharge diagnosis"/>
                  </coding>
               </code>
               <valueCodeableConcept>
                  <coding>
                     <system value="http://hl7.org/fhir/sid/icpc-1-nl"/>
                     <code value="L03"/>
                     <display value="lage rugpijn"/>
                  </coding>
               </valueCodeableConcept>
            </component>
         </Observation>
      </resource>
      <search>
         <mode value="include"/>
      </search>
   </entry>
   <entry>
      <fullUrl value="urn:uuid:df5eafc8-c02f-11ea-1271-020000000000"/>
      <resource>
         <Observation>
            <meta>
               <profile value="http://nictiz.nl/fhir/StructureDefinition/gp-JournalEntry"/>
            </meta>
            <text>
               <status value="generated"/>
               <div xmlns="http://www.w3.org/1999/xhtml">
                  <table>
                     <caption>Observatie/bepaling. Subject: J. XXX_Cevat. Status: definitief</caption>
                     <tbody>
                        <tr>
                           <th>Context</th>
                           <td>Contact ID: MedMijHG_contactmoment06 2.16.840.1.113883.2.4.3.111.19.1 (Id: MedMijHG_contactmoment06 (urn:oid:2.16.840.1.113883.2.4.3.111.19.1))</td>
                        </tr>
                        <tr>
                           <th>Code</th>
                           <th>Waarde</th>
                        </tr>
                        <tr>
                           <td>
                              <span title="Evaluatie (E - http://fhir.nl/fhir/NamingSystem/journaalregeltypen)">Evaluatie</span>
                           </td>
                           <td>Keelpijn eci.</td>
                        </tr>
                        <tr>
                           <td>
                              <span title="discharge diagnosis (DISDX - v3/ActCode)">discharge diagnosis</span>
                           </td>
                           <td>
                              <span title="Keelpijn (R21.01 - sid/icpc-1-nl)">Keelpijn</span>
                           </td>
                        </tr>
                     </tbody>
                  </table>
               </div>
            </text>
            <status value="final"/>
            <code>
               <coding>
                  <system value="http://fhir.nl/fhir/NamingSystem/journaalregeltypen"/>
                  <code value="E"/>
                  <display value="Evaluatie"/>
               </coding>
            </code>
            <subject>
               <reference value="urn:uuid:df5eb880-c02f-11ea-1271-020000000000"/>
               <display value="J. XXX_Cevat"/>
            </subject>
            <context>
               <identifier>
                  <system value="urn:oid:2.16.840.1.113883.2.4.3.111.19.1"/>
                  <value value="MedMijHG_contactmoment06"/>
               </identifier>
               <display value="Contact ID: MedMijHG_contactmoment06 2.16.840.1.113883.2.4.3.111.19.1"/>
            </context>
            <valueString value="Keelpijn eci."/>
            <component>
               <code>
                  <coding>
                     <system value="http://hl7.org/fhir/v3/ActCode"/>
                     <code value="DISDX"/>
                     <display value="discharge diagnosis"/>
                  </coding>
               </code>
               <valueCodeableConcept>
                  <coding>
                     <system value="http://hl7.org/fhir/sid/icpc-1-nl"/>
                     <code value="R21.01"/>
                     <display value="Keelpijn"/>
                  </coding>
               </valueCodeableConcept>
            </component>
         </Observation>
      </resource>
      <search>
         <mode value="include"/>
      </search>
   </entry>
   <entry>
      <fullUrl value="urn:uuid:df5eafdf-c02f-11ea-1271-020000000000"/>
      <resource>
         <Observation>
            <meta>
               <profile value="http://nictiz.nl/fhir/StructureDefinition/gp-JournalEntry"/>
            </meta>
            <text>
               <status value="generated"/>
               <div xmlns="http://www.w3.org/1999/xhtml">
                  <table>
                     <caption>Observatie/bepaling. Subject: J. XXX_Cevat. Status: definitief</caption>
                     <tbody>
                        <tr>
                           <th>Context</th>
                           <td>Contact ID: MedMijHG_contactmoment06 2.16.840.1.113883.2.4.3.111.19.1 (Id: MedMijHG_contactmoment06 (urn:oid:2.16.840.1.113883.2.4.3.111.19.1))</td>
                        </tr>
                        <tr>
                           <th>Code</th>
                           <th>Waarde</th>
                        </tr>
                        <tr>
                           <td>
                              <span title="Plan (P - http://fhir.nl/fhir/NamingSystem/journaalregeltypen)">Plan</span>
                           </td>
                           <td>Afwachten, zn. Pcm, tijdens feest paracod.</td>
                        </tr>
                     </tbody>
                  </table>
               </div>
            </text>
            <status value="final"/>
            <code>
               <coding>
                  <system value="http://fhir.nl/fhir/NamingSystem/journaalregeltypen"/>
                  <code value="P"/>
                  <display value="Plan"/>
               </coding>
            </code>
            <subject>
               <reference value="urn:uuid:df5eb880-c02f-11ea-1271-020000000000"/>
               <display value="J. XXX_Cevat"/>
            </subject>
            <context>
               <identifier>
                  <system value="urn:oid:2.16.840.1.113883.2.4.3.111.19.1"/>
                  <value value="MedMijHG_contactmoment06"/>
               </identifier>
               <display value="Contact ID: MedMijHG_contactmoment06 2.16.840.1.113883.2.4.3.111.19.1"/>
            </context>
            <valueString value="Afwachten, zn. Pcm, tijdens feest paracod."/>
         </Observation>
      </resource>
      <search>
         <mode value="include"/>
      </search>
   </entry>
   <entry>
      <fullUrl value="urn:uuid:df5eb011-c02f-11ea-1271-020000000000"/>
      <resource>
         <Observation>
            <meta>
               <profile value="http://nictiz.nl/fhir/StructureDefinition/gp-JournalEntry"/>
            </meta>
            <text>
               <status value="generated"/>
               <div xmlns="http://www.w3.org/1999/xhtml">
                  <table>
                     <caption>Observatie/bepaling. Subject: J. XXX_Cevat. Status: definitief</caption>
                     <tbody>
                        <tr>
                           <th>Context</th>
                           <td>Contact ID: MedMijHG_contactmomentMMK 2.16.840.1.113883.2.4.3.111.19.1 (Id: MedMijHG_contactmomentMMK (urn:oid:2.16.840.1.113883.2.4.3.111.19.1))</td>
                        </tr>
                        <tr>
                           <th>Code</th>
                           <th>Waarde</th>
                        </tr>
                        <tr>
                           <td>
                              <span title="Evaluatie (E - http://fhir.nl/fhir/NamingSystem/journaalregeltypen)">Evaluatie</span>
                           </td>
                           <td>astma</td>
                        </tr>
                        <tr>
                           <td>
                              <span title="discharge diagnosis (DISDX - v3/ActCode)">discharge diagnosis</span>
                           </td>
                           <td>
                              <span title="Astma (R96 - sid/icpc-1-nl)">Astma</span>
                           </td>
                        </tr>
                     </tbody>
                  </table>
               </div>
            </text>
            <status value="final"/>
            <code>
               <coding>
                  <system value="http://fhir.nl/fhir/NamingSystem/journaalregeltypen"/>
                  <code value="E"/>
                  <display value="Evaluatie"/>
               </coding>
            </code>
            <subject>
               <reference value="urn:uuid:df5eb880-c02f-11ea-1271-020000000000"/>
               <display value="J. XXX_Cevat"/>
            </subject>
            <context>
               <identifier>
                  <system value="urn:oid:2.16.840.1.113883.2.4.3.111.19.1"/>
                  <value value="MedMijHG_contactmomentMMK"/>
               </identifier>
               <display value="Contact ID: MedMijHG_contactmomentMMK 2.16.840.1.113883.2.4.3.111.19.1"/>
            </context>
            <valueString value="astma"/>
            <component>
               <code>
                  <coding>
                     <system value="http://hl7.org/fhir/v3/ActCode"/>
                     <code value="DISDX"/>
                     <display value="discharge diagnosis"/>
                  </coding>
               </code>
               <valueCodeableConcept>
                  <coding>
                     <system value="http://hl7.org/fhir/sid/icpc-1-nl"/>
                     <code value="R96"/>
                     <display value="Astma"/>
                  </coding>
               </valueCodeableConcept>
            </component>
         </Observation>
      </resource>
      <search>
         <mode value="include"/>
      </search>
   </entry>
   <entry>
      <fullUrl value="urn:uuid:df5eb028-c02f-11ea-1271-020000000000"/>
      <resource>
         <Observation>
            <meta>
               <profile value="http://nictiz.nl/fhir/StructureDefinition/gp-JournalEntry"/>
            </meta>
            <text>
               <status value="generated"/>
               <div xmlns="http://www.w3.org/1999/xhtml">
                  <table>
                     <caption>Observatie/bepaling. Subject: J. XXX_Cevat. Status: definitief</caption>
                     <tbody>
                        <tr>
                           <th>Context</th>
                           <td>Contact ID: MedMijHG_contactmomentMMK 2.16.840.1.113883.2.4.3.111.19.1 (Id: MedMijHG_contactmomentMMK (urn:oid:2.16.840.1.113883.2.4.3.111.19.1))</td>
                        </tr>
                        <tr>
                           <th>Code</th>
                           <th>Waarde</th>
                        </tr>
                        <tr>
                           <td>
                              <span title="Plan (P - http://fhir.nl/fhir/NamingSystem/journaalregeltypen)">Plan</span>
                           </td>
                           <td>Salbutamol half uur voor het sporten.</td>
                        </tr>
                     </tbody>
                  </table>
               </div>
            </text>
            <status value="final"/>
            <code>
               <coding>
                  <system value="http://fhir.nl/fhir/NamingSystem/journaalregeltypen"/>
                  <code value="P"/>
                  <display value="Plan"/>
               </coding>
            </code>
            <subject>
               <reference value="urn:uuid:df5eb880-c02f-11ea-1271-020000000000"/>
               <display value="J. XXX_Cevat"/>
            </subject>
            <context>
               <identifier>
                  <system value="urn:oid:2.16.840.1.113883.2.4.3.111.19.1"/>
                  <value value="MedMijHG_contactmomentMMK"/>
               </identifier>
               <display value="Contact ID: MedMijHG_contactmomentMMK 2.16.840.1.113883.2.4.3.111.19.1"/>
            </context>
            <valueString value="Salbutamol half uur voor het sporten."/>
         </Observation>
      </resource>
      <search>
         <mode value="include"/>
      </search>
   </entry>
   <entry>
      <fullUrl value="urn:uuid:df5eac72-c02f-11ea-1271-020000000000"/>
      <resource>
         <Observation>
            <meta>
               <profile value="http://nictiz.nl/fhir/StructureDefinition/gp-JournalEntry"/>
            </meta>
            <text>
               <status value="generated"/>
               <div xmlns="http://www.w3.org/1999/xhtml">
                  <table>
                     <caption>Observatie/bepaling. Subject: J. XXX_Cevat. Status: definitief</caption>
                     <tbody>
                        <tr>
                           <th>Context</th>
                           <td>Contact ID: MedMijHG_contactmoment09 2.16.840.1.113883.2.4.3.111.19.1 (Id: MedMijHG_contactmoment09 (urn:oid:2.16.840.1.113883.2.4.3.111.19.1))</td>
                        </tr>
                        <tr>
                           <th>Code</th>
                           <th>Waarde</th>
                        </tr>
                        <tr>
                           <td>
                              <span title="Evaluatie (E - http://fhir.nl/fhir/NamingSystem/journaalregeltypen)">Evaluatie</span>
                           </td>
                           <td>Mycose</td>
                        </tr>
                        <tr>
                           <td>
                              <span title="discharge diagnosis (DISDX - v3/ActCode)">discharge diagnosis</span>
                           </td>
                           <td>
                              <span title="Tinea Pedis (S74.01 - sid/icpc-1-nl)">Tinea Pedis</span>
                           </td>
                        </tr>
                     </tbody>
                  </table>
               </div>
            </text>
            <status value="final"/>
            <code>
               <coding>
                  <system value="http://fhir.nl/fhir/NamingSystem/journaalregeltypen"/>
                  <code value="E"/>
                  <display value="Evaluatie"/>
               </coding>
            </code>
            <subject>
               <reference value="urn:uuid:df5eb880-c02f-11ea-1271-020000000000"/>
               <display value="J. XXX_Cevat"/>
            </subject>
            <context>
               <identifier>
                  <system value="urn:oid:2.16.840.1.113883.2.4.3.111.19.1"/>
                  <value value="MedMijHG_contactmoment09"/>
               </identifier>
               <display value="Contact ID: MedMijHG_contactmoment09 2.16.840.1.113883.2.4.3.111.19.1"/>
            </context>
            <valueString value="Mycose"/>
            <component>
               <code>
                  <coding>
                     <system value="http://hl7.org/fhir/v3/ActCode"/>
                     <code value="DISDX"/>
                     <display value="discharge diagnosis"/>
                  </coding>
               </code>
               <valueCodeableConcept>
                  <coding>
                     <system value="http://hl7.org/fhir/sid/icpc-1-nl"/>
                     <code value="S74.01"/>
                     <display value="Tinea Pedis"/>
                  </coding>
               </valueCodeableConcept>
            </component>
         </Observation>
      </resource>
      <search>
         <mode value="include"/>
      </search>
   </entry>
   <entry>
      <fullUrl value="urn:uuid:df5eac89-c02f-11ea-1271-020000000000"/>
      <resource>
         <Observation>
            <meta>
               <profile value="http://nictiz.nl/fhir/StructureDefinition/gp-JournalEntry"/>
            </meta>
            <text>
               <status value="generated"/>
               <div xmlns="http://www.w3.org/1999/xhtml">
                  <table>
                     <caption>Observatie/bepaling. Subject: J. XXX_Cevat. Status: definitief</caption>
                     <tbody>
                        <tr>
                           <th>Context</th>
                           <td>Contact ID: MedMijHG_contactmoment09 2.16.840.1.113883.2.4.3.111.19.1 (Id: MedMijHG_contactmoment09 (urn:oid:2.16.840.1.113883.2.4.3.111.19.1))</td>
                        </tr>
                        <tr>
                           <th>Code</th>
                           <th>Waarde</th>
                        </tr>
                        <tr>
                           <td>
                              <span title="Plan (P - http://fhir.nl/fhir/NamingSystem/journaalregeltypen)">Plan</span>
                           </td>
                           <td>Heeft nog canesten via drogist; 2x daags gebruiken.</td>
                        </tr>
                     </tbody>
                  </table>
               </div>
            </text>
            <status value="final"/>
            <code>
               <coding>
                  <system value="http://fhir.nl/fhir/NamingSystem/journaalregeltypen"/>
                  <code value="P"/>
                  <display value="Plan"/>
               </coding>
            </code>
            <subject>
               <reference value="urn:uuid:df5eb880-c02f-11ea-1271-020000000000"/>
               <display value="J. XXX_Cevat"/>
            </subject>
            <context>
               <identifier>
                  <system value="urn:oid:2.16.840.1.113883.2.4.3.111.19.1"/>
                  <value value="MedMijHG_contactmoment09"/>
               </identifier>
               <display value="Contact ID: MedMijHG_contactmoment09 2.16.840.1.113883.2.4.3.111.19.1"/>
            </context>
            <valueString value="Heeft nog canesten via drogist; 2x daags gebruiken."/>
         </Observation>
      </resource>
      <search>
         <mode value="include"/>
      </search>
   </entry>
   <entry>
      <fullUrl value="urn:uuid:df5eacbb-c02f-11ea-1271-020000000000"/>
      <resource>
         <Observation>
            <meta>
               <profile value="http://nictiz.nl/fhir/StructureDefinition/gp-JournalEntry"/>
            </meta>
            <text>
               <status value="generated"/>
               <div xmlns="http://www.w3.org/1999/xhtml">
                  <table>
                     <caption>Observatie/bepaling. Subject: J. XXX_Cevat. Status: definitief</caption>
                     <tbody>
                        <tr>
                           <th>Context</th>
                           <td>Contact ID: MedMijHG_contactmoment08 2.16.840.1.113883.2.4.3.111.19.1 (Id: MedMijHG_contactmoment08 (urn:oid:2.16.840.1.113883.2.4.3.111.19.1))</td>
                        </tr>
                        <tr>
                           <th>Code</th>
                           <th>Waarde</th>
                        </tr>
                        <tr>
                           <td>
                              <span title="Evaluatie (E - http://fhir.nl/fhir/NamingSystem/journaalregeltypen)">Evaluatie</span>
                           </td>
                           <td>Onder mandibula re. glad weinig mobile zwelling, lijkt speekselkl.</td>
                        </tr>
                     </tbody>
                  </table>
               </div>
            </text>
            <status value="final"/>
            <code>
               <coding>
                  <system value="http://fhir.nl/fhir/NamingSystem/journaalregeltypen"/>
                  <code value="E"/>
                  <display value="Evaluatie"/>
               </coding>
            </code>
            <subject>
               <reference value="urn:uuid:df5eb880-c02f-11ea-1271-020000000000"/>
               <display value="J. XXX_Cevat"/>
            </subject>
            <context>
               <identifier>
                  <system value="urn:oid:2.16.840.1.113883.2.4.3.111.19.1"/>
                  <value value="MedMijHG_contactmoment08"/>
               </identifier>
               <display value="Contact ID: MedMijHG_contactmoment08 2.16.840.1.113883.2.4.3.111.19.1"/>
            </context>
            <valueString value="Onder mandibula re. glad weinig mobile zwelling, lijkt speekselkl."/>
         </Observation>
      </resource>
      <search>
         <mode value="include"/>
      </search>
   </entry>
   <entry>
      <fullUrl value="urn:uuid:df5eacc2-c02f-11ea-1271-020000000000"/>
      <resource>
         <Observation>
            <meta>
               <profile value="http://nictiz.nl/fhir/StructureDefinition/gp-JournalEntry"/>
            </meta>
            <text>
               <status value="generated"/>
               <div xmlns="http://www.w3.org/1999/xhtml">
                  <table>
                     <caption>Observatie/bepaling. Subject: J. XXX_Cevat. Status: definitief</caption>
                     <tbody>
                        <tr>
                           <th>Context</th>
                           <td>Contact ID: MedMijHG_contactmoment08 2.16.840.1.113883.2.4.3.111.19.1 (Id: MedMijHG_contactmoment08 (urn:oid:2.16.840.1.113883.2.4.3.111.19.1))</td>
                        </tr>
                        <tr>
                           <th>Code</th>
                           <th>Waarde</th>
                        </tr>
                        <tr>
                           <td>
                              <span title="Plan (P - http://fhir.nl/fhir/NamingSystem/journaalregeltypen)">Plan</span>
                           </td>
                           <td>Echo</td>
                        </tr>
                     </tbody>
                  </table>
               </div>
            </text>
            <status value="final"/>
            <code>
               <coding>
                  <system value="http://fhir.nl/fhir/NamingSystem/journaalregeltypen"/>
                  <code value="P"/>
                  <display value="Plan"/>
               </coding>
            </code>
            <subject>
               <reference value="urn:uuid:df5eb880-c02f-11ea-1271-020000000000"/>
               <display value="J. XXX_Cevat"/>
            </subject>
            <context>
               <identifier>
                  <system value="urn:oid:2.16.840.1.113883.2.4.3.111.19.1"/>
                  <value value="MedMijHG_contactmoment08"/>
               </identifier>
               <display value="Contact ID: MedMijHG_contactmoment08 2.16.840.1.113883.2.4.3.111.19.1"/>
            </context>
            <valueString value="Echo"/>
         </Observation>
      </resource>
      <search>
         <mode value="include"/>
      </search>
   </entry>
   <entry>
      <fullUrl value="urn:uuid:df5eacf2-c02f-11ea-1271-020000000000"/>
      <resource>
         <Observation>
            <meta>
               <profile value="http://nictiz.nl/fhir/StructureDefinition/gp-JournalEntry"/>
            </meta>
            <text>
               <status value="generated"/>
               <div xmlns="http://www.w3.org/1999/xhtml">
                  <table>
                     <caption>Observatie/bepaling. Subject: J. XXX_Cevat. Status: definitief</caption>
                     <tbody>
                        <tr>
                           <th>Context</th>
                           <td>Contact ID: MedMijHG_contactmoment03 2.16.840.1.113883.2.4.3.111.19.1 (Id: MedMijHG_contactmoment03 (urn:oid:2.16.840.1.113883.2.4.3.111.19.1))</td>
                        </tr>
                        <tr>
                           <th>Code</th>
                           <th>Waarde</th>
                        </tr>
                        <tr>
                           <td>
                              <span title="Plan (P - http://fhir.nl/fhir/NamingSystem/journaalregeltypen)">Plan</span>
                           </td>
                           <td>Over paar weken RR thuis.</td>
                        </tr>
                     </tbody>
                  </table>
               </div>
            </text>
            <status value="final"/>
            <code>
               <coding>
                  <system value="http://fhir.nl/fhir/NamingSystem/journaalregeltypen"/>
                  <code value="P"/>
                  <display value="Plan"/>
               </coding>
            </code>
            <subject>
               <reference value="urn:uuid:df5eb880-c02f-11ea-1271-020000000000"/>
               <display value="J. XXX_Cevat"/>
            </subject>
            <context>
               <identifier>
                  <system value="urn:oid:2.16.840.1.113883.2.4.3.111.19.1"/>
                  <value value="MedMijHG_contactmoment03"/>
               </identifier>
               <display value="Contact ID: MedMijHG_contactmoment03 2.16.840.1.113883.2.4.3.111.19.1"/>
            </context>
            <valueString value="Over paar weken RR thuis."/>
         </Observation>
      </resource>
      <search>
         <mode value="include"/>
      </search>
   </entry>
   <entry>
      <fullUrl value="urn:uuid:df5ead23-c02f-11ea-1271-020000000000"/>
      <resource>
         <Observation>
            <meta>
               <profile value="http://nictiz.nl/fhir/StructureDefinition/gp-JournalEntry"/>
            </meta>
            <text>
               <status value="generated"/>
               <div xmlns="http://www.w3.org/1999/xhtml">
                  <table>
                     <caption>Observatie/bepaling. Subject: J. XXX_Cevat. Status: definitief</caption>
                     <tbody>
                        <tr>
                           <th>Context</th>
                           <td>Contact ID: MedMijHG_contactmoment02 2.16.840.1.113883.2.4.3.111.19.1 (Id: MedMijHG_contactmoment02 (urn:oid:2.16.840.1.113883.2.4.3.111.19.1))</td>
                        </tr>
                        <tr>
                           <th>Code</th>
                           <th>Waarde</th>
                        </tr>
                        <tr>
                           <td>
                              <span title="Plan (P - http://fhir.nl/fhir/NamingSystem/journaalregeltypen)">Plan</span>
                           </td>
                           <td>Na vakantie nogmaals.</td>
                        </tr>
                     </tbody>
                  </table>
               </div>
            </text>
            <status value="final"/>
            <code>
               <coding>
                  <system value="http://fhir.nl/fhir/NamingSystem/journaalregeltypen"/>
                  <code value="P"/>
                  <display value="Plan"/>
               </coding>
            </code>
            <subject>
               <reference value="urn:uuid:df5eb880-c02f-11ea-1271-020000000000"/>
               <display value="J. XXX_Cevat"/>
            </subject>
            <context>
               <identifier>
                  <system value="urn:oid:2.16.840.1.113883.2.4.3.111.19.1"/>
                  <value value="MedMijHG_contactmoment02"/>
               </identifier>
               <display value="Contact ID: MedMijHG_contactmoment02 2.16.840.1.113883.2.4.3.111.19.1"/>
            </context>
            <valueString value="Na vakantie nogmaals."/>
         </Observation>
      </resource>
      <search>
         <mode value="include"/>
      </search>
   </entry>
   <entry>
      <fullUrl value="urn:uuid:df5ead55-c02f-11ea-1271-020000000000"/>
      <resource>
         <Observation>
            <meta>
               <profile value="http://nictiz.nl/fhir/StructureDefinition/gp-JournalEntry"/>
            </meta>
            <text>
               <status value="generated"/>
               <div xmlns="http://www.w3.org/1999/xhtml">
                  <table>
                     <caption>Observatie/bepaling. Subject: J. XXX_Cevat. Status: definitief</caption>
                     <tbody>
                        <tr>
                           <th>Context</th>
                           <td>Contact ID: MedMijHG_contactmoment01 2.16.840.1.113883.2.4.3.111.19.1 (Id: MedMijHG_contactmoment01 (urn:oid:2.16.840.1.113883.2.4.3.111.19.1))</td>
                        </tr>
                        <tr>
                           <th>Code</th>
                           <th>Waarde</th>
                        </tr>
                        <tr>
                           <td>
                              <span title="Evaluatie (E - http://fhir.nl/fhir/NamingSystem/journaalregeltypen)">Evaluatie</span>
                           </td>
                           <td>Ritmestoornis</td>
                        </tr>
                        <tr>
                           <td>
                              <span title="discharge diagnosis (DISDX - v3/ActCode)">discharge diagnosis</span>
                           </td>
                           <td>
                              <span title="Boezemfibrilleren/-fladderen (K78 - sid/icpc-1-nl)">Boezemfibrilleren/-fladderen</span>
                           </td>
                        </tr>
                     </tbody>
                  </table>
               </div>
            </text>
            <status value="final"/>
            <code>
               <coding>
                  <system value="http://fhir.nl/fhir/NamingSystem/journaalregeltypen"/>
                  <code value="E"/>
                  <display value="Evaluatie"/>
               </coding>
            </code>
            <subject>
               <reference value="urn:uuid:df5eb880-c02f-11ea-1271-020000000000"/>
               <display value="J. XXX_Cevat"/>
            </subject>
            <context>
               <identifier>
                  <system value="urn:oid:2.16.840.1.113883.2.4.3.111.19.1"/>
                  <value value="MedMijHG_contactmoment01"/>
               </identifier>
               <display value="Contact ID: MedMijHG_contactmoment01 2.16.840.1.113883.2.4.3.111.19.1"/>
            </context>
            <valueString value="Ritmestoornis"/>
            <component>
               <code>
                  <coding>
                     <system value="http://hl7.org/fhir/v3/ActCode"/>
                     <code value="DISDX"/>
                     <display value="discharge diagnosis"/>
                  </coding>
               </code>
               <valueCodeableConcept>
                  <coding>
                     <system value="http://hl7.org/fhir/sid/icpc-1-nl"/>
                     <code value="K78"/>
                     <display value="Boezemfibrilleren/-fladderen"/>
                  </coding>
               </valueCodeableConcept>
            </component>
         </Observation>
      </resource>
      <search>
         <mode value="include"/>
      </search>
   </entry>
   <entry>
      <fullUrl value="urn:uuid:df5ead6c-c02f-11ea-1271-020000000000"/>
      <resource>
         <Observation>
            <meta>
               <profile value="http://nictiz.nl/fhir/StructureDefinition/gp-JournalEntry"/>
            </meta>
            <text>
               <status value="generated"/>
               <div xmlns="http://www.w3.org/1999/xhtml">
                  <table>
                     <caption>Observatie/bepaling. Subject: J. XXX_Cevat. Status: definitief</caption>
                     <tbody>
                        <tr>
                           <th>Context</th>
                           <td>Contact ID: MedMijHG_contactmoment01 2.16.840.1.113883.2.4.3.111.19.1 (Id: MedMijHG_contactmoment01 (urn:oid:2.16.840.1.113883.2.4.3.111.19.1))</td>
                        </tr>
                        <tr>
                           <th>Code</th>
                           <th>Waarde</th>
                        </tr>
                        <tr>
                           <td>
                              <span title="Plan (P - http://fhir.nl/fhir/NamingSystem/journaalregeltypen)">Plan</span>
                           </td>
                           <td>Naar SEH.</td>
                        </tr>
                     </tbody>
                  </table>
               </div>
            </text>
            <status value="final"/>
            <code>
               <coding>
                  <system value="http://fhir.nl/fhir/NamingSystem/journaalregeltypen"/>
                  <code value="P"/>
                  <display value="Plan"/>
               </coding>
            </code>
            <subject>
               <reference value="urn:uuid:df5eb880-c02f-11ea-1271-020000000000"/>
               <display value="J. XXX_Cevat"/>
            </subject>
            <context>
               <identifier>
                  <system value="urn:oid:2.16.840.1.113883.2.4.3.111.19.1"/>
                  <value value="MedMijHG_contactmoment01"/>
               </identifier>
               <display value="Contact ID: MedMijHG_contactmoment01 2.16.840.1.113883.2.4.3.111.19.1"/>
            </context>
            <valueString value="Naar SEH."/>
         </Observation>
      </resource>
      <search>
         <mode value="include"/>
      </search>
   </entry>
</Bundle>