<?xml-model href="http://hl7.org/fhir/STU3/bundle.sch" type="application/xml" schematypens="http://purl.oclc.org/dsdl/schematron"?><Bundle xmlns="http://hl7.org/fhir"
        xmlns:xsi="http://www.w3.org/2001/XMLSchema-instance"
        xsi:schemaLocation="http://hl7.org/fhir http://hl7.org/fhir/STU3/fhir-all.xsd">
   <id value="fe855462-4d3b-11ec-2007-020000000000"/>
   <type value="searchset"/>
   <total value="18"/>
   <link>
      <relation value="self"/>
      <url value="http://dummy.nictiz.nl/dummyquery"/>
   </link>
   <entry>
      <fullUrl value="https://example.org/fhir/Composition/2.16.528.1.1007.3.3.765332.1.12-MedMijHG-contactverslag09"/>
      <resource>
         <Composition>
            <id value="2.16.528.1.1007.3.3.765332.1.12-MedMijHG-contactverslag09"/>
            <meta>
               <profile value="http://nictiz.nl/fhir/StructureDefinition/gp-EncounterReport"/>
            </meta>
            <text>
               <status value="extensions"/>
               <div xmlns="http://www.w3.org/1999/xhtml">
                  <b>Tinea Pedis</b>
                  <table>
                     <caption>Samengestelde informatie. Subject: H. XXX_Mulders. Id: MedMijHG-contactverslag09 (urn:oid:2.16.528.1.1007.3.3.765332.1.12), Status: definitief<span style="display: block;">Auteur: <a href="https://example.org/fhir/Practitioner/2.16.528.1.1007.3.1-900016431">Huisarts 1</a>
                        </span>
                     </caption>
                     <tbody>
                        <tr>
                           <th>Type</th>
                           <td>
                              <span title="Summarization of encounter note Narrative (67781-5 - LOINC)">Summarization of encounter note Narrative</span>
                           </td>
                        </tr>
                        <tr>
                           <th>Gemaakt</th>
                           <td>15:41:54, 8 oktober 2019</td>
                        </tr>
                        <tr>
                           <th>Contact</th>
                           <td>Contact ID: MedMijHG-contactmoment09 2.16.840.1.113883.2.4.3.111.19.1 (Id: MedMijHG-contactmoment09 (urn:oid:2.16.840.1.113883.2.4.3.111.19.1))</td>
                        </tr>
                        <tr>
                           <th>Gebeurtenis</th>
                           <td>Episode: MedMijHG-concern-S74.01 2.16.840.1.113883.2.4.3.111.19.1 (Id: MedMijHG-concern-S74.01 (urn:oid:2.16.840.1.113883.2.4.3.111.19.1))</td>
                        </tr>
                     </tbody>
                  </table>
               </div>
            </text>
            <identifier>
               <system value="urn:oid:2.16.528.1.1007.3.3.765332.1.12"/>
               <value value="MedMijHG-contactverslag09"/>
            </identifier>
            <status value="final"/>
            <type>
               <coding>
                  <system value="http://loinc.org"/>
                  <code value="67781-5"/>
                  <display value="Summarization of encounter note Narrative"/>
               </coding>
            </type>
            <subject>
               <reference value="urn:uuid:fe8565ee-4d3b-11ec-2007-020000000000"/>
               <display value="H. XXX_Mulders"/>
            </subject>
            <encounter>
               <identifier>
                  <system value="urn:oid:2.16.840.1.113883.2.4.3.111.19.1"/>
                  <value value="MedMijHG-contactmoment09"/>
               </identifier>
               <display value="Contact ID: MedMijHG-contactmoment09 2.16.840.1.113883.2.4.3.111.19.1"/>
            </encounter>
            <date value="2019-10-08T15:41:54+02:00"/>
            <author>
               <reference value="https://example.org/fhir/Practitioner/2.16.528.1.1007.3.1-900016431"/>
               <display value="Huisarts 1"/>
            </author>
            <title value="Tinea Pedis"/>
            <event>
               <detail>
                  <identifier>
                     <system value="urn:oid:2.16.840.1.113883.2.4.3.111.19.1"/>
                     <value value="MedMijHG-concern-S74.01"/>
                  </identifier>
                  <display value="Episode: MedMijHG-concern-S74.01 2.16.840.1.113883.2.4.3.111.19.1"/>
               </detail>
            </event>
            <section>
               <extension url="http://nictiz.nl/fhir/StructureDefinition/code-icpc-1-nl">
                  <valueCodeableConcept>
                     <coding>
                        <system value="http://hl7.org/fhir/sid/icpc-1-nl"/>
                        <code value="S74.01"/>
                        <display value="Tinea Pedis"/>
                     </coding>
                  </valueCodeableConcept>
               </extension>
               <code>
                  <coding>
                     <system value="http://fhir.nl/fhir/NamingSystem/journaalregeltypen"/>
                     <code value="E"/>
                     <display value="Evaluatie"/>
                  </coding>
               </code>
               <text>
                  <status value="generated"/>
                  <div xmlns="http://www.w3.org/1999/xhtml">Mycose</div>
               </text>
               <entry>
                  <reference value="urn:uuid:fe85660f-4d3b-11ec-2007-020000000000"/>
                  <display value="E: Evaluatie - Mycose"/>
               </entry>
               <entry>
                  <identifier>
                     <system value="urn:oid:2.16.840.1.113883.2.4.3.111.19.1"/>
                     <value value="MedMijHG-concern-S74.01"/>
                  </identifier>
                  <display value="Episode: MedMijHG-concern-S74.01 2.16.840.1.113883.2.4.3.111.19.1"/>
               </entry>
            </section>
            <section>
               <code>
                  <coding>
                     <system value="http://fhir.nl/fhir/NamingSystem/journaalregeltypen"/>
                     <code value="P"/>
                     <display value="Plan"/>
                  </coding>
               </code>
               <text>
                  <status value="generated"/>
                  <div xmlns="http://www.w3.org/1999/xhtml">Heeft nog canesten via drogist; 2x daags gebruiken.</div>
               </text>
               <entry>
                  <reference value="urn:uuid:fe856619-4d3b-11ec-2007-020000000000"/>
                  <display value="P: Plan - Heeft nog canesten via drogist; 2x daags gebruiken."/>
               </entry>
               <entry>
                  <identifier>
                     <system value="urn:oid:2.16.840.1.113883.2.4.3.111.19.1"/>
                     <value value="MedMijHG-concern-S74.01"/>
                  </identifier>
                  <display value="Episode: MedMijHG-concern-S74.01 2.16.840.1.113883.2.4.3.111.19.1"/>
               </entry>
            </section>
         </Composition>
      </resource>
      <search>
         <mode value="match"/>
      </search>
   </entry>
   <entry>
      <fullUrl value="https://example.org/fhir/Composition/2.16.528.1.1007.3.3.765332.1.12-MedMijHG-contactverslag16"/>
      <resource>
         <Composition>
            <id value="2.16.528.1.1007.3.3.765332.1.12-MedMijHG-contactverslag16"/>
            <meta>
               <profile value="http://nictiz.nl/fhir/StructureDefinition/gp-EncounterReport"/>
            </meta>
            <text>
               <status value="extensions"/>
               <div xmlns="http://www.w3.org/1999/xhtml">
                  <b>HNP (thoracaal/lumbaal)</b>
                  <table>
                     <caption>Samengestelde informatie. Subject: H. XXX_Mulders. Id: MedMijHG-contactverslag16 (urn:oid:2.16.528.1.1007.3.3.765332.1.12), Status: definitief<span style="display: block;">Auteur: <a href="https://example.org/fhir/Practitioner/2.16.528.1.1007.3.1-900016431">Huisarts 1</a>
                        </span>
                     </caption>
                     <tbody>
                        <tr>
                           <th>Type</th>
                           <td>
                              <span title="Summarization of encounter note Narrative (67781-5 - LOINC)">Summarization of encounter note Narrative</span>
                           </td>
                        </tr>
                        <tr>
                           <th>Gemaakt</th>
                           <td>14:41:54, 31 januari 2020</td>
                        </tr>
                        <tr>
                           <th>Contact</th>
                           <td>Contact ID: MedMijHG-contactmoment16 2.16.840.1.113883.2.4.3.111.19.1 (Id: MedMijHG-contactmoment16 (urn:oid:2.16.840.1.113883.2.4.3.111.19.1))</td>
                        </tr>
                        <tr>
                           <th>Gebeurtenis</th>
                           <td>Episode: MedMijHG-concern-L86.01 2.16.840.1.113883.2.4.3.111.19.1 (Id: MedMijHG-concern-L86.01 (urn:oid:2.16.840.1.113883.2.4.3.111.19.1))</td>
                        </tr>
                     </tbody>
                  </table>
               </div>
            </text>
            <identifier>
               <system value="urn:oid:2.16.528.1.1007.3.3.765332.1.12"/>
               <value value="MedMijHG-contactverslag16"/>
            </identifier>
            <status value="final"/>
            <type>
               <coding>
                  <system value="http://loinc.org"/>
                  <code value="67781-5"/>
                  <display value="Summarization of encounter note Narrative"/>
               </coding>
            </type>
            <subject>
               <reference value="urn:uuid:fe8565ee-4d3b-11ec-2007-020000000000"/>
               <display value="H. XXX_Mulders"/>
            </subject>
            <encounter>
               <identifier>
                  <system value="urn:oid:2.16.840.1.113883.2.4.3.111.19.1"/>
                  <value value="MedMijHG-contactmoment16"/>
               </identifier>
               <display value="Contact ID: MedMijHG-contactmoment16 2.16.840.1.113883.2.4.3.111.19.1"/>
            </encounter>
            <date value="2020-01-31T14:41:54+01:00"/>
            <author>
               <reference value="https://example.org/fhir/Practitioner/2.16.528.1.1007.3.1-900016431"/>
               <display value="Huisarts 1"/>
            </author>
            <title value="HNP (thoracaal/lumbaal)"/>
            <event>
               <detail>
                  <identifier>
                     <system value="urn:oid:2.16.840.1.113883.2.4.3.111.19.1"/>
                     <value value="MedMijHG-concern-L86.01"/>
                  </identifier>
                  <display value="Episode: MedMijHG-concern-L86.01 2.16.840.1.113883.2.4.3.111.19.1"/>
               </detail>
            </event>
            <section>
               <extension url="http://nictiz.nl/fhir/StructureDefinition/code-icpc-1-nl">
                  <valueCodeableConcept>
                     <coding>
                        <system value="http://hl7.org/fhir/sid/icpc-1-nl"/>
                        <code value="L86.01"/>
                        <display value="HNP (thoracaal/lumbaal)"/>
                     </coding>
                  </valueCodeableConcept>
               </extension>
               <code>
                  <coding>
                     <system value="http://fhir.nl/fhir/NamingSystem/journaalregeltypen"/>
                     <code value="E"/>
                     <display value="Evaluatie"/>
                  </coding>
               </code>
               <text>
                  <status value="generated"/>
                  <div xmlns="http://www.w3.org/1999/xhtml">HNP</div>
               </text>
               <entry>
                  <reference value="urn:uuid:fe85662e-4d3b-11ec-2007-020000000000"/>
                  <display value="E: Evaluatie - HNP"/>
               </entry>
               <entry>
                  <identifier>
                     <system value="urn:oid:2.16.840.1.113883.2.4.3.111.19.1"/>
                     <value value="MedMijHG-concern-L86.01"/>
                  </identifier>
                  <display value="Episode: MedMijHG-concern-L86.01 2.16.840.1.113883.2.4.3.111.19.1"/>
               </entry>
            </section>
            <section>
               <code>
                  <coding>
                     <system value="http://fhir.nl/fhir/NamingSystem/journaalregeltypen"/>
                     <code value="P"/>
                     <display value="Plan"/>
                  </coding>
               </code>
               <text>
                  <status value="generated"/>
                  <div xmlns="http://www.w3.org/1999/xhtml">Patiënt geïnformeerd, ziet het nog even aan.</div>
               </text>
               <entry>
                  <reference value="urn:uuid:fe856638-4d3b-11ec-2007-020000000000"/>
                  <display value="P: Plan - Patiënt geïnformeerd, ziet het nog even aan."/>
               </entry>
               <entry>
                  <identifier>
                     <system value="urn:oid:2.16.840.1.113883.2.4.3.111.19.1"/>
                     <value value="MedMijHG-concern-L86.01"/>
                  </identifier>
                  <display value="Episode: MedMijHG-concern-L86.01 2.16.840.1.113883.2.4.3.111.19.1"/>
               </entry>
            </section>
         </Composition>
      </resource>
      <search>
         <mode value="match"/>
      </search>
   </entry>
   <entry>
      <fullUrl value="https://example.org/fhir/Composition/2.16.840.1.113883.2.4.3.111.19.1-MedMijHG-contactverslag13"/>
      <resource>
         <Composition>
            <id value="2.16.840.1.113883.2.4.3.111.19.1-MedMijHG-contactverslag13"/>
            <meta>
               <profile value="http://nictiz.nl/fhir/StructureDefinition/gp-EncounterReport"/>
            </meta>
            <text>
               <status value="extensions"/>
               <div xmlns="http://www.w3.org/1999/xhtml">
                  <b>Keelpijn</b>
                  <table>
                     <caption>Samengestelde informatie. Subject: H. XXX_Mulders. Id: MedMijHG-contactverslag13 (urn:oid:2.16.840.1.113883.2.4.3.111.19.1), Status: definitief<span style="display: block;">Auteur: <a href="https://example.org/fhir/Practitioner/2.16.528.1.1007.3.1-900016431">Huisarts 1</a>
                        </span>
                     </caption>
                     <tbody>
                        <tr>
                           <th>Type</th>
                           <td>
                              <span title="Summarization of encounter note Narrative (67781-5 - LOINC)">Summarization of encounter note Narrative</span>
                           </td>
                        </tr>
                        <tr>
                           <th>Gemaakt</th>
                           <td>14:41:54, 16 maart 2020</td>
                        </tr>
                        <tr>
                           <th>Contact</th>
                           <td>Contact ID: MedMijHG-contactmoment13 2.16.840.1.113883.2.4.3.111.19.1 (Id: MedMijHG-contactmoment13 (urn:oid:2.16.840.1.113883.2.4.3.111.19.1))</td>
                        </tr>
                        <tr>
                           <th>Gebeurtenis</th>
                           <td>Episode: MedMijHG-concern-R21.01 2.16.840.1.113883.2.4.3.111.19.1 (Id: MedMijHG-concern-R21.01 (urn:oid:2.16.840.1.113883.2.4.3.111.19.1))</td>
                        </tr>
                     </tbody>
                  </table>
               </div>
            </text>
            <identifier>
               <system value="urn:oid:2.16.840.1.113883.2.4.3.111.19.1"/>
               <value value="MedMijHG-contactverslag13"/>
            </identifier>
            <status value="final"/>
            <type>
               <coding>
                  <system value="http://loinc.org"/>
                  <code value="67781-5"/>
                  <display value="Summarization of encounter note Narrative"/>
               </coding>
            </type>
            <subject>
               <reference value="urn:uuid:fe8565ee-4d3b-11ec-2007-020000000000"/>
               <display value="H. XXX_Mulders"/>
            </subject>
            <encounter>
               <identifier>
                  <system value="urn:oid:2.16.840.1.113883.2.4.3.111.19.1"/>
                  <value value="MedMijHG-contactmoment13"/>
               </identifier>
               <display value="Contact ID: MedMijHG-contactmoment13 2.16.840.1.113883.2.4.3.111.19.1"/>
            </encounter>
            <date value="2020-03-16T14:41:54+01:00"/>
            <author>
               <reference value="https://example.org/fhir/Practitioner/2.16.528.1.1007.3.1-900016431"/>
               <display value="Huisarts 1"/>
            </author>
            <title value="Keelpijn"/>
            <event>
               <detail>
                  <identifier>
                     <system value="urn:oid:2.16.840.1.113883.2.4.3.111.19.1"/>
                     <value value="MedMijHG-concern-R21.01"/>
                  </identifier>
                  <display value="Episode: MedMijHG-concern-R21.01 2.16.840.1.113883.2.4.3.111.19.1"/>
               </detail>
            </event>
            <section>
               <extension url="http://nictiz.nl/fhir/StructureDefinition/code-icpc-1-nl">
                  <valueCodeableConcept>
                     <coding>
                        <system value="http://hl7.org/fhir/sid/icpc-1-nl"/>
                        <code value="R21.01"/>
                        <display value="Keelpijn"/>
                     </coding>
                  </valueCodeableConcept>
               </extension>
               <code>
                  <coding>
                     <system value="http://fhir.nl/fhir/NamingSystem/journaalregeltypen"/>
                     <code value="E"/>
                     <display value="Evaluatie"/>
                  </coding>
               </code>
               <text>
                  <status value="generated"/>
                  <div xmlns="http://www.w3.org/1999/xhtml">Keelpijn eci.</div>
               </text>
               <entry>
                  <reference value="urn:uuid:fe8551fd-4d3b-11ec-2007-020000000000"/>
                  <display value="E: Evaluatie - Keelpijn eci."/>
               </entry>
               <entry>
                  <identifier>
                     <system value="urn:oid:2.16.840.1.113883.2.4.3.111.19.1"/>
                     <value value="MedMijHG-concern-R21.01"/>
                  </identifier>
                  <display value="Episode: MedMijHG-concern-R21.01 2.16.840.1.113883.2.4.3.111.19.1"/>
               </entry>
            </section>
         </Composition>
      </resource>
      <search>
         <mode value="match"/>
      </search>
   </entry>
   <entry>
      <fullUrl value="https://example.org/fhir/Composition/2.16.528.1.1007.3.3.765332.1.12-MedMijHG-contactverslag17"/>
      <resource>
         <Composition>
            <id value="2.16.528.1.1007.3.3.765332.1.12-MedMijHG-contactverslag17"/>
            <meta>
               <profile value="http://nictiz.nl/fhir/StructureDefinition/gp-EncounterReport"/>
            </meta>
            <text>
               <status value="extensions"/>
               <div xmlns="http://www.w3.org/1999/xhtml">
                  <b>HNP (thoracaal/lumbaal)</b>
                  <table>
                     <caption>Samengestelde informatie. Subject: H. XXX_Mulders. Id: MedMijHG-contactverslag17 (urn:oid:2.16.528.1.1007.3.3.765332.1.12), Status: definitief<span style="display: block;">Auteur: <a href="https://example.org/fhir/Practitioner/2.16.528.1.1007.3.1-900016431">Huisarts 1</a>
                        </span>
                     </caption>
                     <tbody>
                        <tr>
                           <th>Type</th>
                           <td>
                              <span title="Summarization of encounter note Narrative (67781-5 - LOINC)">Summarization of encounter note Narrative</span>
                           </td>
                        </tr>
                        <tr>
                           <th>Gemaakt</th>
                           <td>14:41:54, 11 maart 2020</td>
                        </tr>
                        <tr>
                           <th>Contact</th>
                           <td>Contact ID: MedMijHG-contactmoment17 2.16.840.1.113883.2.4.3.111.19.1 (Id: MedMijHG-contactmoment17 (urn:oid:2.16.840.1.113883.2.4.3.111.19.1))</td>
                        </tr>
                        <tr>
                           <th>Gebeurtenis</th>
                           <td>Episode: MedMijHG-concern-L86.01 2.16.840.1.113883.2.4.3.111.19.1 (Id: MedMijHG-concern-L86.01 (urn:oid:2.16.840.1.113883.2.4.3.111.19.1))</td>
                        </tr>
                     </tbody>
                  </table>
               </div>
            </text>
            <identifier>
               <system value="urn:oid:2.16.528.1.1007.3.3.765332.1.12"/>
               <value value="MedMijHG-contactverslag17"/>
            </identifier>
            <status value="final"/>
            <type>
               <coding>
                  <system value="http://loinc.org"/>
                  <code value="67781-5"/>
                  <display value="Summarization of encounter note Narrative"/>
               </coding>
            </type>
            <subject>
               <reference value="urn:uuid:fe8565ee-4d3b-11ec-2007-020000000000"/>
               <display value="H. XXX_Mulders"/>
            </subject>
            <encounter>
               <identifier>
                  <system value="urn:oid:2.16.840.1.113883.2.4.3.111.19.1"/>
                  <value value="MedMijHG-contactmoment17"/>
               </identifier>
               <display value="Contact ID: MedMijHG-contactmoment17 2.16.840.1.113883.2.4.3.111.19.1"/>
            </encounter>
            <date value="2020-03-11T14:41:54+01:00"/>
            <author>
               <reference value="https://example.org/fhir/Practitioner/2.16.528.1.1007.3.1-900016431"/>
               <display value="Huisarts 1"/>
            </author>
            <title value="HNP (thoracaal/lumbaal)"/>
            <event>
               <detail>
                  <identifier>
                     <system value="urn:oid:2.16.840.1.113883.2.4.3.111.19.1"/>
                     <value value="MedMijHG-concern-L86.01"/>
                  </identifier>
                  <display value="Episode: MedMijHG-concern-L86.01 2.16.840.1.113883.2.4.3.111.19.1"/>
               </detail>
            </event>
            <section>
               <extension url="http://nictiz.nl/fhir/StructureDefinition/code-icpc-1-nl">
                  <valueCodeableConcept>
                     <coding>
                        <system value="http://hl7.org/fhir/sid/icpc-1-nl"/>
                        <code value="L86.01"/>
                        <display value="HNP (thoracaal/lumbaal)"/>
                     </coding>
                  </valueCodeableConcept>
               </extension>
               <code>
                  <coding>
                     <system value="http://fhir.nl/fhir/NamingSystem/journaalregeltypen"/>
                     <code value="E"/>
                     <display value="Evaluatie"/>
                  </coding>
               </code>
               <text>
                  <status value="generated"/>
                  <div xmlns="http://www.w3.org/1999/xhtml">HNP</div>
               </text>
               <entry>
                  <reference value="urn:uuid:fe85521a-4d3b-11ec-2007-020000000000"/>
                  <display value="E: Evaluatie - HNP"/>
               </entry>
               <entry>
                  <identifier>
                     <system value="urn:oid:2.16.840.1.113883.2.4.3.111.19.1"/>
                     <value value="MedMijHG-concern-L86.01"/>
                  </identifier>
                  <display value="Episode: MedMijHG-concern-L86.01 2.16.840.1.113883.2.4.3.111.19.1"/>
               </entry>
            </section>
            <section>
               <code>
                  <coding>
                     <system value="http://fhir.nl/fhir/NamingSystem/journaalregeltypen"/>
                     <code value="P"/>
                     <display value="Plan"/>
                  </coding>
               </code>
               <text>
                  <status value="generated"/>
                  <div xmlns="http://www.w3.org/1999/xhtml">Nogmaals verwijzing Cesar</div>
               </text>
               <entry>
                  <reference value="urn:uuid:fe855224-4d3b-11ec-2007-020000000000"/>
                  <display value="P: Plan - Nogmaals verwijzing Cesar"/>
               </entry>
               <entry>
                  <identifier>
                     <system value="urn:oid:2.16.840.1.113883.2.4.3.111.19.1"/>
                     <value value="MedMijHG-concern-L86.01"/>
                  </identifier>
                  <display value="Episode: MedMijHG-concern-L86.01 2.16.840.1.113883.2.4.3.111.19.1"/>
               </entry>
            </section>
         </Composition>
      </resource>
      <search>
         <mode value="match"/>
      </search>
   </entry>
   <entry>
      <fullUrl value="https://example.org/fhir/Composition/2.16.528.1.1007.3.3.765332.1.12-MedMijHG-contactverslag12"/>
      <resource>
         <Composition>
            <id value="2.16.528.1.1007.3.3.765332.1.12-MedMijHG-contactverslag12"/>
            <meta>
               <profile value="http://nictiz.nl/fhir/StructureDefinition/gp-EncounterReport"/>
            </meta>
            <text>
               <status value="extensions"/>
               <div xmlns="http://www.w3.org/1999/xhtml">
                  <b>Keelpijn</b>
                  <table>
                     <caption>Samengestelde informatie. Subject: H. XXX_Mulders. Id: MedMijHG-contactverslag12 (urn:oid:2.16.528.1.1007.3.3.765332.1.12), Status: definitief<span style="display: block;">Auteur: <a href="https://example.org/fhir/Practitioner/2.16.528.1.1007.3.1-900016431">Huisarts 1</a>
                        </span>
                     </caption>
                     <tbody>
                        <tr>
                           <th>Type</th>
                           <td>
                              <span title="Summarization of encounter note Narrative (67781-5 - LOINC)">Summarization of encounter note Narrative</span>
                           </td>
                        </tr>
                        <tr>
                           <th>Gemaakt</th>
                           <td>14:41:54, 5 februari 2020</td>
                        </tr>
                        <tr>
                           <th>Contact</th>
                           <td>Contact ID: MedMijHG-contactmoment12 2.16.840.1.113883.2.4.3.111.19.1 (Id: MedMijHG-contactmoment12 (urn:oid:2.16.840.1.113883.2.4.3.111.19.1))</td>
                        </tr>
                        <tr>
                           <th>Gebeurtenis</th>
                           <td>Episode: MedMijHG-concern-R21.01 2.16.840.1.113883.2.4.3.111.19.1 (Id: MedMijHG-concern-R21.01 (urn:oid:2.16.840.1.113883.2.4.3.111.19.1))</td>
                        </tr>
                     </tbody>
                  </table>
               </div>
            </text>
            <identifier>
               <system value="urn:oid:2.16.528.1.1007.3.3.765332.1.12"/>
               <value value="MedMijHG-contactverslag12"/>
            </identifier>
            <status value="final"/>
            <type>
               <coding>
                  <system value="http://loinc.org"/>
                  <code value="67781-5"/>
                  <display value="Summarization of encounter note Narrative"/>
               </coding>
            </type>
            <subject>
               <reference value="urn:uuid:fe8565ee-4d3b-11ec-2007-020000000000"/>
               <display value="H. XXX_Mulders"/>
            </subject>
            <encounter>
               <identifier>
                  <system value="urn:oid:2.16.840.1.113883.2.4.3.111.19.1"/>
                  <value value="MedMijHG-contactmoment12"/>
               </identifier>
               <display value="Contact ID: MedMijHG-contactmoment12 2.16.840.1.113883.2.4.3.111.19.1"/>
            </encounter>
            <date value="2020-02-05T14:41:54+01:00"/>
            <author>
               <reference value="https://example.org/fhir/Practitioner/2.16.528.1.1007.3.1-900016431"/>
               <display value="Huisarts 1"/>
            </author>
            <title value="Keelpijn"/>
            <event>
               <detail>
                  <identifier>
                     <system value="urn:oid:2.16.840.1.113883.2.4.3.111.19.1"/>
                     <value value="MedMijHG-concern-R21.01"/>
                  </identifier>
                  <display value="Episode: MedMijHG-concern-R21.01 2.16.840.1.113883.2.4.3.111.19.1"/>
               </detail>
            </event>
            <section>
               <extension url="http://nictiz.nl/fhir/StructureDefinition/code-icpc-1-nl">
                  <valueCodeableConcept>
                     <coding>
                        <system value="http://hl7.org/fhir/sid/icpc-1-nl"/>
                        <code value="R21.01"/>
                        <display value="Keelpijn"/>
                     </coding>
                  </valueCodeableConcept>
               </extension>
               <code>
                  <coding>
                     <system value="http://fhir.nl/fhir/NamingSystem/journaalregeltypen"/>
                     <code value="E"/>
                     <display value="Evaluatie"/>
                  </coding>
               </code>
               <text>
                  <status value="generated"/>
                  <div xmlns="http://www.w3.org/1999/xhtml">Keelpijn eci.</div>
               </text>
               <entry>
                  <reference value="urn:uuid:fe855239-4d3b-11ec-2007-020000000000"/>
                  <display value="E: Evaluatie - Keelpijn eci."/>
               </entry>
               <entry>
                  <identifier>
                     <system value="urn:oid:2.16.840.1.113883.2.4.3.111.19.1"/>
                     <value value="MedMijHG-concern-R21.01"/>
                  </identifier>
                  <display value="Episode: MedMijHG-concern-R21.01 2.16.840.1.113883.2.4.3.111.19.1"/>
               </entry>
            </section>
            <section>
               <code>
                  <coding>
                     <system value="http://fhir.nl/fhir/NamingSystem/journaalregeltypen"/>
                     <code value="P"/>
                     <display value="Plan"/>
                  </coding>
               </code>
               <text>
                  <status value="generated"/>
                  <div xmlns="http://www.w3.org/1999/xhtml">Bezoek brengen aan de tandarts, wellicht zit er daar iets.</div>
               </text>
               <entry>
                  <reference value="urn:uuid:fe855243-4d3b-11ec-2007-020000000000"/>
                  <display value="P: Plan - Bezoek brengen aan de tandarts, wellicht zit er daar iets."/>
               </entry>
               <entry>
                  <identifier>
                     <system value="urn:oid:2.16.840.1.113883.2.4.3.111.19.1"/>
                     <value value="MedMijHG-concern-R21.01"/>
                  </identifier>
                  <display value="Episode: MedMijHG-concern-R21.01 2.16.840.1.113883.2.4.3.111.19.1"/>
               </entry>
            </section>
         </Composition>
      </resource>
      <search>
         <mode value="match"/>
      </search>
   </entry>
   <entry>
      <fullUrl value="https://example.org/fhir/Composition/2.16.528.1.1007.3.3.765332.1.12-MedMijHG-contactverslag15"/>
      <resource>
         <Composition>
            <id value="2.16.528.1.1007.3.3.765332.1.12-MedMijHG-contactverslag15"/>
            <meta>
               <profile value="http://nictiz.nl/fhir/StructureDefinition/gp-EncounterReport"/>
            </meta>
            <text>
               <status value="extensions"/>
               <div xmlns="http://www.w3.org/1999/xhtml">
                  <b>HNP (thoracaal/lumbaal)</b>
                  <table>
                     <caption>Samengestelde informatie. Subject: H. XXX_Mulders. Id: MedMijHG-contactverslag15 (urn:oid:2.16.528.1.1007.3.3.765332.1.12), Status: definitief<span style="display: block;">Auteur: <a href="https://example.org/fhir/Practitioner/2.16.528.1.1007.3.1-900016431">Huisarts 1</a>
                        </span>
                     </caption>
                     <tbody>
                        <tr>
                           <th>Type</th>
                           <td>
                              <span title="Summarization of encounter note Narrative (67781-5 - LOINC)">Summarization of encounter note Narrative</span>
                           </td>
                        </tr>
                        <tr>
                           <th>Gemaakt</th>
                           <td>14:41:54, 26 januari 2020</td>
                        </tr>
                        <tr>
                           <th>Contact</th>
                           <td>Contact ID: MedMijHG-contactmoment15 2.16.840.1.113883.2.4.3.111.19.1 (Id: MedMijHG-contactmoment15 (urn:oid:2.16.840.1.113883.2.4.3.111.19.1))</td>
                        </tr>
                        <tr>
                           <th>Gebeurtenis</th>
                           <td>Episode: MedMijHG-concern-L86.01 2.16.840.1.113883.2.4.3.111.19.1 (Id: MedMijHG-concern-L86.01 (urn:oid:2.16.840.1.113883.2.4.3.111.19.1))</td>
                        </tr>
                     </tbody>
                  </table>
               </div>
            </text>
            <identifier>
               <system value="urn:oid:2.16.528.1.1007.3.3.765332.1.12"/>
               <value value="MedMijHG-contactverslag15"/>
            </identifier>
            <status value="final"/>
            <type>
               <coding>
                  <system value="http://loinc.org"/>
                  <code value="67781-5"/>
                  <display value="Summarization of encounter note Narrative"/>
               </coding>
            </type>
            <subject>
               <reference value="urn:uuid:fe8565ee-4d3b-11ec-2007-020000000000"/>
               <display value="H. XXX_Mulders"/>
            </subject>
            <encounter>
               <identifier>
                  <system value="urn:oid:2.16.840.1.113883.2.4.3.111.19.1"/>
                  <value value="MedMijHG-contactmoment15"/>
               </identifier>
               <display value="Contact ID: MedMijHG-contactmoment15 2.16.840.1.113883.2.4.3.111.19.1"/>
            </encounter>
            <date value="2020-01-26T14:41:54+01:00"/>
            <author>
               <reference value="https://example.org/fhir/Practitioner/2.16.528.1.1007.3.1-900016431"/>
               <display value="Huisarts 1"/>
            </author>
            <title value="HNP (thoracaal/lumbaal)"/>
            <event>
               <detail>
                  <identifier>
                     <system value="urn:oid:2.16.840.1.113883.2.4.3.111.19.1"/>
                     <value value="MedMijHG-concern-L86.01"/>
                  </identifier>
                  <display value="Episode: MedMijHG-concern-L86.01 2.16.840.1.113883.2.4.3.111.19.1"/>
               </detail>
            </event>
            <section>
               <extension url="http://nictiz.nl/fhir/StructureDefinition/code-icpc-1-nl">
                  <valueCodeableConcept>
                     <coding>
                        <system value="http://hl7.org/fhir/sid/icpc-1-nl"/>
                        <code value="L86.01"/>
                        <display value="HNP (thoracaal/lumbaal)"/>
                     </coding>
                  </valueCodeableConcept>
               </extension>
               <code>
                  <coding>
                     <system value="http://fhir.nl/fhir/NamingSystem/journaalregeltypen"/>
                     <code value="E"/>
                     <display value="Evaluatie"/>
                  </coding>
               </code>
               <text>
                  <status value="generated"/>
                  <div xmlns="http://www.w3.org/1999/xhtml">HNP</div>
               </text>
               <entry>
                  <reference value="urn:uuid:fe855258-4d3b-11ec-2007-020000000000"/>
                  <display value="E: Evaluatie - HNP"/>
               </entry>
               <entry>
                  <identifier>
                     <system value="urn:oid:2.16.840.1.113883.2.4.3.111.19.1"/>
                     <value value="MedMijHG-concern-L86.01"/>
                  </identifier>
                  <display value="Episode: MedMijHG-concern-L86.01 2.16.840.1.113883.2.4.3.111.19.1"/>
               </entry>
            </section>
            <section>
               <code>
                  <coding>
                     <system value="http://fhir.nl/fhir/NamingSystem/journaalregeltypen"/>
                     <code value="P"/>
                     <display value="Plan"/>
                  </coding>
               </code>
               <text>
                  <status value="generated"/>
                  <div xmlns="http://www.w3.org/1999/xhtml">Scan laten maken, afspraak gepland.</div>
               </text>
               <entry>
                  <reference value="urn:uuid:fe855262-4d3b-11ec-2007-020000000000"/>
                  <display value="P: Plan - Scan laten maken, afspraak gepland."/>
               </entry>
               <entry>
                  <identifier>
                     <system value="urn:oid:2.16.840.1.113883.2.4.3.111.19.1"/>
                     <value value="MedMijHG-concern-L86.01"/>
                  </identifier>
                  <display value="Episode: MedMijHG-concern-L86.01 2.16.840.1.113883.2.4.3.111.19.1"/>
               </entry>
            </section>
         </Composition>
      </resource>
      <search>
         <mode value="match"/>
      </search>
   </entry>
   <entry>
      <fullUrl value="https://example.org/fhir/Composition/2.16.528.1.1007.3.3.765332.1.12-MedMijHG-contactverslag14"/>
      <resource>
         <Composition>
            <id value="2.16.528.1.1007.3.3.765332.1.12-MedMijHG-contactverslag14"/>
            <meta>
               <profile value="http://nictiz.nl/fhir/StructureDefinition/gp-EncounterReport"/>
            </meta>
            <text>
               <status value="extensions"/>
               <div xmlns="http://www.w3.org/1999/xhtml">
                  <b>lage rugpijn</b>
                  <table>
                     <caption>Samengestelde informatie. Subject: H. XXX_Mulders. Id: MedMijHG-contactverslag14 (urn:oid:2.16.528.1.1007.3.3.765332.1.12), Status: definitief<span style="display: block;">Auteur: <a href="https://example.org/fhir/Practitioner/2.16.528.1.1007.3.1-900016431">Huisarts 1</a>
                        </span>
                     </caption>
                     <tbody>
                        <tr>
                           <th>Type</th>
                           <td>
                              <span title="Summarization of encounter note Narrative (67781-5 - LOINC)">Summarization of encounter note Narrative</span>
                           </td>
                        </tr>
                        <tr>
                           <th>Gemaakt</th>
                           <td>14:41:54, 6 januari 2020</td>
                        </tr>
                        <tr>
                           <th>Contact</th>
                           <td>Contact ID: MedMijHG-contactmoment14 2.16.840.1.113883.2.4.3.111.19.1 (Id: MedMijHG-contactmoment14 (urn:oid:2.16.840.1.113883.2.4.3.111.19.1))</td>
                        </tr>
                        <tr>
                           <th>Gebeurtenis</th>
                           <td>Episode: MedMijHG-concern-L86.01 2.16.840.1.113883.2.4.3.111.19.1 (Id: MedMijHG-concern-L86.01 (urn:oid:2.16.840.1.113883.2.4.3.111.19.1))</td>
                        </tr>
                     </tbody>
                  </table>
               </div>
            </text>
            <identifier>
               <system value="urn:oid:2.16.528.1.1007.3.3.765332.1.12"/>
               <value value="MedMijHG-contactverslag14"/>
            </identifier>
            <status value="final"/>
            <type>
               <coding>
                  <system value="http://loinc.org"/>
                  <code value="67781-5"/>
                  <display value="Summarization of encounter note Narrative"/>
               </coding>
            </type>
            <subject>
               <reference value="urn:uuid:fe8565ee-4d3b-11ec-2007-020000000000"/>
               <display value="H. XXX_Mulders"/>
            </subject>
            <encounter>
               <identifier>
                  <system value="urn:oid:2.16.840.1.113883.2.4.3.111.19.1"/>
                  <value value="MedMijHG-contactmoment14"/>
               </identifier>
               <display value="Contact ID: MedMijHG-contactmoment14 2.16.840.1.113883.2.4.3.111.19.1"/>
            </encounter>
            <date value="2020-01-06T14:41:54+01:00"/>
            <author>
               <reference value="https://example.org/fhir/Practitioner/2.16.528.1.1007.3.1-900016431"/>
               <display value="Huisarts 1"/>
            </author>
            <title value="lage rugpijn"/>
            <event>
               <detail>
                  <identifier>
                     <system value="urn:oid:2.16.840.1.113883.2.4.3.111.19.1"/>
                     <value value="MedMijHG-concern-L86.01"/>
                  </identifier>
                  <display value="Episode: MedMijHG-concern-L86.01 2.16.840.1.113883.2.4.3.111.19.1"/>
               </detail>
            </event>
            <section>
               <extension url="http://nictiz.nl/fhir/StructureDefinition/code-icpc-1-nl">
                  <valueCodeableConcept>
                     <coding>
                        <system value="http://hl7.org/fhir/sid/icpc-1-nl"/>
                        <code value="L03"/>
                        <display value="lage rugpijn"/>
                     </coding>
                  </valueCodeableConcept>
               </extension>
               <code>
                  <coding>
                     <system value="http://fhir.nl/fhir/NamingSystem/journaalregeltypen"/>
                     <code value="E"/>
                     <display value="Evaluatie"/>
                  </coding>
               </code>
               <text>
                  <status value="generated"/>
                  <div xmlns="http://www.w3.org/1999/xhtml">Lage rugpijn</div>
               </text>
               <entry>
                  <reference value="urn:uuid:fe855277-4d3b-11ec-2007-020000000000"/>
                  <display value="E: Evaluatie - Lage rugpijn"/>
               </entry>
               <entry>
                  <identifier>
                     <system value="urn:oid:2.16.840.1.113883.2.4.3.111.19.1"/>
                     <value value="MedMijHG-concern-L86.01"/>
                  </identifier>
                  <display value="Episode: MedMijHG-concern-L86.01 2.16.840.1.113883.2.4.3.111.19.1"/>
               </entry>
            </section>
            <section>
               <code>
                  <coding>
                     <system value="http://fhir.nl/fhir/NamingSystem/journaalregeltypen"/>
                     <code value="P"/>
                     <display value="Plan"/>
                  </coding>
               </code>
               <text>
                  <status value="generated"/>
                  <div xmlns="http://www.w3.org/1999/xhtml">Cesar of Mensendieck. Verwijzing aangemaakt</div>
               </text>
               <entry>
                  <reference value="urn:uuid:fe855281-4d3b-11ec-2007-020000000000"/>
                  <display value="P: Plan - Cesar of Mensendieck. Verwijzing aangemaakt"/>
               </entry>
               <entry>
                  <identifier>
                     <system value="urn:oid:2.16.840.1.113883.2.4.3.111.19.1"/>
                     <value value="MedMijHG-concern-L86.01"/>
                  </identifier>
                  <display value="Episode: MedMijHG-concern-L86.01 2.16.840.1.113883.2.4.3.111.19.1"/>
               </entry>
            </section>
         </Composition>
      </resource>
      <search>
         <mode value="match"/>
      </search>
   </entry>
   <entry>
      <fullUrl value="https://example.org/fhir/Composition/2.16.528.1.1007.3.3.765332.1.12-MedMijHG-contactverslag07"/>
      <resource>
         <Composition>
            <id value="2.16.528.1.1007.3.3.765332.1.12-MedMijHG-contactverslag07"/>
            <meta>
               <profile value="http://nictiz.nl/fhir/StructureDefinition/gp-EncounterReport"/>
            </meta>
            <text>
               <status value="extensions"/>
               <div xmlns="http://www.w3.org/1999/xhtml">
                  <b>Maagpijn</b>
                  <table>
                     <caption>Samengestelde informatie. Subject: H. XXX_Mulders. Id: MedMijHG-contactverslag07 (urn:oid:2.16.528.1.1007.3.3.765332.1.12), Status: definitief<span style="display: block;">Auteur: <a href="https://example.org/fhir/Practitioner/2.16.528.1.1007.3.1-900016431">Huisarts 1</a>
                        </span>
                     </caption>
                     <tbody>
                        <tr>
                           <th>Type</th>
                           <td>
                              <span title="Summarization of encounter note Narrative (67781-5 - LOINC)">Summarization of encounter note Narrative</span>
                           </td>
                        </tr>
                        <tr>
                           <th>Gemaakt</th>
                           <td>14:41:54, 22 december 2019</td>
                        </tr>
                        <tr>
                           <th>Contact</th>
                           <td>Contact ID: MedMijHG-contactmoment07 2.16.840.1.113883.2.4.3.111.19.1 (Id: MedMijHG-contactmoment07 (urn:oid:2.16.840.1.113883.2.4.3.111.19.1))</td>
                        </tr>
                        <tr>
                           <th>Gebeurtenis</th>
                           <td>Episode: MedMijHG-concern-D02 2.16.840.1.113883.2.4.3.111.19.1 (Id: MedMijHG-concern-D02 (urn:oid:2.16.840.1.113883.2.4.3.111.19.1))</td>
                        </tr>
                     </tbody>
                  </table>
               </div>
            </text>
            <identifier>
               <system value="urn:oid:2.16.528.1.1007.3.3.765332.1.12"/>
               <value value="MedMijHG-contactverslag07"/>
            </identifier>
            <status value="final"/>
            <type>
               <coding>
                  <system value="http://loinc.org"/>
                  <code value="67781-5"/>
                  <display value="Summarization of encounter note Narrative"/>
               </coding>
            </type>
            <subject>
               <reference value="urn:uuid:fe8565ee-4d3b-11ec-2007-020000000000"/>
               <display value="H. XXX_Mulders"/>
            </subject>
            <encounter>
               <identifier>
                  <system value="urn:oid:2.16.840.1.113883.2.4.3.111.19.1"/>
                  <value value="MedMijHG-contactmoment07"/>
               </identifier>
               <display value="Contact ID: MedMijHG-contactmoment07 2.16.840.1.113883.2.4.3.111.19.1"/>
            </encounter>
            <date value="2019-12-22T14:41:54+01:00"/>
            <author>
               <reference value="https://example.org/fhir/Practitioner/2.16.528.1.1007.3.1-900016431"/>
               <display value="Huisarts 1"/>
            </author>
            <title value="Maagpijn"/>
            <event>
               <detail>
                  <identifier>
                     <system value="urn:oid:2.16.840.1.113883.2.4.3.111.19.1"/>
                     <value value="MedMijHG-concern-D02"/>
                  </identifier>
                  <display value="Episode: MedMijHG-concern-D02 2.16.840.1.113883.2.4.3.111.19.1"/>
               </detail>
            </event>
            <section>
               <extension url="http://nictiz.nl/fhir/StructureDefinition/code-icpc-1-nl">
                  <valueCodeableConcept>
                     <coding>
                        <system value="http://hl7.org/fhir/sid/icpc-1-nl"/>
                        <code value="D02"/>
                        <display value="Maagpijn"/>
                     </coding>
                  </valueCodeableConcept>
               </extension>
               <code>
                  <coding>
                     <system value="http://fhir.nl/fhir/NamingSystem/journaalregeltypen"/>
                     <code value="E"/>
                     <display value="Evaluatie"/>
                  </coding>
               </code>
               <text>
                  <status value="generated"/>
                  <div xmlns="http://www.w3.org/1999/xhtml">Maag/duodenum problemen?</div>
               </text>
               <entry>
                  <reference value="urn:uuid:fe855296-4d3b-11ec-2007-020000000000"/>
                  <display value="E: Evaluatie - Maag/duodenum problemen?"/>
               </entry>
               <entry>
                  <identifier>
                     <system value="urn:oid:2.16.840.1.113883.2.4.3.111.19.1"/>
                     <value value="MedMijHG-concern-D02"/>
                  </identifier>
                  <display value="Episode: MedMijHG-concern-D02 2.16.840.1.113883.2.4.3.111.19.1"/>
               </entry>
            </section>
         </Composition>
      </resource>
      <search>
         <mode value="match"/>
      </search>
   </entry>
   <entry>
      <fullUrl value="https://example.org/fhir/Composition/2.16.528.1.1007.3.3.765332.1.12-MedMijHG-contactverslag10"/>
      <resource>
         <Composition>
            <id value="2.16.528.1.1007.3.3.765332.1.12-MedMijHG-contactverslag10"/>
            <meta>
               <profile value="http://nictiz.nl/fhir/StructureDefinition/gp-EncounterReport"/>
            </meta>
            <text>
               <status value="extensions"/>
               <div xmlns="http://www.w3.org/1999/xhtml">
                  <b>Keelpijn</b>
                  <table>
                     <caption>Samengestelde informatie. Subject: H. XXX_Mulders. Id: MedMijHG-contactverslag10 (urn:oid:2.16.528.1.1007.3.3.765332.1.12), Status: definitief<span style="display: block;">Auteur: <a href="https://example.org/fhir/Practitioner/2.16.528.1.1007.3.1-900016431">Huisarts 1</a>
                        </span>
                     </caption>
                     <tbody>
                        <tr>
                           <th>Type</th>
                           <td>
                              <span title="Summarization of encounter note Narrative (67781-5 - LOINC)">Summarization of encounter note Narrative</span>
                           </td>
                        </tr>
                        <tr>
                           <th>Gemaakt</th>
                           <td>14:41:54, 2 december 2019</td>
                        </tr>
                        <tr>
                           <th>Contact</th>
                           <td>Contact ID: MedMijHG-contactmoment10 2.16.840.1.113883.2.4.3.111.19.1 (Id: MedMijHG-contactmoment10 (urn:oid:2.16.840.1.113883.2.4.3.111.19.1))</td>
                        </tr>
                        <tr>
                           <th>Gebeurtenis</th>
                           <td>Episode: MedMijHG-concern-R21.01 2.16.840.1.113883.2.4.3.111.19.1 (Id: MedMijHG-concern-R21.01 (urn:oid:2.16.840.1.113883.2.4.3.111.19.1))</td>
                        </tr>
                     </tbody>
                  </table>
               </div>
            </text>
            <identifier>
               <system value="urn:oid:2.16.528.1.1007.3.3.765332.1.12"/>
               <value value="MedMijHG-contactverslag10"/>
            </identifier>
            <status value="final"/>
            <type>
               <coding>
                  <system value="http://loinc.org"/>
                  <code value="67781-5"/>
                  <display value="Summarization of encounter note Narrative"/>
               </coding>
            </type>
            <subject>
               <reference value="urn:uuid:fe8565ee-4d3b-11ec-2007-020000000000"/>
               <display value="H. XXX_Mulders"/>
            </subject>
            <encounter>
               <identifier>
                  <system value="urn:oid:2.16.840.1.113883.2.4.3.111.19.1"/>
                  <value value="MedMijHG-contactmoment10"/>
               </identifier>
               <display value="Contact ID: MedMijHG-contactmoment10 2.16.840.1.113883.2.4.3.111.19.1"/>
            </encounter>
            <date value="2019-12-02T14:41:54+01:00"/>
            <author>
               <reference value="https://example.org/fhir/Practitioner/2.16.528.1.1007.3.1-900016431"/>
               <display value="Huisarts 1"/>
            </author>
            <title value="Keelpijn"/>
            <event>
               <detail>
                  <identifier>
                     <system value="urn:oid:2.16.840.1.113883.2.4.3.111.19.1"/>
                     <value value="MedMijHG-concern-R21.01"/>
                  </identifier>
                  <display value="Episode: MedMijHG-concern-R21.01 2.16.840.1.113883.2.4.3.111.19.1"/>
               </detail>
            </event>
            <section>
               <extension url="http://nictiz.nl/fhir/StructureDefinition/code-icpc-1-nl">
                  <valueCodeableConcept>
                     <coding>
                        <system value="http://hl7.org/fhir/sid/icpc-1-nl"/>
                        <code value="R21.01"/>
                        <display value="Keelpijn"/>
                     </coding>
                  </valueCodeableConcept>
               </extension>
               <code>
                  <coding>
                     <system value="http://fhir.nl/fhir/NamingSystem/journaalregeltypen"/>
                     <code value="E"/>
                     <display value="Evaluatie"/>
                  </coding>
               </code>
               <text>
                  <status value="generated"/>
                  <div xmlns="http://www.w3.org/1999/xhtml">Keelpijn eci.</div>
               </text>
               <entry>
                  <reference value="urn:uuid:fe8552b3-4d3b-11ec-2007-020000000000"/>
                  <display value="E: Evaluatie - Keelpijn eci."/>
               </entry>
               <entry>
                  <identifier>
                     <system value="urn:oid:2.16.840.1.113883.2.4.3.111.19.1"/>
                     <value value="MedMijHG-concern-R21.01"/>
                  </identifier>
                  <display value="Episode: MedMijHG-concern-R21.01 2.16.840.1.113883.2.4.3.111.19.1"/>
               </entry>
            </section>
            <section>
               <code>
                  <coding>
                     <system value="http://fhir.nl/fhir/NamingSystem/journaalregeltypen"/>
                     <code value="P"/>
                     <display value="Plan"/>
                  </coding>
               </code>
               <text>
                  <status value="generated"/>
                  <div xmlns="http://www.w3.org/1999/xhtml">Afwachten, zn. Medicatie is nog beschikbaar</div>
               </text>
               <entry>
                  <reference value="urn:uuid:fe8552bd-4d3b-11ec-2007-020000000000"/>
                  <display value="P: Plan - Afwachten, zn. Medicatie is nog beschikbaar"/>
               </entry>
               <entry>
                  <identifier>
                     <system value="urn:oid:2.16.840.1.113883.2.4.3.111.19.1"/>
                     <value value="MedMijHG-concern-R21.01"/>
                  </identifier>
                  <display value="Episode: MedMijHG-concern-R21.01 2.16.840.1.113883.2.4.3.111.19.1"/>
               </entry>
            </section>
         </Composition>
      </resource>
      <search>
         <mode value="match"/>
      </search>
   </entry>
   <entry>
      <fullUrl value="https://example.org/fhir/Composition/2.16.528.1.1007.3.3.765332.1.12-MedMijHG-contactverslag04"/>
      <resource>
         <Composition>
            <id value="2.16.528.1.1007.3.3.765332.1.12-MedMijHG-contactverslag04"/>
            <meta>
               <profile value="http://nictiz.nl/fhir/StructureDefinition/gp-EncounterReport"/>
            </meta>
            <text>
               <status value="extensions"/>
               <div xmlns="http://www.w3.org/1999/xhtml">
                  <b>lage rugpijn</b>
                  <table>
                     <caption>Samengestelde informatie. Subject: H. XXX_Mulders. Id: MedMijHG-contactverslag04 (urn:oid:2.16.528.1.1007.3.3.765332.1.12), Status: definitief<span style="display: block;">Auteur: <a href="https://example.org/fhir/Practitioner/2.16.528.1.1007.3.1-900016431">Huisarts 1</a>
                        </span>
                     </caption>
                     <tbody>
                        <tr>
                           <th>Type</th>
                           <td>
                              <span title="Summarization of encounter note Narrative (67781-5 - LOINC)">Summarization of encounter note Narrative</span>
                           </td>
                        </tr>
                        <tr>
                           <th>Gemaakt</th>
                           <td>14:41:54, 27 november 2019</td>
                        </tr>
                        <tr>
                           <th>Contact</th>
                           <td>Contact ID: MedMijHG-contactmoment04 2.16.840.1.113883.2.4.3.111.19.1 (Id: MedMijHG-contactmoment04 (urn:oid:2.16.840.1.113883.2.4.3.111.19.1))</td>
                        </tr>
                        <tr>
                           <th>Gebeurtenis</th>
                           <td>Episode: MedMijHG-concern-L86.01 2.16.840.1.113883.2.4.3.111.19.1 (Id: MedMijHG-concern-L86.01 (urn:oid:2.16.840.1.113883.2.4.3.111.19.1))</td>
                        </tr>
                     </tbody>
                  </table>
               </div>
            </text>
            <identifier>
               <system value="urn:oid:2.16.528.1.1007.3.3.765332.1.12"/>
               <value value="MedMijHG-contactverslag04"/>
            </identifier>
            <status value="final"/>
            <type>
               <coding>
                  <system value="http://loinc.org"/>
                  <code value="67781-5"/>
                  <display value="Summarization of encounter note Narrative"/>
               </coding>
            </type>
            <subject>
               <reference value="urn:uuid:fe8565ee-4d3b-11ec-2007-020000000000"/>
               <display value="H. XXX_Mulders"/>
            </subject>
            <encounter>
               <identifier>
                  <system value="urn:oid:2.16.840.1.113883.2.4.3.111.19.1"/>
                  <value value="MedMijHG-contactmoment04"/>
               </identifier>
               <display value="Contact ID: MedMijHG-contactmoment04 2.16.840.1.113883.2.4.3.111.19.1"/>
            </encounter>
            <date value="2019-11-27T14:41:54+01:00"/>
            <author>
               <reference value="https://example.org/fhir/Practitioner/2.16.528.1.1007.3.1-900016431"/>
               <display value="Huisarts 1"/>
            </author>
            <title value="lage rugpijn"/>
            <event>
               <detail>
                  <identifier>
                     <system value="urn:oid:2.16.840.1.113883.2.4.3.111.19.1"/>
                     <value value="MedMijHG-concern-L86.01"/>
                  </identifier>
                  <display value="Episode: MedMijHG-concern-L86.01 2.16.840.1.113883.2.4.3.111.19.1"/>
               </detail>
            </event>
            <section>
               <extension url="http://nictiz.nl/fhir/StructureDefinition/code-icpc-1-nl">
                  <valueCodeableConcept>
                     <coding>
                        <system value="http://hl7.org/fhir/sid/icpc-1-nl"/>
                        <code value="L03"/>
                        <display value="lage rugpijn"/>
                     </coding>
                  </valueCodeableConcept>
               </extension>
               <code>
                  <coding>
                     <system value="http://fhir.nl/fhir/NamingSystem/journaalregeltypen"/>
                     <code value="E"/>
                     <display value="Evaluatie"/>
                  </coding>
               </code>
               <text>
                  <status value="generated"/>
                  <div xmlns="http://www.w3.org/1999/xhtml">lage rugpijn</div>
               </text>
               <entry>
                  <reference value="urn:uuid:fe8552d2-4d3b-11ec-2007-020000000000"/>
                  <display value="E: Evaluatie - lage rugpijn"/>
               </entry>
               <entry>
                  <identifier>
                     <system value="urn:oid:2.16.840.1.113883.2.4.3.111.19.1"/>
                     <value value="MedMijHG-concern-L86.01"/>
                  </identifier>
                  <display value="Episode: MedMijHG-concern-L86.01 2.16.840.1.113883.2.4.3.111.19.1"/>
               </entry>
            </section>
         </Composition>
      </resource>
      <search>
         <mode value="match"/>
      </search>
   </entry>
   <entry>
      <fullUrl value="https://example.org/fhir/Composition/2.16.528.1.1007.3.3.765332.1.12-MedMijHG-contactverslag06"/>
      <resource>
         <Composition>
            <id value="2.16.528.1.1007.3.3.765332.1.12-MedMijHG-contactverslag06"/>
            <meta>
               <profile value="http://nictiz.nl/fhir/StructureDefinition/gp-EncounterReport"/>
            </meta>
            <text>
               <status value="extensions"/>
               <div xmlns="http://www.w3.org/1999/xhtml">
                  <b>Keelpijn</b>
                  <table>
                     <caption>Samengestelde informatie. Subject: H. XXX_Mulders. Id: MedMijHG-contactverslag06 (urn:oid:2.16.528.1.1007.3.3.765332.1.12), Status: definitief<span style="display: block;">Auteur: <a href="https://example.org/fhir/Practitioner/2.16.528.1.1007.3.1-900016431">Huisarts 1</a>
                        </span>
                     </caption>
                     <tbody>
                        <tr>
                           <th>Type</th>
                           <td>
                              <span title="Summarization of encounter note Narrative (67781-5 - LOINC)">Summarization of encounter note Narrative</span>
                           </td>
                        </tr>
                        <tr>
                           <th>Gemaakt</th>
                           <td>14:41:54, 28 oktober 2019</td>
                        </tr>
                        <tr>
                           <th>Contact</th>
                           <td>Contact ID: MedMijHG-contactmoment06 2.16.840.1.113883.2.4.3.111.19.1 (Id: MedMijHG-contactmoment06 (urn:oid:2.16.840.1.113883.2.4.3.111.19.1))</td>
                        </tr>
                        <tr>
                           <th>Gebeurtenis</th>
                           <td>Episode: MedMijHG-concern-R21.01 2.16.840.1.113883.2.4.3.111.19.1 (Id: MedMijHG-concern-R21.01 (urn:oid:2.16.840.1.113883.2.4.3.111.19.1))</td>
                        </tr>
                     </tbody>
                  </table>
               </div>
            </text>
            <identifier>
               <system value="urn:oid:2.16.528.1.1007.3.3.765332.1.12"/>
               <value value="MedMijHG-contactverslag06"/>
            </identifier>
            <status value="final"/>
            <type>
               <coding>
                  <system value="http://loinc.org"/>
                  <code value="67781-5"/>
                  <display value="Summarization of encounter note Narrative"/>
               </coding>
            </type>
            <subject>
               <reference value="urn:uuid:fe8565ee-4d3b-11ec-2007-020000000000"/>
               <display value="H. XXX_Mulders"/>
            </subject>
            <encounter>
               <identifier>
                  <system value="urn:oid:2.16.840.1.113883.2.4.3.111.19.1"/>
                  <value value="MedMijHG-contactmoment06"/>
               </identifier>
               <display value="Contact ID: MedMijHG-contactmoment06 2.16.840.1.113883.2.4.3.111.19.1"/>
            </encounter>
            <date value="2019-10-28T14:41:54+01:00"/>
            <author>
               <reference value="https://example.org/fhir/Practitioner/2.16.528.1.1007.3.1-900016431"/>
               <display value="Huisarts 1"/>
            </author>
            <title value="Keelpijn"/>
            <event>
               <detail>
                  <identifier>
                     <system value="urn:oid:2.16.840.1.113883.2.4.3.111.19.1"/>
                     <value value="MedMijHG-concern-R21.01"/>
                  </identifier>
                  <display value="Episode: MedMijHG-concern-R21.01 2.16.840.1.113883.2.4.3.111.19.1"/>
               </detail>
            </event>
            <section>
               <extension url="http://nictiz.nl/fhir/StructureDefinition/code-icpc-1-nl">
                  <valueCodeableConcept>
                     <coding>
                        <system value="http://hl7.org/fhir/sid/icpc-1-nl"/>
                        <code value="R21.01"/>
                        <display value="Keelpijn"/>
                     </coding>
                  </valueCodeableConcept>
               </extension>
               <code>
                  <coding>
                     <system value="http://fhir.nl/fhir/NamingSystem/journaalregeltypen"/>
                     <code value="E"/>
                     <display value="Evaluatie"/>
                  </coding>
               </code>
               <text>
                  <status value="generated"/>
                  <div xmlns="http://www.w3.org/1999/xhtml">Keelpijn eci.</div>
               </text>
               <entry>
                  <reference value="urn:uuid:fe8552ef-4d3b-11ec-2007-020000000000"/>
                  <display value="E: Evaluatie - Keelpijn eci."/>
               </entry>
               <entry>
                  <identifier>
                     <system value="urn:oid:2.16.840.1.113883.2.4.3.111.19.1"/>
                     <value value="MedMijHG-concern-R21.01"/>
                  </identifier>
                  <display value="Episode: MedMijHG-concern-R21.01 2.16.840.1.113883.2.4.3.111.19.1"/>
               </entry>
            </section>
            <section>
               <code>
                  <coding>
                     <system value="http://fhir.nl/fhir/NamingSystem/journaalregeltypen"/>
                     <code value="P"/>
                     <display value="Plan"/>
                  </coding>
               </code>
               <text>
                  <status value="generated"/>
                  <div xmlns="http://www.w3.org/1999/xhtml">Afwachten, zn. Pcm, tijdens feest paracod.</div>
               </text>
               <entry>
                  <reference value="urn:uuid:fe8552f9-4d3b-11ec-2007-020000000000"/>
                  <display value="P: Plan - Afwachten, zn. Pcm, tijdens feest paracod."/>
               </entry>
               <entry>
                  <identifier>
                     <system value="urn:oid:2.16.840.1.113883.2.4.3.111.19.1"/>
                     <value value="MedMijHG-concern-R21.01"/>
                  </identifier>
                  <display value="Episode: MedMijHG-concern-R21.01 2.16.840.1.113883.2.4.3.111.19.1"/>
               </entry>
            </section>
         </Composition>
      </resource>
      <search>
         <mode value="match"/>
      </search>
   </entry>
   <entry>
      <fullUrl value="https://example.org/fhir/Composition/2.16.528.1.1007.3.3.765332.1.12-MedMijHG-contactverslagMMK"/>
      <resource>
         <Composition>
            <id value="2.16.528.1.1007.3.3.765332.1.12-MedMijHG-contactverslagMMK"/>
            <meta>
               <profile value="http://nictiz.nl/fhir/StructureDefinition/gp-EncounterReport"/>
            </meta>
            <text>
               <status value="extensions"/>
               <div xmlns="http://www.w3.org/1999/xhtml">
                  <b>Astma</b>
                  <table>
                     <caption>Samengestelde informatie. Subject: H. XXX_Mulders. Id: MedMijHG-contactverslagMMK (urn:oid:2.16.528.1.1007.3.3.765332.1.12), Status: definitief<span style="display: block;">Auteur: <a href="https://example.org/fhir/Practitioner/2.16.528.1.1007.3.1-900016431">Huisarts 1</a>
                        </span>
                     </caption>
                     <tbody>
                        <tr>
                           <th>Type</th>
                           <td>
                              <span title="Summarization of encounter note Narrative (67781-5 - LOINC)">Summarization of encounter note Narrative</span>
                           </td>
                        </tr>
                        <tr>
                           <th>Gemaakt</th>
                           <td>15:41:54, 18 oktober 2019</td>
                        </tr>
                        <tr>
                           <th>Contact</th>
                           <td>Contact ID: MedMijHG-contactmomentMMK 2.16.840.1.113883.2.4.3.111.19.1 (Id: MedMijHG-contactmomentMMK (urn:oid:2.16.840.1.113883.2.4.3.111.19.1))</td>
                        </tr>
                        <tr>
                           <th>Gebeurtenis</th>
                           <td>Episode: MedMijHG-concern-R96 2.16.840.1.113883.2.4.3.111.19.1 (Id: MedMijHG-concern-R96 (urn:oid:2.16.840.1.113883.2.4.3.111.19.1))</td>
                        </tr>
                     </tbody>
                  </table>
               </div>
            </text>
            <identifier>
               <system value="urn:oid:2.16.528.1.1007.3.3.765332.1.12"/>
               <value value="MedMijHG-contactverslagMMK"/>
            </identifier>
            <status value="final"/>
            <type>
               <coding>
                  <system value="http://loinc.org"/>
                  <code value="67781-5"/>
                  <display value="Summarization of encounter note Narrative"/>
               </coding>
            </type>
            <subject>
               <reference value="urn:uuid:fe8565ee-4d3b-11ec-2007-020000000000"/>
               <display value="H. XXX_Mulders"/>
            </subject>
            <encounter>
               <identifier>
                  <system value="urn:oid:2.16.840.1.113883.2.4.3.111.19.1"/>
                  <value value="MedMijHG-contactmomentMMK"/>
               </identifier>
               <display value="Contact ID: MedMijHG-contactmomentMMK 2.16.840.1.113883.2.4.3.111.19.1"/>
            </encounter>
            <date value="2019-10-18T15:41:54+02:00"/>
            <author>
               <reference value="https://example.org/fhir/Practitioner/2.16.528.1.1007.3.1-900016431"/>
               <display value="Huisarts 1"/>
            </author>
            <title value="Astma"/>
            <event>
               <detail>
                  <identifier>
                     <system value="urn:oid:2.16.840.1.113883.2.4.3.111.19.1"/>
                     <value value="MedMijHG-concern-R96"/>
                  </identifier>
                  <display value="Episode: MedMijHG-concern-R96 2.16.840.1.113883.2.4.3.111.19.1"/>
               </detail>
            </event>
            <section>
               <extension url="http://nictiz.nl/fhir/StructureDefinition/code-icpc-1-nl">
                  <valueCodeableConcept>
                     <coding>
                        <system value="http://hl7.org/fhir/sid/icpc-1-nl"/>
                        <code value="R96"/>
                        <display value="Astma"/>
                     </coding>
                  </valueCodeableConcept>
               </extension>
               <code>
                  <coding>
                     <system value="http://fhir.nl/fhir/NamingSystem/journaalregeltypen"/>
                     <code value="E"/>
                     <display value="Evaluatie"/>
                  </coding>
               </code>
               <text>
                  <status value="generated"/>
                  <div xmlns="http://www.w3.org/1999/xhtml">astma</div>
               </text>
               <entry>
                  <reference value="urn:uuid:fe85530e-4d3b-11ec-2007-020000000000"/>
                  <display value="E: Evaluatie - astma"/>
               </entry>
               <entry>
                  <identifier>
                     <system value="urn:oid:2.16.840.1.113883.2.4.3.111.19.1"/>
                     <value value="MedMijHG-concern-R96"/>
                  </identifier>
                  <display value="Episode: MedMijHG-concern-R96 2.16.840.1.113883.2.4.3.111.19.1"/>
               </entry>
            </section>
            <section>
               <code>
                  <coding>
                     <system value="http://fhir.nl/fhir/NamingSystem/journaalregeltypen"/>
                     <code value="P"/>
                     <display value="Plan"/>
                  </coding>
               </code>
               <text>
                  <status value="generated"/>
                  <div xmlns="http://www.w3.org/1999/xhtml">Salbutamol half uur voor het sporten.</div>
               </text>
               <entry>
                  <reference value="urn:uuid:fe855318-4d3b-11ec-2007-020000000000"/>
                  <display value="P: Plan - Salbutamol half uur voor het sporten."/>
               </entry>
               <entry>
                  <identifier>
                     <system value="urn:oid:2.16.840.1.113883.2.4.3.111.19.1"/>
                     <value value="MedMijHG-concern-R96"/>
                  </identifier>
                  <display value="Episode: MedMijHG-concern-R96 2.16.840.1.113883.2.4.3.111.19.1"/>
               </entry>
            </section>
         </Composition>
      </resource>
      <search>
         <mode value="match"/>
      </search>
   </entry>
   <entry>
      <fullUrl value="https://example.org/fhir/Composition/2.16.528.1.1007.3.3.765332.1.12-MedMijHG-contactverslag08"/>
      <resource>
         <Composition>
            <id value="2.16.528.1.1007.3.3.765332.1.12-MedMijHG-contactverslag08"/>
            <meta>
               <profile value="http://nictiz.nl/fhir/StructureDefinition/gp-EncounterReport"/>
            </meta>
            <text>
               <status value="extensions"/>
               <div xmlns="http://www.w3.org/1999/xhtml">
                  <b>Contactverslag H. XXX_Mulders</b>
                  <table>
                     <caption>Samengestelde informatie. Subject: H. XXX_Mulders. Id: MedMijHG-contactverslag08 (urn:oid:2.16.528.1.1007.3.3.765332.1.12), Status: definitief<span style="display: block;">Auteur: <a href="https://example.org/fhir/Practitioner/2.16.528.1.1007.3.1-900016431">Huisarts 1</a>
                        </span>
                     </caption>
                     <tbody>
                        <tr>
                           <th>Type</th>
                           <td>
                              <span title="Summarization of encounter note Narrative (67781-5 - LOINC)">Summarization of encounter note Narrative</span>
                           </td>
                        </tr>
                        <tr>
                           <th>Gemaakt</th>
                           <td>15:41:54, 3 oktober 2019</td>
                        </tr>
                        <tr>
                           <th>Contact</th>
                           <td>Contact ID: MedMijHG-contactmoment08 2.16.840.1.113883.2.4.3.111.19.1 (Id: MedMijHG-contactmoment08 (urn:oid:2.16.840.1.113883.2.4.3.111.19.1))</td>
                        </tr>
                        <tr>
                           <th>Gebeurtenis</th>
                           <td>Episode: MedMijHG-concern-S04 2.16.840.1.113883.2.4.3.111.19.1 (Id: MedMijHG-concern-S04 (urn:oid:2.16.840.1.113883.2.4.3.111.19.1))</td>
                        </tr>
                     </tbody>
                  </table>
               </div>
            </text>
            <identifier>
               <system value="urn:oid:2.16.528.1.1007.3.3.765332.1.12"/>
               <value value="MedMijHG-contactverslag08"/>
            </identifier>
            <status value="final"/>
            <type>
               <coding>
                  <system value="http://loinc.org"/>
                  <code value="67781-5"/>
                  <display value="Summarization of encounter note Narrative"/>
               </coding>
            </type>
            <subject>
               <reference value="urn:uuid:fe8565ee-4d3b-11ec-2007-020000000000"/>
               <display value="H. XXX_Mulders"/>
            </subject>
            <encounter>
               <identifier>
                  <system value="urn:oid:2.16.840.1.113883.2.4.3.111.19.1"/>
                  <value value="MedMijHG-contactmoment08"/>
               </identifier>
               <display value="Contact ID: MedMijHG-contactmoment08 2.16.840.1.113883.2.4.3.111.19.1"/>
            </encounter>
            <date value="2019-10-03T15:41:54+02:00"/>
            <author>
               <reference value="https://example.org/fhir/Practitioner/2.16.528.1.1007.3.1-900016431"/>
               <display value="Huisarts 1"/>
            </author>
            <title value="Contactverslag H. XXX_Mulders"/>
            <event>
               <detail>
                  <identifier>
                     <system value="urn:oid:2.16.840.1.113883.2.4.3.111.19.1"/>
                     <value value="MedMijHG-concern-S04"/>
                  </identifier>
                  <display value="Episode: MedMijHG-concern-S04 2.16.840.1.113883.2.4.3.111.19.1"/>
               </detail>
            </event>
            <section>
               <code>
                  <coding>
                     <system value="http://fhir.nl/fhir/NamingSystem/journaalregeltypen"/>
                     <code value="E"/>
                     <display value="Evaluatie"/>
                  </coding>
               </code>
               <text>
                  <status value="generated"/>
                  <div xmlns="http://www.w3.org/1999/xhtml">Onder mandibula re. glad weinig mobile zwelling, lijkt speekselkl.</div>
               </text>
               <entry>
                  <reference value="urn:uuid:fe85532d-4d3b-11ec-2007-020000000000"/>
                  <display value="E: Evaluatie - Onder mandibula re. glad weinig mobile zwelling, lijkt speekselkl."/>
               </entry>
               <entry>
                  <identifier>
                     <system value="urn:oid:2.16.840.1.113883.2.4.3.111.19.1"/>
                     <value value="MedMijHG-concern-S04"/>
                  </identifier>
                  <display value="Episode: MedMijHG-concern-S04 2.16.840.1.113883.2.4.3.111.19.1"/>
               </entry>
            </section>
            <section>
               <code>
                  <coding>
                     <system value="http://fhir.nl/fhir/NamingSystem/journaalregeltypen"/>
                     <code value="P"/>
                     <display value="Plan"/>
                  </coding>
               </code>
               <text>
                  <status value="generated"/>
                  <div xmlns="http://www.w3.org/1999/xhtml">Echo</div>
               </text>
               <entry>
                  <reference value="urn:uuid:fe855330-4d3b-11ec-2007-020000000000"/>
                  <display value="P: Plan - Echo"/>
               </entry>
               <entry>
                  <identifier>
                     <system value="urn:oid:2.16.840.1.113883.2.4.3.111.19.1"/>
                     <value value="MedMijHG-concern-S04"/>
                  </identifier>
                  <display value="Episode: MedMijHG-concern-S04 2.16.840.1.113883.2.4.3.111.19.1"/>
               </entry>
            </section>
         </Composition>
      </resource>
      <search>
         <mode value="match"/>
      </search>
   </entry>
   <entry>
      <fullUrl value="https://example.org/fhir/Composition/2.16.528.1.1007.3.3.765332.1.12-MedMijHG-contactverslag03"/>
      <resource>
         <Composition>
            <id value="2.16.528.1.1007.3.3.765332.1.12-MedMijHG-contactverslag03"/>
            <meta>
               <profile value="http://nictiz.nl/fhir/StructureDefinition/gp-EncounterReport"/>
            </meta>
            <text>
               <status value="extensions"/>
               <div xmlns="http://www.w3.org/1999/xhtml">
                  <b>Contactverslag H. XXX_Mulders</b>
                  <table>
                     <caption>Samengestelde informatie. Subject: H. XXX_Mulders. Id: MedMijHG-contactverslag03 (urn:oid:2.16.528.1.1007.3.3.765332.1.12), Status: definitief<span style="display: block;">Auteur: <a href="https://example.org/fhir/Practitioner/2.16.528.1.1007.3.1-900016431">Huisarts 1</a>
                        </span>
                     </caption>
                     <tbody>
                        <tr>
                           <th>Type</th>
                           <td>
                              <span title="Summarization of encounter note Narrative (67781-5 - LOINC)">Summarization of encounter note Narrative</span>
                           </td>
                        </tr>
                        <tr>
                           <th>Gemaakt</th>
                           <td>15:41:54, 1 april 2019</td>
                        </tr>
                        <tr>
                           <th>Contact</th>
                           <td>Contact ID: MedMijHG-contactmoment03 2.16.840.1.113883.2.4.3.111.19.1 (Id: MedMijHG-contactmoment03 (urn:oid:2.16.840.1.113883.2.4.3.111.19.1))</td>
                        </tr>
                     </tbody>
                  </table>
               </div>
            </text>
            <identifier>
               <system value="urn:oid:2.16.528.1.1007.3.3.765332.1.12"/>
               <value value="MedMijHG-contactverslag03"/>
            </identifier>
            <status value="final"/>
            <type>
               <coding>
                  <system value="http://loinc.org"/>
                  <code value="67781-5"/>
                  <display value="Summarization of encounter note Narrative"/>
               </coding>
            </type>
            <subject>
               <reference value="urn:uuid:fe8565ee-4d3b-11ec-2007-020000000000"/>
               <display value="H. XXX_Mulders"/>
            </subject>
            <encounter>
               <identifier>
                  <system value="urn:oid:2.16.840.1.113883.2.4.3.111.19.1"/>
                  <value value="MedMijHG-contactmoment03"/>
               </identifier>
               <display value="Contact ID: MedMijHG-contactmoment03 2.16.840.1.113883.2.4.3.111.19.1"/>
            </encounter>
            <date value="2019-04-01T15:41:54+02:00"/>
            <author>
               <reference value="https://example.org/fhir/Practitioner/2.16.528.1.1007.3.1-900016431"/>
               <display value="Huisarts 1"/>
            </author>
            <title value="Contactverslag H. XXX_Mulders"/>
            <section>
               <code>
                  <coding>
                     <system value="http://fhir.nl/fhir/NamingSystem/journaalregeltypen"/>
                     <code value="P"/>
                     <display value="Plan"/>
                  </coding>
               </code>
               <text>
                  <status value="generated"/>
                  <div xmlns="http://www.w3.org/1999/xhtml">Over paar weken RR thuis.</div>
               </text>
               <entry>
                  <reference value="urn:uuid:fe855344-4d3b-11ec-2007-020000000000"/>
                  <display value="P: Plan - Over paar weken RR thuis."/>
               </entry>
            </section>
         </Composition>
      </resource>
      <search>
         <mode value="match"/>
      </search>
   </entry>
   <entry>
      <fullUrl value="https://example.org/fhir/Composition/2.16.528.1.1007.3.3.765332.1.12-MedMijHG-contactverslag02"/>
      <resource>
         <Composition>
            <id value="2.16.528.1.1007.3.3.765332.1.12-MedMijHG-contactverslag02"/>
            <meta>
               <profile value="http://nictiz.nl/fhir/StructureDefinition/gp-EncounterReport"/>
            </meta>
            <text>
               <status value="extensions"/>
               <div xmlns="http://www.w3.org/1999/xhtml">
                  <b>Contactverslag H. XXX_Mulders</b>
                  <table>
                     <caption>Samengestelde informatie. Subject: H. XXX_Mulders. Id: MedMijHG-contactverslag02 (urn:oid:2.16.528.1.1007.3.3.765332.1.12), Status: definitief<span style="display: block;">Auteur: <a href="https://example.org/fhir/Practitioner/2.16.528.1.1007.3.1-900016431">Huisarts 1</a>
                        </span>
                     </caption>
                     <tbody>
                        <tr>
                           <th>Type</th>
                           <td>
                              <span title="Summarization of encounter note Narrative (67781-5 - LOINC)">Summarization of encounter note Narrative</span>
                           </td>
                        </tr>
                        <tr>
                           <th>Gemaakt</th>
                           <td>14:41:54, 12 maart 2019</td>
                        </tr>
                        <tr>
                           <th>Contact</th>
                           <td>Contact ID: MedMijHG-contactmoment02 2.16.840.1.113883.2.4.3.111.19.1 (Id: MedMijHG-contactmoment02 (urn:oid:2.16.840.1.113883.2.4.3.111.19.1))</td>
                        </tr>
                     </tbody>
                  </table>
               </div>
            </text>
            <identifier>
               <system value="urn:oid:2.16.528.1.1007.3.3.765332.1.12"/>
               <value value="MedMijHG-contactverslag02"/>
            </identifier>
            <status value="final"/>
            <type>
               <coding>
                  <system value="http://loinc.org"/>
                  <code value="67781-5"/>
                  <display value="Summarization of encounter note Narrative"/>
               </coding>
            </type>
            <subject>
               <reference value="urn:uuid:fe8565ee-4d3b-11ec-2007-020000000000"/>
               <display value="H. XXX_Mulders"/>
            </subject>
            <encounter>
               <identifier>
                  <system value="urn:oid:2.16.840.1.113883.2.4.3.111.19.1"/>
                  <value value="MedMijHG-contactmoment02"/>
               </identifier>
               <display value="Contact ID: MedMijHG-contactmoment02 2.16.840.1.113883.2.4.3.111.19.1"/>
            </encounter>
            <date value="2019-03-12T14:41:54+01:00"/>
            <author>
               <reference value="https://example.org/fhir/Practitioner/2.16.528.1.1007.3.1-900016431"/>
               <display value="Huisarts 1"/>
            </author>
            <title value="Contactverslag H. XXX_Mulders"/>
            <section>
               <code>
                  <coding>
                     <system value="http://fhir.nl/fhir/NamingSystem/journaalregeltypen"/>
                     <code value="P"/>
                     <display value="Plan"/>
                  </coding>
               </code>
               <text>
                  <status value="generated"/>
                  <div xmlns="http://www.w3.org/1999/xhtml">Na vakantie nogmaals.</div>
               </text>
               <entry>
                  <reference value="urn:uuid:fe855358-4d3b-11ec-2007-020000000000"/>
                  <display value="P: Plan - Na vakantie nogmaals."/>
               </entry>
            </section>
         </Composition>
      </resource>
      <search>
         <mode value="match"/>
      </search>
   </entry>
   <entry>
      <fullUrl value="https://example.org/fhir/Composition/2.16.528.1.1007.3.3.765332.1.12-MedMijHG-contactverslag01"/>
      <resource>
         <Composition>
            <id value="2.16.528.1.1007.3.3.765332.1.12-MedMijHG-contactverslag01"/>
            <meta>
               <profile value="http://nictiz.nl/fhir/StructureDefinition/gp-EncounterReport"/>
            </meta>
            <text>
               <status value="extensions"/>
               <div xmlns="http://www.w3.org/1999/xhtml">
                  <b>Boezemfibrilleren/-fladderen</b>
                  <table>
                     <caption>Samengestelde informatie. Subject: H. XXX_Mulders. Id: MedMijHG-contactverslag01 (urn:oid:2.16.528.1.1007.3.3.765332.1.12), Status: definitief<span style="display: block;">Auteur: <a href="https://example.org/fhir/Practitioner/2.16.528.1.1007.3.1-900016431">Huisarts 1</a>
                        </span>
                     </caption>
                     <tbody>
                        <tr>
                           <th>Type</th>
                           <td>
                              <span title="Summarization of encounter note Narrative (67781-5 - LOINC)">Summarization of encounter note Narrative</span>
                           </td>
                        </tr>
                        <tr>
                           <th>Gemaakt</th>
                           <td>14:41:54, 20 februari 2019</td>
                        </tr>
                        <tr>
                           <th>Contact</th>
                           <td>Contact ID: MedMijHG-contactmoment01 2.16.840.1.113883.2.4.3.111.19.1 (Id: MedMijHG-contactmoment01 (urn:oid:2.16.840.1.113883.2.4.3.111.19.1))</td>
                        </tr>
                        <tr>
                           <th>Gebeurtenis</th>
                           <td>Episode: MedMijHG-concern-K78 2.16.840.1.113883.2.4.3.111.19.1 (Id: MedMijHG-concern-K78 (urn:oid:2.16.840.1.113883.2.4.3.111.19.1))</td>
                        </tr>
                     </tbody>
                  </table>
               </div>
            </text>
            <identifier>
               <system value="urn:oid:2.16.528.1.1007.3.3.765332.1.12"/>
               <value value="MedMijHG-contactverslag01"/>
            </identifier>
            <status value="final"/>
            <type>
               <coding>
                  <system value="http://loinc.org"/>
                  <code value="67781-5"/>
                  <display value="Summarization of encounter note Narrative"/>
               </coding>
            </type>
            <subject>
               <reference value="urn:uuid:fe8565ee-4d3b-11ec-2007-020000000000"/>
               <display value="H. XXX_Mulders"/>
            </subject>
            <encounter>
               <identifier>
                  <system value="urn:oid:2.16.840.1.113883.2.4.3.111.19.1"/>
                  <value value="MedMijHG-contactmoment01"/>
               </identifier>
               <display value="Contact ID: MedMijHG-contactmoment01 2.16.840.1.113883.2.4.3.111.19.1"/>
            </encounter>
            <date value="2019-02-20T14:41:54+01:00"/>
            <author>
               <reference value="https://example.org/fhir/Practitioner/2.16.528.1.1007.3.1-900016431"/>
               <display value="Huisarts 1"/>
            </author>
            <title value="Boezemfibrilleren/-fladderen"/>
            <event>
               <detail>
                  <identifier>
                     <system value="urn:oid:2.16.840.1.113883.2.4.3.111.19.1"/>
                     <value value="MedMijHG-concern-K78"/>
                  </identifier>
                  <display value="Episode: MedMijHG-concern-K78 2.16.840.1.113883.2.4.3.111.19.1"/>
               </detail>
            </event>
            <section>
               <extension url="http://nictiz.nl/fhir/StructureDefinition/code-icpc-1-nl">
                  <valueCodeableConcept>
                     <coding>
                        <system value="http://hl7.org/fhir/sid/icpc-1-nl"/>
                        <code value="K78"/>
                        <display value="Boezemfibrilleren/-fladderen"/>
                     </coding>
                  </valueCodeableConcept>
               </extension>
               <code>
                  <coding>
                     <system value="http://fhir.nl/fhir/NamingSystem/journaalregeltypen"/>
                     <code value="E"/>
                     <display value="Evaluatie"/>
                  </coding>
               </code>
               <text>
                  <status value="generated"/>
                  <div xmlns="http://www.w3.org/1999/xhtml">Ritmestoornis</div>
               </text>
               <entry>
                  <reference value="urn:uuid:fe85536d-4d3b-11ec-2007-020000000000"/>
                  <display value="E: Evaluatie - Ritmestoornis"/>
               </entry>
               <entry>
                  <identifier>
                     <system value="urn:oid:2.16.840.1.113883.2.4.3.111.19.1"/>
                     <value value="MedMijHG-concern-K78"/>
                  </identifier>
                  <display value="Episode: MedMijHG-concern-K78 2.16.840.1.113883.2.4.3.111.19.1"/>
               </entry>
            </section>
            <section>
               <code>
                  <coding>
                     <system value="http://fhir.nl/fhir/NamingSystem/journaalregeltypen"/>
                     <code value="P"/>
                     <display value="Plan"/>
                  </coding>
               </code>
               <text>
                  <status value="generated"/>
                  <div xmlns="http://www.w3.org/1999/xhtml">Naar SEH.</div>
               </text>
               <entry>
                  <reference value="urn:uuid:fe855377-4d3b-11ec-2007-020000000000"/>
                  <display value="P: Plan - Naar SEH."/>
               </entry>
               <entry>
                  <identifier>
                     <system value="urn:oid:2.16.840.1.113883.2.4.3.111.19.1"/>
                     <value value="MedMijHG-concern-K78"/>
                  </identifier>
                  <display value="Episode: MedMijHG-concern-K78 2.16.840.1.113883.2.4.3.111.19.1"/>
               </entry>
            </section>
         </Composition>
      </resource>
      <search>
         <mode value="match"/>
      </search>
   </entry>
   <entry>
      <fullUrl value="https://example.org/fhir/Composition/2.16.528.1.1007.3.3.765332.1.12-MedMijHG-contactverslag11"/>
      <resource>
         <Composition>
            <id value="2.16.528.1.1007.3.3.765332.1.12-MedMijHG-contactverslag11"/>
            <meta>
               <profile value="http://nictiz.nl/fhir/StructureDefinition/gp-EncounterReport"/>
            </meta>
            <text>
               <status value="extensions"/>
               <div xmlns="http://www.w3.org/1999/xhtml">
                  <b>Keelpijn</b>
                  <table>
                     <caption>Samengestelde informatie. Subject: H. XXX_Mulders. Id: MedMijHG-contactverslag11 (urn:oid:2.16.528.1.1007.3.3.765332.1.12), Status: definitief<span style="display: block;">Auteur: <a href="https://example.org/fhir/Practitioner/2.16.528.1.1007.3.1-900016431">Huisarts 1</a>
                        </span>
                     </caption>
                     <tbody>
                        <tr>
                           <th>Type</th>
                           <td>
                              <span title="Summarization of encounter note Narrative (67781-5 - LOINC)">Summarization of encounter note Narrative</span>
                           </td>
                        </tr>
                        <tr>
                           <th>Gemaakt</th>
                           <td>14:41:54, 27 december 2019</td>
                        </tr>
                        <tr>
                           <th>Contact</th>
                           <td>Contact ID: MedMijHG-contactmoment11 2.16.840.1.113883.2.4.3.111.19.1 (Id: MedMijHG-contactmoment11 (urn:oid:2.16.840.1.113883.2.4.3.111.19.1))</td>
                        </tr>
                        <tr>
                           <th>Gebeurtenis</th>
                           <td>Episode: MedMijHG-concern-R21.01 2.16.840.1.113883.2.4.3.111.19.1 (Id: MedMijHG-concern-R21.01 (urn:oid:2.16.840.1.113883.2.4.3.111.19.1))</td>
                        </tr>
                     </tbody>
                  </table>
               </div>
            </text>
            <identifier>
               <system value="urn:oid:2.16.528.1.1007.3.3.765332.1.12"/>
               <value value="MedMijHG-contactverslag11"/>
            </identifier>
            <status value="final"/>
            <type>
               <coding>
                  <system value="http://loinc.org"/>
                  <code value="67781-5"/>
                  <display value="Summarization of encounter note Narrative"/>
               </coding>
            </type>
            <subject>
               <reference value="urn:uuid:fe8565ee-4d3b-11ec-2007-020000000000"/>
               <display value="H. XXX_Mulders"/>
            </subject>
            <encounter>
               <identifier>
                  <system value="urn:oid:2.16.840.1.113883.2.4.3.111.19.1"/>
                  <value value="MedMijHG-contactmoment11"/>
               </identifier>
               <display value="Contact ID: MedMijHG-contactmoment11 2.16.840.1.113883.2.4.3.111.19.1"/>
            </encounter>
            <date value="2019-12-27T14:41:54+01:00"/>
            <author>
               <reference value="https://example.org/fhir/Practitioner/2.16.528.1.1007.3.1-900016431"/>
               <display value="Huisarts 1"/>
            </author>
            <title value="Keelpijn"/>
            <event>
               <detail>
                  <identifier>
                     <system value="urn:oid:2.16.840.1.113883.2.4.3.111.19.1"/>
                     <value value="MedMijHG-concern-R21.01"/>
                  </identifier>
                  <display value="Episode: MedMijHG-concern-R21.01 2.16.840.1.113883.2.4.3.111.19.1"/>
               </detail>
            </event>
            <section>
               <extension url="http://nictiz.nl/fhir/StructureDefinition/code-icpc-1-nl">
                  <valueCodeableConcept>
                     <coding>
                        <system value="http://hl7.org/fhir/sid/icpc-1-nl"/>
                        <code value="R21.01"/>
                        <display value="Keelpijn"/>
                     </coding>
                  </valueCodeableConcept>
               </extension>
               <code>
                  <coding>
                     <system value="http://fhir.nl/fhir/NamingSystem/journaalregeltypen"/>
                     <code value="E"/>
                     <display value="Evaluatie"/>
                  </coding>
               </code>
               <text>
                  <status value="generated"/>
                  <div xmlns="http://www.w3.org/1999/xhtml">Keelpijn eci.</div>
               </text>
               <entry>
                  <reference value="urn:uuid:fe85538c-4d3b-11ec-2007-020000000000"/>
                  <display value="E: Evaluatie - Keelpijn eci."/>
               </entry>
               <entry>
                  <identifier>
                     <system value="urn:oid:2.16.840.1.113883.2.4.3.111.19.1"/>
                     <value value="MedMijHG-concern-R21.01"/>
                  </identifier>
                  <display value="Episode: MedMijHG-concern-R21.01 2.16.840.1.113883.2.4.3.111.19.1"/>
               </entry>
            </section>
            <section>
               <code>
                  <coding>
                     <system value="http://fhir.nl/fhir/NamingSystem/journaalregeltypen"/>
                     <code value="P"/>
                     <display value="Plan"/>
                  </coding>
               </code>
               <text>
                  <status value="generated"/>
                  <div xmlns="http://www.w3.org/1999/xhtml">Kweek van aanslag keel</div>
               </text>
               <entry>
                  <reference value="urn:uuid:fe855396-4d3b-11ec-2007-020000000000"/>
                  <display value="P: Plan - Kweek van aanslag keel"/>
               </entry>
               <entry>
                  <identifier>
                     <system value="urn:oid:2.16.840.1.113883.2.4.3.111.19.1"/>
                     <value value="MedMijHG-concern-R21.01"/>
                  </identifier>
                  <display value="Episode: MedMijHG-concern-R21.01 2.16.840.1.113883.2.4.3.111.19.1"/>
               </entry>
            </section>
         </Composition>
      </resource>
      <search>
         <mode value="match"/>
      </search>
   </entry>
   <entry>
      <fullUrl value="https://example.org/fhir/Composition/2.16.528.1.1007.3.3.765332.1.12-MedMijHG-contactverslag05"/>
      <resource>
         <Composition>
            <id value="2.16.528.1.1007.3.3.765332.1.12-MedMijHG-contactverslag05"/>
            <meta>
               <profile value="http://nictiz.nl/fhir/StructureDefinition/gp-EncounterReport"/>
            </meta>
            <text>
               <status value="extensions"/>
               <div xmlns="http://www.w3.org/1999/xhtml">
                  <b>lage rugpijn</b>
                  <table>
                     <caption>Samengestelde informatie. Subject: H. XXX_Mulders. Id: MedMijHG-contactverslag05 (urn:oid:2.16.528.1.1007.3.3.765332.1.12), Status: definitief<span style="display: block;">Auteur: <a href="https://example.org/fhir/Practitioner/2.16.528.1.1007.3.1-900016431">Huisarts 1</a>
                        </span>
                     </caption>
                     <tbody>
                        <tr>
                           <th>Type</th>
                           <td>
                              <span title="Summarization of encounter note Narrative (67781-5 - LOINC)">Summarization of encounter note Narrative</span>
                           </td>
                        </tr>
                        <tr>
                           <th>Gemaakt</th>
                           <td>14:41:54, 17 december 2019</td>
                        </tr>
                        <tr>
                           <th>Contact</th>
                           <td>Contact ID: MedMijHG-contactmoment05 2.16.840.1.113883.2.4.3.111.19.1 (Id: MedMijHG-contactmoment05 (urn:oid:2.16.840.1.113883.2.4.3.111.19.1))</td>
                        </tr>
                        <tr>
                           <th>Gebeurtenis</th>
                           <td>Episode: MedMijHG-concern-L86.01 2.16.840.1.113883.2.4.3.111.19.1 (Id: MedMijHG-concern-L86.01 (urn:oid:2.16.840.1.113883.2.4.3.111.19.1))</td>
                        </tr>
                     </tbody>
                  </table>
               </div>
            </text>
            <identifier>
               <system value="urn:oid:2.16.528.1.1007.3.3.765332.1.12"/>
               <value value="MedMijHG-contactverslag05"/>
            </identifier>
            <status value="final"/>
            <type>
               <coding>
                  <system value="http://loinc.org"/>
                  <code value="67781-5"/>
                  <display value="Summarization of encounter note Narrative"/>
               </coding>
            </type>
            <subject>
               <reference value="urn:uuid:fe8565ee-4d3b-11ec-2007-020000000000"/>
               <display value="H. XXX_Mulders"/>
            </subject>
            <encounter>
               <identifier>
                  <system value="urn:oid:2.16.840.1.113883.2.4.3.111.19.1"/>
                  <value value="MedMijHG-contactmoment05"/>
               </identifier>
               <display value="Contact ID: MedMijHG-contactmoment05 2.16.840.1.113883.2.4.3.111.19.1"/>
            </encounter>
            <date value="2019-12-17T14:41:54+01:00"/>
            <author>
               <reference value="https://example.org/fhir/Practitioner/2.16.528.1.1007.3.1-900016431"/>
               <display value="Huisarts 1"/>
            </author>
            <title value="lage rugpijn"/>
            <event>
               <detail>
                  <identifier>
                     <system value="urn:oid:2.16.840.1.113883.2.4.3.111.19.1"/>
                     <value value="MedMijHG-concern-L86.01"/>
                  </identifier>
                  <display value="Episode: MedMijHG-concern-L86.01 2.16.840.1.113883.2.4.3.111.19.1"/>
               </detail>
            </event>
            <section>
               <extension url="http://nictiz.nl/fhir/StructureDefinition/code-icpc-1-nl">
                  <valueCodeableConcept>
                     <coding>
                        <system value="http://hl7.org/fhir/sid/icpc-1-nl"/>
                        <code value="L03"/>
                        <display value="lage rugpijn"/>
                     </coding>
                  </valueCodeableConcept>
               </extension>
               <code>
                  <coding>
                     <system value="http://fhir.nl/fhir/NamingSystem/journaalregeltypen"/>
                     <code value="E"/>
                     <display value="Evaluatie"/>
                  </coding>
               </code>
               <text>
                  <status value="generated"/>
                  <div xmlns="http://www.w3.org/1999/xhtml">Maag/duodenum problemen?</div>
               </text>
               <entry>
                  <reference value="urn:uuid:fe8553ab-4d3b-11ec-2007-020000000000"/>
                  <display value="E: Evaluatie - Maag/duodenum problemen?"/>
               </entry>
               <entry>
                  <identifier>
                     <system value="urn:oid:2.16.840.1.113883.2.4.3.111.19.1"/>
                     <value value="MedMijHG-concern-L86.01"/>
                  </identifier>
                  <display value="Episode: MedMijHG-concern-L86.01 2.16.840.1.113883.2.4.3.111.19.1"/>
               </entry>
            </section>
            <section>
               <code>
                  <coding>
                     <system value="http://fhir.nl/fhir/NamingSystem/journaalregeltypen"/>
                     <code value="P"/>
                     <display value="Plan"/>
                  </coding>
               </code>
               <text>
                  <status value="generated"/>
                  <div xmlns="http://www.w3.org/1999/xhtml">Cesar of Mensendieck.</div>
               </text>
               <entry>
                  <reference value="urn:uuid:fe8553b5-4d3b-11ec-2007-020000000000"/>
                  <display value="P: Plan - Cesar of Mensendieck."/>
               </entry>
               <entry>
                  <identifier>
                     <system value="urn:oid:2.16.840.1.113883.2.4.3.111.19.1"/>
                     <value value="MedMijHG-concern-L86.01"/>
                  </identifier>
                  <display value="Episode: MedMijHG-concern-L86.01 2.16.840.1.113883.2.4.3.111.19.1"/>
               </entry>
            </section>
         </Composition>
      </resource>
      <search>
         <mode value="match"/>
      </search>
   </entry>
   <entry>
      <fullUrl value="urn:uuid:fe8565ee-4d3b-11ec-2007-020000000000"/>
      <resource>
         <Patient>
            <meta>
               <profile value="http://fhir.nl/fhir/StructureDefinition/nl-core-patient"/>
            </meta>
            <text>
               <status value="extensions"/>
               <div xmlns="http://www.w3.org/1999/xhtml">
                  <div>Id <i>afgeschermd (ontbrekend gegeven)</i> (BSN), H. XXX_Mulders, Man, 30 december 1985</div>
                  <div>Knolweg 1003, 9999ZA STITSWERD, Nederland</div>
               </div>
            </text>
            <identifier>
               <system value="http://fhir.nl/fhir/NamingSystem/bsn"/>
               <value>
                  <extension url="http://hl7.org/fhir/StructureDefinition/data-absent-reason">
                     <valueCode value="masked"/>
                  </extension>
               </value>
            </identifier>
            <name>
               <extension url="http://hl7.org/fhir/StructureDefinition/humanname-assembly-order">
                  <valueCode value="NL1"/>
               </extension>
               <family value="XXX_Mulders">
                  <extension url="http://hl7.org/fhir/StructureDefinition/humanname-own-name">
                     <valueString value="XXX_Mulders"/>
                  </extension>
               </family>
               <given value="H.">
                  <extension url="http://hl7.org/fhir/StructureDefinition/iso21090-EN-qualifier">
                     <valueCode value="IN"/>
                  </extension>
               </given>
            </name>
            <gender value="male">
               <extension url="http://nictiz.nl/fhir/StructureDefinition/code-specification">
                  <valueCodeableConcept>
                     <coding>
                        <system value="http://hl7.org/fhir/v3/AdministrativeGender"/>
                        <code value="M"/>
                        <display value="man"/>
                     </coding>
                  </valueCodeableConcept>
               </extension>
            </gender>
            <birthDate value="1985-12-30"/>
            <address>
               <line value="Knolweg 1003">
                  <extension url="http://hl7.org/fhir/StructureDefinition/iso21090-ADXP-streetName">
                     <valueString value="Knolweg"/>
                  </extension>
                  <extension url="http://hl7.org/fhir/StructureDefinition/iso21090-ADXP-houseNumber">
                     <valueString value="1003"/>
                  </extension>
               </line>
               <city value="STITSWERD"/>
               <postalCode value="9999ZA"/>
               <country value="Nederland"/>
            </address>
         </Patient>
      </resource>
      <search>
         <mode value="include"/>
      </search>
   </entry>
   <entry>
      <fullUrl value="https://example.org/fhir/Practitioner/2.16.528.1.1007.3.1-900016431"/>
      <resource>
         <Practitioner>
            <id value="2.16.528.1.1007.3.1-900016431"/>
            <meta>
               <profile value="http://fhir.nl/fhir/StructureDefinition/nl-core-practitioner"/>
            </meta>
            <text>
               <status value="extensions"/>
               <div xmlns="http://www.w3.org/1999/xhtml">
                  <div>Id 900016431 (UZI-NR-PERS), Huisarts 1</div>
               </div>
            </text>
            <identifier>
               <system value="http://fhir.nl/fhir/NamingSystem/uzi-nr-pers"/>
               <value value="900016431"/>
            </identifier>
            <name>
               <extension url="http://hl7.org/fhir/StructureDefinition/humanname-assembly-order">
                  <valueCode value="NL1"/>
               </extension>
               <family value="Huisarts 1">
                  <extension url="http://hl7.org/fhir/StructureDefinition/humanname-own-name">
                     <valueString value="Huisarts 1"/>
                  </extension>
               </family>
            </name>
         </Practitioner>
      </resource>
      <search>
         <mode value="include"/>
      </search>
   </entry>
   <entry>
      <fullUrl value="https://example.org/fhir/Organization/2.16.528.1.1007.3.3-00002727"/>
      <resource>
         <Organization>
            <id value="2.16.528.1.1007.3.3-00002727"/>
            <meta>
               <profile value="http://fhir.nl/fhir/StructureDefinition/nl-core-organization"/>
            </meta>
            <text>
               <status value="extensions"/>
               <div xmlns="http://www.w3.org/1999/xhtml">
                  <table>
                     <caption>Organisatie. Id: 00002727 (URA)</caption>
                     <tbody>
                        <tr>
                           <th>Naam</th>
                           <td>Gezondheidscentrum Aesculaap</td>
                        </tr>
                     </tbody>
                  </table>
               </div>
            </text>
            <identifier>
               <system value="http://fhir.nl/fhir/NamingSystem/ura"/>
               <value value="00002727"/>
            </identifier>
            <name value="Gezondheidscentrum Aesculaap"/>
         </Organization>
      </resource>
      <search>
         <mode value="include"/>
      </search>
   </entry>
   <entry>
      <fullUrl value="urn:uuid:fe856601-4d3b-11ec-2007-020000000000"/>
      <resource>
         <PractitionerRole>
            <meta>
               <profile value="http://fhir.nl/fhir/StructureDefinition/nl-core-practitionerrole"/>
            </meta>
            <text>
               <status value="extensions"/>
               <div xmlns="http://www.w3.org/1999/xhtml">
                  <table>
                     <caption>Zorgverlenerrol. </caption>
                     <tbody>
                        <tr>
                           <th>Zorgverlener</th>
                           <td>
                              <div>
                                 <a href="https://example.org/fhir/Practitioner/2.16.528.1.1007.3.1-900016431">Huisarts 1</a>
                              </div>
                              <div>
                                 <a href="https://example.org/fhir/Organization/2.16.528.1.1007.3.3-00002727">Gezondheidscentrum Aesculaap</a>
                              </div>
                           </td>
                        </tr>
                        <tr>
                           <th>Specialisme</th>
                           <td>
                              <span title="Huisarts (01.015 - http://fhir.nl/fhir/NamingSystem/uzi-rolcode)">Huisarts</span>
                           </td>
                        </tr>
                     </tbody>
                  </table>
               </div>
            </text>
            <practitioner>
               <reference value="https://example.org/fhir/Practitioner/2.16.528.1.1007.3.1-900016431"/>
               <display value="Huisarts 1"/>
            </practitioner>
            <organization>
               <reference value="https://example.org/fhir/Organization/2.16.528.1.1007.3.3-00002727"/>
               <display value="Gezondheidscentrum Aesculaap"/>
            </organization>
            <specialty>
               <coding>
                  <system value="http://fhir.nl/fhir/NamingSystem/uzi-rolcode"/>
                  <code value="01.015"/>
                  <display value="Huisarts"/>
               </coding>
            </specialty>
         </PractitionerRole>
      </resource>
      <search>
         <mode value="include"/>
      </search>
   </entry>
   <entry>
      <fullUrl value="urn:uuid:fe85660f-4d3b-11ec-2007-020000000000"/>
      <resource>
         <Observation>
            <meta>
               <profile value="http://nictiz.nl/fhir/StructureDefinition/gp-JournalEntry"/>
            </meta>
            <text>
               <status value="extensions"/>
               <div xmlns="http://www.w3.org/1999/xhtml">
                  <table>
                     <caption>Observatie/bepaling. Subject: H. XXX_Mulders. Status: definitief</caption>
                     <tbody>
                        <tr>
                           <th>Context</th>
                           <td>Contact ID: MedMijHG-contactmoment09 2.16.840.1.113883.2.4.3.111.19.1 (Id: MedMijHG-contactmoment09 (urn:oid:2.16.840.1.113883.2.4.3.111.19.1))</td>
                        </tr>
                        <tr>
                           <th>Code</th>
                           <th>Waarde</th>
                        </tr>
                        <tr>
                           <td>
                              <span title="Evaluatie (E - http://fhir.nl/fhir/NamingSystem/journaalregeltypen)">Evaluatie</span>
                           </td>
                           <td>Mycose</td>
                        </tr>
                        <tr>
                           <td>
                              <span title="discharge diagnosis (DISDX - v3/ActCode)">discharge diagnosis</span>
                           </td>
                           <td>
                              <span title="Tinea Pedis (S74.01 - sid/icpc-1-nl)">Tinea Pedis</span>
                           </td>
                        </tr>
                     </tbody>
                  </table>
               </div>
            </text>
            <status value="final"/>
            <code>
               <coding>
                  <system value="http://fhir.nl/fhir/NamingSystem/journaalregeltypen"/>
                  <code value="E"/>
                  <display value="Evaluatie"/>
               </coding>
            </code>
            <subject>
               <reference value="urn:uuid:fe8565ee-4d3b-11ec-2007-020000000000"/>
               <display value="H. XXX_Mulders"/>
            </subject>
            <context>
               <identifier>
                  <system value="urn:oid:2.16.840.1.113883.2.4.3.111.19.1"/>
                  <value value="MedMijHG-contactmoment09"/>
               </identifier>
               <display value="Contact ID: MedMijHG-contactmoment09 2.16.840.1.113883.2.4.3.111.19.1"/>
            </context>
            <valueString value="Mycose"/>
            <component>
               <code>
                  <coding>
                     <system value="http://hl7.org/fhir/v3/ActCode"/>
                     <code value="DISDX"/>
                     <display value="discharge diagnosis"/>
                  </coding>
               </code>
               <valueCodeableConcept>
                  <coding>
                     <system value="http://hl7.org/fhir/sid/icpc-1-nl"/>
                     <code value="S74.01"/>
                     <display value="Tinea Pedis"/>
                  </coding>
               </valueCodeableConcept>
            </component>
         </Observation>
      </resource>
      <search>
         <mode value="include"/>
      </search>
   </entry>
   <entry>
      <fullUrl value="urn:uuid:fe856619-4d3b-11ec-2007-020000000000"/>
      <resource>
         <Observation>
            <meta>
               <profile value="http://nictiz.nl/fhir/StructureDefinition/gp-JournalEntry"/>
            </meta>
            <text>
               <status value="extensions"/>
               <div xmlns="http://www.w3.org/1999/xhtml">
                  <table>
                     <caption>Observatie/bepaling. Subject: H. XXX_Mulders. Status: definitief</caption>
                     <tbody>
                        <tr>
                           <th>Context</th>
                           <td>Contact ID: MedMijHG-contactmoment09 2.16.840.1.113883.2.4.3.111.19.1 (Id: MedMijHG-contactmoment09 (urn:oid:2.16.840.1.113883.2.4.3.111.19.1))</td>
                        </tr>
                        <tr>
                           <th>Code</th>
                           <th>Waarde</th>
                        </tr>
                        <tr>
                           <td>
                              <span title="Plan (P - http://fhir.nl/fhir/NamingSystem/journaalregeltypen)">Plan</span>
                           </td>
                           <td>Heeft nog canesten via drogist; 2x daags gebruiken.</td>
                        </tr>
                     </tbody>
                  </table>
               </div>
            </text>
            <status value="final"/>
            <code>
               <coding>
                  <system value="http://fhir.nl/fhir/NamingSystem/journaalregeltypen"/>
                  <code value="P"/>
                  <display value="Plan"/>
               </coding>
            </code>
            <subject>
               <reference value="urn:uuid:fe8565ee-4d3b-11ec-2007-020000000000"/>
               <display value="H. XXX_Mulders"/>
            </subject>
            <context>
               <identifier>
                  <system value="urn:oid:2.16.840.1.113883.2.4.3.111.19.1"/>
                  <value value="MedMijHG-contactmoment09"/>
               </identifier>
               <display value="Contact ID: MedMijHG-contactmoment09 2.16.840.1.113883.2.4.3.111.19.1"/>
            </context>
            <valueString value="Heeft nog canesten via drogist; 2x daags gebruiken."/>
         </Observation>
      </resource>
      <search>
         <mode value="include"/>
      </search>
   </entry>
   <entry>
      <fullUrl value="urn:uuid:fe85662e-4d3b-11ec-2007-020000000000"/>
      <resource>
         <Observation>
            <meta>
               <profile value="http://nictiz.nl/fhir/StructureDefinition/gp-JournalEntry"/>
            </meta>
            <text>
               <status value="extensions"/>
               <div xmlns="http://www.w3.org/1999/xhtml">
                  <table>
                     <caption>Observatie/bepaling. Subject: H. XXX_Mulders. Status: definitief</caption>
                     <tbody>
                        <tr>
                           <th>Context</th>
                           <td>Contact ID: MedMijHG-contactmoment16 2.16.840.1.113883.2.4.3.111.19.1 (Id: MedMijHG-contactmoment16 (urn:oid:2.16.840.1.113883.2.4.3.111.19.1))</td>
                        </tr>
                        <tr>
                           <th>Code</th>
                           <th>Waarde</th>
                        </tr>
                        <tr>
                           <td>
                              <span title="Evaluatie (E - http://fhir.nl/fhir/NamingSystem/journaalregeltypen)">Evaluatie</span>
                           </td>
                           <td>HNP</td>
                        </tr>
                        <tr>
                           <td>
                              <span title="discharge diagnosis (DISDX - v3/ActCode)">discharge diagnosis</span>
                           </td>
                           <td>
                              <span title="HNP (thoracaal/lumbaal) (L86.01 - sid/icpc-1-nl)">HNP (thoracaal/lumbaal)</span>
                           </td>
                        </tr>
                     </tbody>
                  </table>
               </div>
            </text>
            <status value="final"/>
            <code>
               <coding>
                  <system value="http://fhir.nl/fhir/NamingSystem/journaalregeltypen"/>
                  <code value="E"/>
                  <display value="Evaluatie"/>
               </coding>
            </code>
            <subject>
               <reference value="urn:uuid:fe8565ee-4d3b-11ec-2007-020000000000"/>
               <display value="H. XXX_Mulders"/>
            </subject>
            <context>
               <identifier>
                  <system value="urn:oid:2.16.840.1.113883.2.4.3.111.19.1"/>
                  <value value="MedMijHG-contactmoment16"/>
               </identifier>
               <display value="Contact ID: MedMijHG-contactmoment16 2.16.840.1.113883.2.4.3.111.19.1"/>
            </context>
            <valueString value="HNP"/>
            <component>
               <code>
                  <coding>
                     <system value="http://hl7.org/fhir/v3/ActCode"/>
                     <code value="DISDX"/>
                     <display value="discharge diagnosis"/>
                  </coding>
               </code>
               <valueCodeableConcept>
                  <coding>
                     <system value="http://hl7.org/fhir/sid/icpc-1-nl"/>
                     <code value="L86.01"/>
                     <display value="HNP (thoracaal/lumbaal)"/>
                  </coding>
               </valueCodeableConcept>
            </component>
         </Observation>
      </resource>
      <search>
         <mode value="include"/>
      </search>
   </entry>
   <entry>
      <fullUrl value="urn:uuid:fe856638-4d3b-11ec-2007-020000000000"/>
      <resource>
         <Observation>
            <meta>
               <profile value="http://nictiz.nl/fhir/StructureDefinition/gp-JournalEntry"/>
            </meta>
            <text>
               <status value="extensions"/>
               <div xmlns="http://www.w3.org/1999/xhtml">
                  <table>
                     <caption>Observatie/bepaling. Subject: H. XXX_Mulders. Status: definitief</caption>
                     <tbody>
                        <tr>
                           <th>Context</th>
                           <td>Contact ID: MedMijHG-contactmoment16 2.16.840.1.113883.2.4.3.111.19.1 (Id: MedMijHG-contactmoment16 (urn:oid:2.16.840.1.113883.2.4.3.111.19.1))</td>
                        </tr>
                        <tr>
                           <th>Code</th>
                           <th>Waarde</th>
                        </tr>
                        <tr>
                           <td>
                              <span title="Plan (P - http://fhir.nl/fhir/NamingSystem/journaalregeltypen)">Plan</span>
                           </td>
                           <td>Patiënt geïnformeerd, ziet het nog even aan.</td>
                        </tr>
                     </tbody>
                  </table>
               </div>
            </text>
            <status value="final"/>
            <code>
               <coding>
                  <system value="http://fhir.nl/fhir/NamingSystem/journaalregeltypen"/>
                  <code value="P"/>
                  <display value="Plan"/>
               </coding>
            </code>
            <subject>
               <reference value="urn:uuid:fe8565ee-4d3b-11ec-2007-020000000000"/>
               <display value="H. XXX_Mulders"/>
            </subject>
            <context>
               <identifier>
                  <system value="urn:oid:2.16.840.1.113883.2.4.3.111.19.1"/>
                  <value value="MedMijHG-contactmoment16"/>
               </identifier>
               <display value="Contact ID: MedMijHG-contactmoment16 2.16.840.1.113883.2.4.3.111.19.1"/>
            </context>
            <valueString value="Patiënt geïnformeerd, ziet het nog even aan."/>
         </Observation>
      </resource>
      <search>
         <mode value="include"/>
      </search>
   </entry>
   <entry>
      <fullUrl value="urn:uuid:fe8551fd-4d3b-11ec-2007-020000000000"/>
      <resource>
         <Observation>
            <meta>
               <profile value="http://nictiz.nl/fhir/StructureDefinition/gp-JournalEntry"/>
            </meta>
            <text>
               <status value="extensions"/>
               <div xmlns="http://www.w3.org/1999/xhtml">
                  <table>
                     <caption>Observatie/bepaling. Subject: H. XXX_Mulders. Status: definitief</caption>
                     <tbody>
                        <tr>
                           <th>Context</th>
                           <td>Contact ID: MedMijHG-contactmoment13 2.16.840.1.113883.2.4.3.111.19.1 (Id: MedMijHG-contactmoment13 (urn:oid:2.16.840.1.113883.2.4.3.111.19.1))</td>
                        </tr>
                        <tr>
                           <th>Code</th>
                           <th>Waarde</th>
                        </tr>
                        <tr>
                           <td>
                              <span title="Evaluatie (E - http://fhir.nl/fhir/NamingSystem/journaalregeltypen)">Evaluatie</span>
                           </td>
                           <td>Keelpijn eci.</td>
                        </tr>
                        <tr>
                           <td>
                              <span title="discharge diagnosis (DISDX - v3/ActCode)">discharge diagnosis</span>
                           </td>
                           <td>
                              <span title="Keelpijn (R21.01 - sid/icpc-1-nl)">Keelpijn</span>
                           </td>
                        </tr>
                     </tbody>
                  </table>
               </div>
            </text>
            <status value="final"/>
            <code>
               <coding>
                  <system value="http://fhir.nl/fhir/NamingSystem/journaalregeltypen"/>
                  <code value="E"/>
                  <display value="Evaluatie"/>
               </coding>
            </code>
            <subject>
               <reference value="urn:uuid:fe8565ee-4d3b-11ec-2007-020000000000"/>
               <display value="H. XXX_Mulders"/>
            </subject>
            <context>
               <identifier>
                  <system value="urn:oid:2.16.840.1.113883.2.4.3.111.19.1"/>
                  <value value="MedMijHG-contactmoment13"/>
               </identifier>
               <display value="Contact ID: MedMijHG-contactmoment13 2.16.840.1.113883.2.4.3.111.19.1"/>
            </context>
            <valueString value="Keelpijn eci."/>
            <component>
               <code>
                  <coding>
                     <system value="http://hl7.org/fhir/v3/ActCode"/>
                     <code value="DISDX"/>
                     <display value="discharge diagnosis"/>
                  </coding>
               </code>
               <valueCodeableConcept>
                  <coding>
                     <system value="http://hl7.org/fhir/sid/icpc-1-nl"/>
                     <code value="R21.01"/>
                     <display value="Keelpijn"/>
                  </coding>
               </valueCodeableConcept>
            </component>
         </Observation>
      </resource>
      <search>
         <mode value="include"/>
      </search>
   </entry>
   <entry>
      <fullUrl value="urn:uuid:fe85521a-4d3b-11ec-2007-020000000000"/>
      <resource>
         <Observation>
            <meta>
               <profile value="http://nictiz.nl/fhir/StructureDefinition/gp-JournalEntry"/>
            </meta>
            <text>
               <status value="extensions"/>
               <div xmlns="http://www.w3.org/1999/xhtml">
                  <table>
                     <caption>Observatie/bepaling. Subject: H. XXX_Mulders. Status: definitief</caption>
                     <tbody>
                        <tr>
                           <th>Context</th>
                           <td>Contact ID: MedMijHG-contactmoment17 2.16.840.1.113883.2.4.3.111.19.1 (Id: MedMijHG-contactmoment17 (urn:oid:2.16.840.1.113883.2.4.3.111.19.1))</td>
                        </tr>
                        <tr>
                           <th>Code</th>
                           <th>Waarde</th>
                        </tr>
                        <tr>
                           <td>
                              <span title="Evaluatie (E - http://fhir.nl/fhir/NamingSystem/journaalregeltypen)">Evaluatie</span>
                           </td>
                           <td>HNP</td>
                        </tr>
                        <tr>
                           <td>
                              <span title="discharge diagnosis (DISDX - v3/ActCode)">discharge diagnosis</span>
                           </td>
                           <td>
                              <span title="HNP (thoracaal/lumbaal) (L86.01 - sid/icpc-1-nl)">HNP (thoracaal/lumbaal)</span>
                           </td>
                        </tr>
                     </tbody>
                  </table>
               </div>
            </text>
            <status value="final"/>
            <code>
               <coding>
                  <system value="http://fhir.nl/fhir/NamingSystem/journaalregeltypen"/>
                  <code value="E"/>
                  <display value="Evaluatie"/>
               </coding>
            </code>
            <subject>
               <reference value="urn:uuid:fe8565ee-4d3b-11ec-2007-020000000000"/>
               <display value="H. XXX_Mulders"/>
            </subject>
            <context>
               <identifier>
                  <system value="urn:oid:2.16.840.1.113883.2.4.3.111.19.1"/>
                  <value value="MedMijHG-contactmoment17"/>
               </identifier>
               <display value="Contact ID: MedMijHG-contactmoment17 2.16.840.1.113883.2.4.3.111.19.1"/>
            </context>
            <valueString value="HNP"/>
            <component>
               <code>
                  <coding>
                     <system value="http://hl7.org/fhir/v3/ActCode"/>
                     <code value="DISDX"/>
                     <display value="discharge diagnosis"/>
                  </coding>
               </code>
               <valueCodeableConcept>
                  <coding>
                     <system value="http://hl7.org/fhir/sid/icpc-1-nl"/>
                     <code value="L86.01"/>
                     <display value="HNP (thoracaal/lumbaal)"/>
                  </coding>
               </valueCodeableConcept>
            </component>
         </Observation>
      </resource>
      <search>
         <mode value="include"/>
      </search>
   </entry>
   <entry>
      <fullUrl value="urn:uuid:fe855224-4d3b-11ec-2007-020000000000"/>
      <resource>
         <Observation>
            <meta>
               <profile value="http://nictiz.nl/fhir/StructureDefinition/gp-JournalEntry"/>
            </meta>
            <text>
               <status value="extensions"/>
               <div xmlns="http://www.w3.org/1999/xhtml">
                  <table>
                     <caption>Observatie/bepaling. Subject: H. XXX_Mulders. Status: definitief</caption>
                     <tbody>
                        <tr>
                           <th>Context</th>
                           <td>Contact ID: MedMijHG-contactmoment17 2.16.840.1.113883.2.4.3.111.19.1 (Id: MedMijHG-contactmoment17 (urn:oid:2.16.840.1.113883.2.4.3.111.19.1))</td>
                        </tr>
                        <tr>
                           <th>Code</th>
                           <th>Waarde</th>
                        </tr>
                        <tr>
                           <td>
                              <span title="Plan (P - http://fhir.nl/fhir/NamingSystem/journaalregeltypen)">Plan</span>
                           </td>
                           <td>Nogmaals verwijzing Cesar</td>
                        </tr>
                     </tbody>
                  </table>
               </div>
            </text>
            <status value="final"/>
            <code>
               <coding>
                  <system value="http://fhir.nl/fhir/NamingSystem/journaalregeltypen"/>
                  <code value="P"/>
                  <display value="Plan"/>
               </coding>
            </code>
            <subject>
               <reference value="urn:uuid:fe8565ee-4d3b-11ec-2007-020000000000"/>
               <display value="H. XXX_Mulders"/>
            </subject>
            <context>
               <identifier>
                  <system value="urn:oid:2.16.840.1.113883.2.4.3.111.19.1"/>
                  <value value="MedMijHG-contactmoment17"/>
               </identifier>
               <display value="Contact ID: MedMijHG-contactmoment17 2.16.840.1.113883.2.4.3.111.19.1"/>
            </context>
            <valueString value="Nogmaals verwijzing Cesar"/>
         </Observation>
      </resource>
      <search>
         <mode value="include"/>
      </search>
   </entry>
   <entry>
      <fullUrl value="urn:uuid:fe855239-4d3b-11ec-2007-020000000000"/>
      <resource>
         <Observation>
            <meta>
               <profile value="http://nictiz.nl/fhir/StructureDefinition/gp-JournalEntry"/>
            </meta>
            <text>
               <status value="extensions"/>
               <div xmlns="http://www.w3.org/1999/xhtml">
                  <table>
                     <caption>Observatie/bepaling. Subject: H. XXX_Mulders. Status: definitief</caption>
                     <tbody>
                        <tr>
                           <th>Context</th>
                           <td>Contact ID: MedMijHG-contactmoment12 2.16.840.1.113883.2.4.3.111.19.1 (Id: MedMijHG-contactmoment12 (urn:oid:2.16.840.1.113883.2.4.3.111.19.1))</td>
                        </tr>
                        <tr>
                           <th>Code</th>
                           <th>Waarde</th>
                        </tr>
                        <tr>
                           <td>
                              <span title="Evaluatie (E - http://fhir.nl/fhir/NamingSystem/journaalregeltypen)">Evaluatie</span>
                           </td>
                           <td>Keelpijn eci.</td>
                        </tr>
                        <tr>
                           <td>
                              <span title="discharge diagnosis (DISDX - v3/ActCode)">discharge diagnosis</span>
                           </td>
                           <td>
                              <span title="Keelpijn (R21.01 - sid/icpc-1-nl)">Keelpijn</span>
                           </td>
                        </tr>
                     </tbody>
                  </table>
               </div>
            </text>
            <status value="final"/>
            <code>
               <coding>
                  <system value="http://fhir.nl/fhir/NamingSystem/journaalregeltypen"/>
                  <code value="E"/>
                  <display value="Evaluatie"/>
               </coding>
            </code>
            <subject>
               <reference value="urn:uuid:fe8565ee-4d3b-11ec-2007-020000000000"/>
               <display value="H. XXX_Mulders"/>
            </subject>
            <context>
               <identifier>
                  <system value="urn:oid:2.16.840.1.113883.2.4.3.111.19.1"/>
                  <value value="MedMijHG-contactmoment12"/>
               </identifier>
               <display value="Contact ID: MedMijHG-contactmoment12 2.16.840.1.113883.2.4.3.111.19.1"/>
            </context>
            <valueString value="Keelpijn eci."/>
            <component>
               <code>
                  <coding>
                     <system value="http://hl7.org/fhir/v3/ActCode"/>
                     <code value="DISDX"/>
                     <display value="discharge diagnosis"/>
                  </coding>
               </code>
               <valueCodeableConcept>
                  <coding>
                     <system value="http://hl7.org/fhir/sid/icpc-1-nl"/>
                     <code value="R21.01"/>
                     <display value="Keelpijn"/>
                  </coding>
               </valueCodeableConcept>
            </component>
         </Observation>
      </resource>
      <search>
         <mode value="include"/>
      </search>
   </entry>
   <entry>
      <fullUrl value="urn:uuid:fe855243-4d3b-11ec-2007-020000000000"/>
      <resource>
         <Observation>
            <meta>
               <profile value="http://nictiz.nl/fhir/StructureDefinition/gp-JournalEntry"/>
            </meta>
            <text>
               <status value="extensions"/>
               <div xmlns="http://www.w3.org/1999/xhtml">
                  <table>
                     <caption>Observatie/bepaling. Subject: H. XXX_Mulders. Status: definitief</caption>
                     <tbody>
                        <tr>
                           <th>Context</th>
                           <td>Contact ID: MedMijHG-contactmoment12 2.16.840.1.113883.2.4.3.111.19.1 (Id: MedMijHG-contactmoment12 (urn:oid:2.16.840.1.113883.2.4.3.111.19.1))</td>
                        </tr>
                        <tr>
                           <th>Code</th>
                           <th>Waarde</th>
                        </tr>
                        <tr>
                           <td>
                              <span title="Plan (P - http://fhir.nl/fhir/NamingSystem/journaalregeltypen)">Plan</span>
                           </td>
                           <td>Bezoek brengen aan de tandarts, wellicht zit er daar iets.</td>
                        </tr>
                     </tbody>
                  </table>
               </div>
            </text>
            <status value="final"/>
            <code>
               <coding>
                  <system value="http://fhir.nl/fhir/NamingSystem/journaalregeltypen"/>
                  <code value="P"/>
                  <display value="Plan"/>
               </coding>
            </code>
            <subject>
               <reference value="urn:uuid:fe8565ee-4d3b-11ec-2007-020000000000"/>
               <display value="H. XXX_Mulders"/>
            </subject>
            <context>
               <identifier>
                  <system value="urn:oid:2.16.840.1.113883.2.4.3.111.19.1"/>
                  <value value="MedMijHG-contactmoment12"/>
               </identifier>
               <display value="Contact ID: MedMijHG-contactmoment12 2.16.840.1.113883.2.4.3.111.19.1"/>
            </context>
            <valueString value="Bezoek brengen aan de tandarts, wellicht zit er daar iets."/>
         </Observation>
      </resource>
      <search>
         <mode value="include"/>
      </search>
   </entry>
   <entry>
      <fullUrl value="urn:uuid:fe855258-4d3b-11ec-2007-020000000000"/>
      <resource>
         <Observation>
            <meta>
               <profile value="http://nictiz.nl/fhir/StructureDefinition/gp-JournalEntry"/>
            </meta>
            <text>
               <status value="extensions"/>
               <div xmlns="http://www.w3.org/1999/xhtml">
                  <table>
                     <caption>Observatie/bepaling. Subject: H. XXX_Mulders. Status: definitief</caption>
                     <tbody>
                        <tr>
                           <th>Context</th>
                           <td>Contact ID: MedMijHG-contactmoment15 2.16.840.1.113883.2.4.3.111.19.1 (Id: MedMijHG-contactmoment15 (urn:oid:2.16.840.1.113883.2.4.3.111.19.1))</td>
                        </tr>
                        <tr>
                           <th>Code</th>
                           <th>Waarde</th>
                        </tr>
                        <tr>
                           <td>
                              <span title="Evaluatie (E - http://fhir.nl/fhir/NamingSystem/journaalregeltypen)">Evaluatie</span>
                           </td>
                           <td>HNP</td>
                        </tr>
                        <tr>
                           <td>
                              <span title="discharge diagnosis (DISDX - v3/ActCode)">discharge diagnosis</span>
                           </td>
                           <td>
                              <span title="HNP (thoracaal/lumbaal) (L86.01 - sid/icpc-1-nl)">HNP (thoracaal/lumbaal)</span>
                           </td>
                        </tr>
                     </tbody>
                  </table>
               </div>
            </text>
            <status value="final"/>
            <code>
               <coding>
                  <system value="http://fhir.nl/fhir/NamingSystem/journaalregeltypen"/>
                  <code value="E"/>
                  <display value="Evaluatie"/>
               </coding>
            </code>
            <subject>
               <reference value="urn:uuid:fe8565ee-4d3b-11ec-2007-020000000000"/>
               <display value="H. XXX_Mulders"/>
            </subject>
            <context>
               <identifier>
                  <system value="urn:oid:2.16.840.1.113883.2.4.3.111.19.1"/>
                  <value value="MedMijHG-contactmoment15"/>
               </identifier>
               <display value="Contact ID: MedMijHG-contactmoment15 2.16.840.1.113883.2.4.3.111.19.1"/>
            </context>
            <valueString value="HNP"/>
            <component>
               <code>
                  <coding>
                     <system value="http://hl7.org/fhir/v3/ActCode"/>
                     <code value="DISDX"/>
                     <display value="discharge diagnosis"/>
                  </coding>
               </code>
               <valueCodeableConcept>
                  <coding>
                     <system value="http://hl7.org/fhir/sid/icpc-1-nl"/>
                     <code value="L86.01"/>
                     <display value="HNP (thoracaal/lumbaal)"/>
                  </coding>
               </valueCodeableConcept>
            </component>
         </Observation>
      </resource>
      <search>
         <mode value="include"/>
      </search>
   </entry>
   <entry>
      <fullUrl value="urn:uuid:fe855262-4d3b-11ec-2007-020000000000"/>
      <resource>
         <Observation>
            <meta>
               <profile value="http://nictiz.nl/fhir/StructureDefinition/gp-JournalEntry"/>
            </meta>
            <text>
               <status value="extensions"/>
               <div xmlns="http://www.w3.org/1999/xhtml">
                  <table>
                     <caption>Observatie/bepaling. Subject: H. XXX_Mulders. Status: definitief</caption>
                     <tbody>
                        <tr>
                           <th>Context</th>
                           <td>Contact ID: MedMijHG-contactmoment15 2.16.840.1.113883.2.4.3.111.19.1 (Id: MedMijHG-contactmoment15 (urn:oid:2.16.840.1.113883.2.4.3.111.19.1))</td>
                        </tr>
                        <tr>
                           <th>Code</th>
                           <th>Waarde</th>
                        </tr>
                        <tr>
                           <td>
                              <span title="Plan (P - http://fhir.nl/fhir/NamingSystem/journaalregeltypen)">Plan</span>
                           </td>
                           <td>Scan laten maken, afspraak gepland.</td>
                        </tr>
                     </tbody>
                  </table>
               </div>
            </text>
            <status value="final"/>
            <code>
               <coding>
                  <system value="http://fhir.nl/fhir/NamingSystem/journaalregeltypen"/>
                  <code value="P"/>
                  <display value="Plan"/>
               </coding>
            </code>
            <subject>
               <reference value="urn:uuid:fe8565ee-4d3b-11ec-2007-020000000000"/>
               <display value="H. XXX_Mulders"/>
            </subject>
            <context>
               <identifier>
                  <system value="urn:oid:2.16.840.1.113883.2.4.3.111.19.1"/>
                  <value value="MedMijHG-contactmoment15"/>
               </identifier>
               <display value="Contact ID: MedMijHG-contactmoment15 2.16.840.1.113883.2.4.3.111.19.1"/>
            </context>
            <valueString value="Scan laten maken, afspraak gepland."/>
         </Observation>
      </resource>
      <search>
         <mode value="include"/>
      </search>
   </entry>
   <entry>
      <fullUrl value="urn:uuid:fe855277-4d3b-11ec-2007-020000000000"/>
      <resource>
         <Observation>
            <meta>
               <profile value="http://nictiz.nl/fhir/StructureDefinition/gp-JournalEntry"/>
            </meta>
            <text>
               <status value="extensions"/>
               <div xmlns="http://www.w3.org/1999/xhtml">
                  <table>
                     <caption>Observatie/bepaling. Subject: H. XXX_Mulders. Status: definitief</caption>
                     <tbody>
                        <tr>
                           <th>Context</th>
                           <td>Contact ID: MedMijHG-contactmoment14 2.16.840.1.113883.2.4.3.111.19.1 (Id: MedMijHG-contactmoment14 (urn:oid:2.16.840.1.113883.2.4.3.111.19.1))</td>
                        </tr>
                        <tr>
                           <th>Code</th>
                           <th>Waarde</th>
                        </tr>
                        <tr>
                           <td>
                              <span title="Evaluatie (E - http://fhir.nl/fhir/NamingSystem/journaalregeltypen)">Evaluatie</span>
                           </td>
                           <td>Lage rugpijn</td>
                        </tr>
                        <tr>
                           <td>
                              <span title="discharge diagnosis (DISDX - v3/ActCode)">discharge diagnosis</span>
                           </td>
                           <td>
                              <span title="lage rugpijn (L03 - sid/icpc-1-nl)">lage rugpijn</span>
                           </td>
                        </tr>
                     </tbody>
                  </table>
               </div>
            </text>
            <status value="final"/>
            <code>
               <coding>
                  <system value="http://fhir.nl/fhir/NamingSystem/journaalregeltypen"/>
                  <code value="E"/>
                  <display value="Evaluatie"/>
               </coding>
            </code>
            <subject>
               <reference value="urn:uuid:fe8565ee-4d3b-11ec-2007-020000000000"/>
               <display value="H. XXX_Mulders"/>
            </subject>
            <context>
               <identifier>
                  <system value="urn:oid:2.16.840.1.113883.2.4.3.111.19.1"/>
                  <value value="MedMijHG-contactmoment14"/>
               </identifier>
               <display value="Contact ID: MedMijHG-contactmoment14 2.16.840.1.113883.2.4.3.111.19.1"/>
            </context>
            <valueString value="Lage rugpijn"/>
            <component>
               <code>
                  <coding>
                     <system value="http://hl7.org/fhir/v3/ActCode"/>
                     <code value="DISDX"/>
                     <display value="discharge diagnosis"/>
                  </coding>
               </code>
               <valueCodeableConcept>
                  <coding>
                     <system value="http://hl7.org/fhir/sid/icpc-1-nl"/>
                     <code value="L03"/>
                     <display value="lage rugpijn"/>
                  </coding>
               </valueCodeableConcept>
            </component>
         </Observation>
      </resource>
      <search>
         <mode value="include"/>
      </search>
   </entry>
   <entry>
      <fullUrl value="urn:uuid:fe855281-4d3b-11ec-2007-020000000000"/>
      <resource>
         <Observation>
            <meta>
               <profile value="http://nictiz.nl/fhir/StructureDefinition/gp-JournalEntry"/>
            </meta>
            <text>
               <status value="extensions"/>
               <div xmlns="http://www.w3.org/1999/xhtml">
                  <table>
                     <caption>Observatie/bepaling. Subject: H. XXX_Mulders. Status: definitief</caption>
                     <tbody>
                        <tr>
                           <th>Context</th>
                           <td>Contact ID: MedMijHG-contactmoment14 2.16.840.1.113883.2.4.3.111.19.1 (Id: MedMijHG-contactmoment14 (urn:oid:2.16.840.1.113883.2.4.3.111.19.1))</td>
                        </tr>
                        <tr>
                           <th>Code</th>
                           <th>Waarde</th>
                        </tr>
                        <tr>
                           <td>
                              <span title="Plan (P - http://fhir.nl/fhir/NamingSystem/journaalregeltypen)">Plan</span>
                           </td>
                           <td>Cesar of Mensendieck. Verwijzing aangemaakt</td>
                        </tr>
                     </tbody>
                  </table>
               </div>
            </text>
            <status value="final"/>
            <code>
               <coding>
                  <system value="http://fhir.nl/fhir/NamingSystem/journaalregeltypen"/>
                  <code value="P"/>
                  <display value="Plan"/>
               </coding>
            </code>
            <subject>
               <reference value="urn:uuid:fe8565ee-4d3b-11ec-2007-020000000000"/>
               <display value="H. XXX_Mulders"/>
            </subject>
            <context>
               <identifier>
                  <system value="urn:oid:2.16.840.1.113883.2.4.3.111.19.1"/>
                  <value value="MedMijHG-contactmoment14"/>
               </identifier>
               <display value="Contact ID: MedMijHG-contactmoment14 2.16.840.1.113883.2.4.3.111.19.1"/>
            </context>
            <valueString value="Cesar of Mensendieck. Verwijzing aangemaakt"/>
         </Observation>
      </resource>
      <search>
         <mode value="include"/>
      </search>
   </entry>
   <entry>
      <fullUrl value="urn:uuid:fe855296-4d3b-11ec-2007-020000000000"/>
      <resource>
         <Observation>
            <meta>
               <profile value="http://nictiz.nl/fhir/StructureDefinition/gp-JournalEntry"/>
            </meta>
            <text>
               <status value="extensions"/>
               <div xmlns="http://www.w3.org/1999/xhtml">
                  <table>
                     <caption>Observatie/bepaling. Subject: H. XXX_Mulders. Status: definitief</caption>
                     <tbody>
                        <tr>
                           <th>Context</th>
                           <td>Contact ID: MedMijHG-contactmoment07 2.16.840.1.113883.2.4.3.111.19.1 (Id: MedMijHG-contactmoment07 (urn:oid:2.16.840.1.113883.2.4.3.111.19.1))</td>
                        </tr>
                        <tr>
                           <th>Code</th>
                           <th>Waarde</th>
                        </tr>
                        <tr>
                           <td>
                              <span title="Evaluatie (E - http://fhir.nl/fhir/NamingSystem/journaalregeltypen)">Evaluatie</span>
                           </td>
                           <td>Maag/duodenum problemen?</td>
                        </tr>
                        <tr>
                           <td>
                              <span title="discharge diagnosis (DISDX - v3/ActCode)">discharge diagnosis</span>
                           </td>
                           <td>
                              <span title="Maagpijn (D02 - sid/icpc-1-nl)">Maagpijn</span>
                           </td>
                        </tr>
                     </tbody>
                  </table>
               </div>
            </text>
            <status value="final"/>
            <code>
               <coding>
                  <system value="http://fhir.nl/fhir/NamingSystem/journaalregeltypen"/>
                  <code value="E"/>
                  <display value="Evaluatie"/>
               </coding>
            </code>
            <subject>
               <reference value="urn:uuid:fe8565ee-4d3b-11ec-2007-020000000000"/>
               <display value="H. XXX_Mulders"/>
            </subject>
            <context>
               <identifier>
                  <system value="urn:oid:2.16.840.1.113883.2.4.3.111.19.1"/>
                  <value value="MedMijHG-contactmoment07"/>
               </identifier>
               <display value="Contact ID: MedMijHG-contactmoment07 2.16.840.1.113883.2.4.3.111.19.1"/>
            </context>
            <valueString value="Maag/duodenum problemen?"/>
            <component>
               <code>
                  <coding>
                     <system value="http://hl7.org/fhir/v3/ActCode"/>
                     <code value="DISDX"/>
                     <display value="discharge diagnosis"/>
                  </coding>
               </code>
               <valueCodeableConcept>
                  <coding>
                     <system value="http://hl7.org/fhir/sid/icpc-1-nl"/>
                     <code value="D02"/>
                     <display value="Maagpijn"/>
                  </coding>
               </valueCodeableConcept>
            </component>
         </Observation>
      </resource>
      <search>
         <mode value="include"/>
      </search>
   </entry>
   <entry>
      <fullUrl value="urn:uuid:fe8552b3-4d3b-11ec-2007-020000000000"/>
      <resource>
         <Observation>
            <meta>
               <profile value="http://nictiz.nl/fhir/StructureDefinition/gp-JournalEntry"/>
            </meta>
            <text>
               <status value="extensions"/>
               <div xmlns="http://www.w3.org/1999/xhtml">
                  <table>
                     <caption>Observatie/bepaling. Subject: H. XXX_Mulders. Status: definitief</caption>
                     <tbody>
                        <tr>
                           <th>Context</th>
                           <td>Contact ID: MedMijHG-contactmoment10 2.16.840.1.113883.2.4.3.111.19.1 (Id: MedMijHG-contactmoment10 (urn:oid:2.16.840.1.113883.2.4.3.111.19.1))</td>
                        </tr>
                        <tr>
                           <th>Code</th>
                           <th>Waarde</th>
                        </tr>
                        <tr>
                           <td>
                              <span title="Evaluatie (E - http://fhir.nl/fhir/NamingSystem/journaalregeltypen)">Evaluatie</span>
                           </td>
                           <td>Keelpijn eci.</td>
                        </tr>
                        <tr>
                           <td>
                              <span title="discharge diagnosis (DISDX - v3/ActCode)">discharge diagnosis</span>
                           </td>
                           <td>
                              <span title="Keelpijn (R21.01 - sid/icpc-1-nl)">Keelpijn</span>
                           </td>
                        </tr>
                     </tbody>
                  </table>
               </div>
            </text>
            <status value="final"/>
            <code>
               <coding>
                  <system value="http://fhir.nl/fhir/NamingSystem/journaalregeltypen"/>
                  <code value="E"/>
                  <display value="Evaluatie"/>
               </coding>
            </code>
            <subject>
               <reference value="urn:uuid:fe8565ee-4d3b-11ec-2007-020000000000"/>
               <display value="H. XXX_Mulders"/>
            </subject>
            <context>
               <identifier>
                  <system value="urn:oid:2.16.840.1.113883.2.4.3.111.19.1"/>
                  <value value="MedMijHG-contactmoment10"/>
               </identifier>
               <display value="Contact ID: MedMijHG-contactmoment10 2.16.840.1.113883.2.4.3.111.19.1"/>
            </context>
            <valueString value="Keelpijn eci."/>
            <component>
               <code>
                  <coding>
                     <system value="http://hl7.org/fhir/v3/ActCode"/>
                     <code value="DISDX"/>
                     <display value="discharge diagnosis"/>
                  </coding>
               </code>
               <valueCodeableConcept>
                  <coding>
                     <system value="http://hl7.org/fhir/sid/icpc-1-nl"/>
                     <code value="R21.01"/>
                     <display value="Keelpijn"/>
                  </coding>
               </valueCodeableConcept>
            </component>
         </Observation>
      </resource>
      <search>
         <mode value="include"/>
      </search>
   </entry>
   <entry>
      <fullUrl value="urn:uuid:fe8552bd-4d3b-11ec-2007-020000000000"/>
      <resource>
         <Observation>
            <meta>
               <profile value="http://nictiz.nl/fhir/StructureDefinition/gp-JournalEntry"/>
            </meta>
            <text>
               <status value="extensions"/>
               <div xmlns="http://www.w3.org/1999/xhtml">
                  <table>
                     <caption>Observatie/bepaling. Subject: H. XXX_Mulders. Status: definitief</caption>
                     <tbody>
                        <tr>
                           <th>Context</th>
                           <td>Contact ID: MedMijHG-contactmoment10 2.16.840.1.113883.2.4.3.111.19.1 (Id: MedMijHG-contactmoment10 (urn:oid:2.16.840.1.113883.2.4.3.111.19.1))</td>
                        </tr>
                        <tr>
                           <th>Code</th>
                           <th>Waarde</th>
                        </tr>
                        <tr>
                           <td>
                              <span title="Plan (P - http://fhir.nl/fhir/NamingSystem/journaalregeltypen)">Plan</span>
                           </td>
                           <td>Afwachten, zn. Medicatie is nog beschikbaar</td>
                        </tr>
                     </tbody>
                  </table>
               </div>
            </text>
            <status value="final"/>
            <code>
               <coding>
                  <system value="http://fhir.nl/fhir/NamingSystem/journaalregeltypen"/>
                  <code value="P"/>
                  <display value="Plan"/>
               </coding>
            </code>
            <subject>
               <reference value="urn:uuid:fe8565ee-4d3b-11ec-2007-020000000000"/>
               <display value="H. XXX_Mulders"/>
            </subject>
            <context>
               <identifier>
                  <system value="urn:oid:2.16.840.1.113883.2.4.3.111.19.1"/>
                  <value value="MedMijHG-contactmoment10"/>
               </identifier>
               <display value="Contact ID: MedMijHG-contactmoment10 2.16.840.1.113883.2.4.3.111.19.1"/>
            </context>
            <valueString value="Afwachten, zn. Medicatie is nog beschikbaar"/>
         </Observation>
      </resource>
      <search>
         <mode value="include"/>
      </search>
   </entry>
   <entry>
      <fullUrl value="urn:uuid:fe8552d2-4d3b-11ec-2007-020000000000"/>
      <resource>
         <Observation>
            <meta>
               <profile value="http://nictiz.nl/fhir/StructureDefinition/gp-JournalEntry"/>
            </meta>
            <text>
               <status value="extensions"/>
               <div xmlns="http://www.w3.org/1999/xhtml">
                  <table>
                     <caption>Observatie/bepaling. Subject: H. XXX_Mulders. Status: definitief</caption>
                     <tbody>
                        <tr>
                           <th>Context</th>
                           <td>Contact ID: MedMijHG-contactmoment04 2.16.840.1.113883.2.4.3.111.19.1 (Id: MedMijHG-contactmoment04 (urn:oid:2.16.840.1.113883.2.4.3.111.19.1))</td>
                        </tr>
                        <tr>
                           <th>Code</th>
                           <th>Waarde</th>
                        </tr>
                        <tr>
                           <td>
                              <span title="Evaluatie (E - http://fhir.nl/fhir/NamingSystem/journaalregeltypen)">Evaluatie</span>
                           </td>
                           <td>lage rugpijn</td>
                        </tr>
                        <tr>
                           <td>
                              <span title="discharge diagnosis (DISDX - v3/ActCode)">discharge diagnosis</span>
                           </td>
                           <td>
                              <span title="lage rugpijn (L03 - sid/icpc-1-nl)">lage rugpijn</span>
                           </td>
                        </tr>
                     </tbody>
                  </table>
               </div>
            </text>
            <status value="final"/>
            <code>
               <coding>
                  <system value="http://fhir.nl/fhir/NamingSystem/journaalregeltypen"/>
                  <code value="E"/>
                  <display value="Evaluatie"/>
               </coding>
            </code>
            <subject>
               <reference value="urn:uuid:fe8565ee-4d3b-11ec-2007-020000000000"/>
               <display value="H. XXX_Mulders"/>
            </subject>
            <context>
               <identifier>
                  <system value="urn:oid:2.16.840.1.113883.2.4.3.111.19.1"/>
                  <value value="MedMijHG-contactmoment04"/>
               </identifier>
               <display value="Contact ID: MedMijHG-contactmoment04 2.16.840.1.113883.2.4.3.111.19.1"/>
            </context>
            <valueString value="lage rugpijn"/>
            <component>
               <code>
                  <coding>
                     <system value="http://hl7.org/fhir/v3/ActCode"/>
                     <code value="DISDX"/>
                     <display value="discharge diagnosis"/>
                  </coding>
               </code>
               <valueCodeableConcept>
                  <coding>
                     <system value="http://hl7.org/fhir/sid/icpc-1-nl"/>
                     <code value="L03"/>
                     <display value="lage rugpijn"/>
                  </coding>
               </valueCodeableConcept>
            </component>
         </Observation>
      </resource>
      <search>
         <mode value="include"/>
      </search>
   </entry>
   <entry>
      <fullUrl value="urn:uuid:fe8552ef-4d3b-11ec-2007-020000000000"/>
      <resource>
         <Observation>
            <meta>
               <profile value="http://nictiz.nl/fhir/StructureDefinition/gp-JournalEntry"/>
            </meta>
            <text>
               <status value="extensions"/>
               <div xmlns="http://www.w3.org/1999/xhtml">
                  <table>
                     <caption>Observatie/bepaling. Subject: H. XXX_Mulders. Status: definitief</caption>
                     <tbody>
                        <tr>
                           <th>Context</th>
                           <td>Contact ID: MedMijHG-contactmoment06 2.16.840.1.113883.2.4.3.111.19.1 (Id: MedMijHG-contactmoment06 (urn:oid:2.16.840.1.113883.2.4.3.111.19.1))</td>
                        </tr>
                        <tr>
                           <th>Code</th>
                           <th>Waarde</th>
                        </tr>
                        <tr>
                           <td>
                              <span title="Evaluatie (E - http://fhir.nl/fhir/NamingSystem/journaalregeltypen)">Evaluatie</span>
                           </td>
                           <td>Keelpijn eci.</td>
                        </tr>
                        <tr>
                           <td>
                              <span title="discharge diagnosis (DISDX - v3/ActCode)">discharge diagnosis</span>
                           </td>
                           <td>
                              <span title="Keelpijn (R21.01 - sid/icpc-1-nl)">Keelpijn</span>
                           </td>
                        </tr>
                     </tbody>
                  </table>
               </div>
            </text>
            <status value="final"/>
            <code>
               <coding>
                  <system value="http://fhir.nl/fhir/NamingSystem/journaalregeltypen"/>
                  <code value="E"/>
                  <display value="Evaluatie"/>
               </coding>
            </code>
            <subject>
               <reference value="urn:uuid:fe8565ee-4d3b-11ec-2007-020000000000"/>
               <display value="H. XXX_Mulders"/>
            </subject>
            <context>
               <identifier>
                  <system value="urn:oid:2.16.840.1.113883.2.4.3.111.19.1"/>
                  <value value="MedMijHG-contactmoment06"/>
               </identifier>
               <display value="Contact ID: MedMijHG-contactmoment06 2.16.840.1.113883.2.4.3.111.19.1"/>
            </context>
            <valueString value="Keelpijn eci."/>
            <component>
               <code>
                  <coding>
                     <system value="http://hl7.org/fhir/v3/ActCode"/>
                     <code value="DISDX"/>
                     <display value="discharge diagnosis"/>
                  </coding>
               </code>
               <valueCodeableConcept>
                  <coding>
                     <system value="http://hl7.org/fhir/sid/icpc-1-nl"/>
                     <code value="R21.01"/>
                     <display value="Keelpijn"/>
                  </coding>
               </valueCodeableConcept>
            </component>
         </Observation>
      </resource>
      <search>
         <mode value="include"/>
      </search>
   </entry>
   <entry>
      <fullUrl value="urn:uuid:fe8552f9-4d3b-11ec-2007-020000000000"/>
      <resource>
         <Observation>
            <meta>
               <profile value="http://nictiz.nl/fhir/StructureDefinition/gp-JournalEntry"/>
            </meta>
            <text>
               <status value="extensions"/>
               <div xmlns="http://www.w3.org/1999/xhtml">
                  <table>
                     <caption>Observatie/bepaling. Subject: H. XXX_Mulders. Status: definitief</caption>
                     <tbody>
                        <tr>
                           <th>Context</th>
                           <td>Contact ID: MedMijHG-contactmoment06 2.16.840.1.113883.2.4.3.111.19.1 (Id: MedMijHG-contactmoment06 (urn:oid:2.16.840.1.113883.2.4.3.111.19.1))</td>
                        </tr>
                        <tr>
                           <th>Code</th>
                           <th>Waarde</th>
                        </tr>
                        <tr>
                           <td>
                              <span title="Plan (P - http://fhir.nl/fhir/NamingSystem/journaalregeltypen)">Plan</span>
                           </td>
                           <td>Afwachten, zn. Pcm, tijdens feest paracod.</td>
                        </tr>
                     </tbody>
                  </table>
               </div>
            </text>
            <status value="final"/>
            <code>
               <coding>
                  <system value="http://fhir.nl/fhir/NamingSystem/journaalregeltypen"/>
                  <code value="P"/>
                  <display value="Plan"/>
               </coding>
            </code>
            <subject>
               <reference value="urn:uuid:fe8565ee-4d3b-11ec-2007-020000000000"/>
               <display value="H. XXX_Mulders"/>
            </subject>
            <context>
               <identifier>
                  <system value="urn:oid:2.16.840.1.113883.2.4.3.111.19.1"/>
                  <value value="MedMijHG-contactmoment06"/>
               </identifier>
               <display value="Contact ID: MedMijHG-contactmoment06 2.16.840.1.113883.2.4.3.111.19.1"/>
            </context>
            <valueString value="Afwachten, zn. Pcm, tijdens feest paracod."/>
         </Observation>
      </resource>
      <search>
         <mode value="include"/>
      </search>
   </entry>
   <entry>
      <fullUrl value="urn:uuid:fe85530e-4d3b-11ec-2007-020000000000"/>
      <resource>
         <Observation>
            <meta>
               <profile value="http://nictiz.nl/fhir/StructureDefinition/gp-JournalEntry"/>
            </meta>
            <text>
               <status value="extensions"/>
               <div xmlns="http://www.w3.org/1999/xhtml">
                  <table>
                     <caption>Observatie/bepaling. Subject: H. XXX_Mulders. Status: definitief</caption>
                     <tbody>
                        <tr>
                           <th>Context</th>
                           <td>Contact ID: MedMijHG-contactmomentMMK 2.16.840.1.113883.2.4.3.111.19.1 (Id: MedMijHG-contactmomentMMK (urn:oid:2.16.840.1.113883.2.4.3.111.19.1))</td>
                        </tr>
                        <tr>
                           <th>Code</th>
                           <th>Waarde</th>
                        </tr>
                        <tr>
                           <td>
                              <span title="Evaluatie (E - http://fhir.nl/fhir/NamingSystem/journaalregeltypen)">Evaluatie</span>
                           </td>
                           <td>astma</td>
                        </tr>
                        <tr>
                           <td>
                              <span title="discharge diagnosis (DISDX - v3/ActCode)">discharge diagnosis</span>
                           </td>
                           <td>
                              <span title="Astma (R96 - sid/icpc-1-nl)">Astma</span>
                           </td>
                        </tr>
                     </tbody>
                  </table>
               </div>
            </text>
            <status value="final"/>
            <code>
               <coding>
                  <system value="http://fhir.nl/fhir/NamingSystem/journaalregeltypen"/>
                  <code value="E"/>
                  <display value="Evaluatie"/>
               </coding>
            </code>
            <subject>
               <reference value="urn:uuid:fe8565ee-4d3b-11ec-2007-020000000000"/>
               <display value="H. XXX_Mulders"/>
            </subject>
            <context>
               <identifier>
                  <system value="urn:oid:2.16.840.1.113883.2.4.3.111.19.1"/>
                  <value value="MedMijHG-contactmomentMMK"/>
               </identifier>
               <display value="Contact ID: MedMijHG-contactmomentMMK 2.16.840.1.113883.2.4.3.111.19.1"/>
            </context>
            <valueString value="astma"/>
            <component>
               <code>
                  <coding>
                     <system value="http://hl7.org/fhir/v3/ActCode"/>
                     <code value="DISDX"/>
                     <display value="discharge diagnosis"/>
                  </coding>
               </code>
               <valueCodeableConcept>
                  <coding>
                     <system value="http://hl7.org/fhir/sid/icpc-1-nl"/>
                     <code value="R96"/>
                     <display value="Astma"/>
                  </coding>
               </valueCodeableConcept>
            </component>
         </Observation>
      </resource>
      <search>
         <mode value="include"/>
      </search>
   </entry>
   <entry>
      <fullUrl value="urn:uuid:fe855318-4d3b-11ec-2007-020000000000"/>
      <resource>
         <Observation>
            <meta>
               <profile value="http://nictiz.nl/fhir/StructureDefinition/gp-JournalEntry"/>
            </meta>
            <text>
               <status value="extensions"/>
               <div xmlns="http://www.w3.org/1999/xhtml">
                  <table>
                     <caption>Observatie/bepaling. Subject: H. XXX_Mulders. Status: definitief</caption>
                     <tbody>
                        <tr>
                           <th>Context</th>
                           <td>Contact ID: MedMijHG-contactmomentMMK 2.16.840.1.113883.2.4.3.111.19.1 (Id: MedMijHG-contactmomentMMK (urn:oid:2.16.840.1.113883.2.4.3.111.19.1))</td>
                        </tr>
                        <tr>
                           <th>Code</th>
                           <th>Waarde</th>
                        </tr>
                        <tr>
                           <td>
                              <span title="Plan (P - http://fhir.nl/fhir/NamingSystem/journaalregeltypen)">Plan</span>
                           </td>
                           <td>Salbutamol half uur voor het sporten.</td>
                        </tr>
                     </tbody>
                  </table>
               </div>
            </text>
            <status value="final"/>
            <code>
               <coding>
                  <system value="http://fhir.nl/fhir/NamingSystem/journaalregeltypen"/>
                  <code value="P"/>
                  <display value="Plan"/>
               </coding>
            </code>
            <subject>
               <reference value="urn:uuid:fe8565ee-4d3b-11ec-2007-020000000000"/>
               <display value="H. XXX_Mulders"/>
            </subject>
            <context>
               <identifier>
                  <system value="urn:oid:2.16.840.1.113883.2.4.3.111.19.1"/>
                  <value value="MedMijHG-contactmomentMMK"/>
               </identifier>
               <display value="Contact ID: MedMijHG-contactmomentMMK 2.16.840.1.113883.2.4.3.111.19.1"/>
            </context>
            <valueString value="Salbutamol half uur voor het sporten."/>
         </Observation>
      </resource>
      <search>
         <mode value="include"/>
      </search>
   </entry>
   <entry>
      <fullUrl value="urn:uuid:fe85532d-4d3b-11ec-2007-020000000000"/>
      <resource>
         <Observation>
            <meta>
               <profile value="http://nictiz.nl/fhir/StructureDefinition/gp-JournalEntry"/>
            </meta>
            <text>
               <status value="extensions"/>
               <div xmlns="http://www.w3.org/1999/xhtml">
                  <table>
                     <caption>Observatie/bepaling. Subject: H. XXX_Mulders. Status: definitief</caption>
                     <tbody>
                        <tr>
                           <th>Context</th>
                           <td>Contact ID: MedMijHG-contactmoment08 2.16.840.1.113883.2.4.3.111.19.1 (Id: MedMijHG-contactmoment08 (urn:oid:2.16.840.1.113883.2.4.3.111.19.1))</td>
                        </tr>
                        <tr>
                           <th>Code</th>
                           <th>Waarde</th>
                        </tr>
                        <tr>
                           <td>
                              <span title="Evaluatie (E - http://fhir.nl/fhir/NamingSystem/journaalregeltypen)">Evaluatie</span>
                           </td>
                           <td>Onder mandibula re. glad weinig mobile zwelling, lijkt speekselkl.</td>
                        </tr>
                     </tbody>
                  </table>
               </div>
            </text>
            <status value="final"/>
            <code>
               <coding>
                  <system value="http://fhir.nl/fhir/NamingSystem/journaalregeltypen"/>
                  <code value="E"/>
                  <display value="Evaluatie"/>
               </coding>
            </code>
            <subject>
               <reference value="urn:uuid:fe8565ee-4d3b-11ec-2007-020000000000"/>
               <display value="H. XXX_Mulders"/>
            </subject>
            <context>
               <identifier>
                  <system value="urn:oid:2.16.840.1.113883.2.4.3.111.19.1"/>
                  <value value="MedMijHG-contactmoment08"/>
               </identifier>
               <display value="Contact ID: MedMijHG-contactmoment08 2.16.840.1.113883.2.4.3.111.19.1"/>
            </context>
            <valueString value="Onder mandibula re. glad weinig mobile zwelling, lijkt speekselkl."/>
         </Observation>
      </resource>
      <search>
         <mode value="include"/>
      </search>
   </entry>
   <entry>
      <fullUrl value="urn:uuid:fe855330-4d3b-11ec-2007-020000000000"/>
      <resource>
         <Observation>
            <meta>
               <profile value="http://nictiz.nl/fhir/StructureDefinition/gp-JournalEntry"/>
            </meta>
            <text>
               <status value="extensions"/>
               <div xmlns="http://www.w3.org/1999/xhtml">
                  <table>
                     <caption>Observatie/bepaling. Subject: H. XXX_Mulders. Status: definitief</caption>
                     <tbody>
                        <tr>
                           <th>Context</th>
                           <td>Contact ID: MedMijHG-contactmoment08 2.16.840.1.113883.2.4.3.111.19.1 (Id: MedMijHG-contactmoment08 (urn:oid:2.16.840.1.113883.2.4.3.111.19.1))</td>
                        </tr>
                        <tr>
                           <th>Code</th>
                           <th>Waarde</th>
                        </tr>
                        <tr>
                           <td>
                              <span title="Plan (P - http://fhir.nl/fhir/NamingSystem/journaalregeltypen)">Plan</span>
                           </td>
                           <td>Echo</td>
                        </tr>
                     </tbody>
                  </table>
               </div>
            </text>
            <status value="final"/>
            <code>
               <coding>
                  <system value="http://fhir.nl/fhir/NamingSystem/journaalregeltypen"/>
                  <code value="P"/>
                  <display value="Plan"/>
               </coding>
            </code>
            <subject>
               <reference value="urn:uuid:fe8565ee-4d3b-11ec-2007-020000000000"/>
               <display value="H. XXX_Mulders"/>
            </subject>
            <context>
               <identifier>
                  <system value="urn:oid:2.16.840.1.113883.2.4.3.111.19.1"/>
                  <value value="MedMijHG-contactmoment08"/>
               </identifier>
               <display value="Contact ID: MedMijHG-contactmoment08 2.16.840.1.113883.2.4.3.111.19.1"/>
            </context>
            <valueString value="Echo"/>
         </Observation>
      </resource>
      <search>
         <mode value="include"/>
      </search>
   </entry>
   <entry>
      <fullUrl value="urn:uuid:fe855344-4d3b-11ec-2007-020000000000"/>
      <resource>
         <Observation>
            <meta>
               <profile value="http://nictiz.nl/fhir/StructureDefinition/gp-JournalEntry"/>
            </meta>
            <text>
               <status value="extensions"/>
               <div xmlns="http://www.w3.org/1999/xhtml">
                  <table>
                     <caption>Observatie/bepaling. Subject: H. XXX_Mulders. Status: definitief</caption>
                     <tbody>
                        <tr>
                           <th>Context</th>
                           <td>Contact ID: MedMijHG-contactmoment03 2.16.840.1.113883.2.4.3.111.19.1 (Id: MedMijHG-contactmoment03 (urn:oid:2.16.840.1.113883.2.4.3.111.19.1))</td>
                        </tr>
                        <tr>
                           <th>Code</th>
                           <th>Waarde</th>
                        </tr>
                        <tr>
                           <td>
                              <span title="Plan (P - http://fhir.nl/fhir/NamingSystem/journaalregeltypen)">Plan</span>
                           </td>
                           <td>Over paar weken RR thuis.</td>
                        </tr>
                     </tbody>
                  </table>
               </div>
            </text>
            <status value="final"/>
            <code>
               <coding>
                  <system value="http://fhir.nl/fhir/NamingSystem/journaalregeltypen"/>
                  <code value="P"/>
                  <display value="Plan"/>
               </coding>
            </code>
            <subject>
               <reference value="urn:uuid:fe8565ee-4d3b-11ec-2007-020000000000"/>
               <display value="H. XXX_Mulders"/>
            </subject>
            <context>
               <identifier>
                  <system value="urn:oid:2.16.840.1.113883.2.4.3.111.19.1"/>
                  <value value="MedMijHG-contactmoment03"/>
               </identifier>
               <display value="Contact ID: MedMijHG-contactmoment03 2.16.840.1.113883.2.4.3.111.19.1"/>
            </context>
            <valueString value="Over paar weken RR thuis."/>
         </Observation>
      </resource>
      <search>
         <mode value="include"/>
      </search>
   </entry>
   <entry>
      <fullUrl value="urn:uuid:fe855358-4d3b-11ec-2007-020000000000"/>
      <resource>
         <Observation>
            <meta>
               <profile value="http://nictiz.nl/fhir/StructureDefinition/gp-JournalEntry"/>
            </meta>
            <text>
               <status value="extensions"/>
               <div xmlns="http://www.w3.org/1999/xhtml">
                  <table>
                     <caption>Observatie/bepaling. Subject: H. XXX_Mulders. Status: definitief</caption>
                     <tbody>
                        <tr>
                           <th>Context</th>
                           <td>Contact ID: MedMijHG-contactmoment02 2.16.840.1.113883.2.4.3.111.19.1 (Id: MedMijHG-contactmoment02 (urn:oid:2.16.840.1.113883.2.4.3.111.19.1))</td>
                        </tr>
                        <tr>
                           <th>Code</th>
                           <th>Waarde</th>
                        </tr>
                        <tr>
                           <td>
                              <span title="Plan (P - http://fhir.nl/fhir/NamingSystem/journaalregeltypen)">Plan</span>
                           </td>
                           <td>Na vakantie nogmaals.</td>
                        </tr>
                     </tbody>
                  </table>
               </div>
            </text>
            <status value="final"/>
            <code>
               <coding>
                  <system value="http://fhir.nl/fhir/NamingSystem/journaalregeltypen"/>
                  <code value="P"/>
                  <display value="Plan"/>
               </coding>
            </code>
            <subject>
               <reference value="urn:uuid:fe8565ee-4d3b-11ec-2007-020000000000"/>
               <display value="H. XXX_Mulders"/>
            </subject>
            <context>
               <identifier>
                  <system value="urn:oid:2.16.840.1.113883.2.4.3.111.19.1"/>
                  <value value="MedMijHG-contactmoment02"/>
               </identifier>
               <display value="Contact ID: MedMijHG-contactmoment02 2.16.840.1.113883.2.4.3.111.19.1"/>
            </context>
            <valueString value="Na vakantie nogmaals."/>
         </Observation>
      </resource>
      <search>
         <mode value="include"/>
      </search>
   </entry>
   <entry>
      <fullUrl value="urn:uuid:fe85536d-4d3b-11ec-2007-020000000000"/>
      <resource>
         <Observation>
            <meta>
               <profile value="http://nictiz.nl/fhir/StructureDefinition/gp-JournalEntry"/>
            </meta>
            <text>
               <status value="extensions"/>
               <div xmlns="http://www.w3.org/1999/xhtml">
                  <table>
                     <caption>Observatie/bepaling. Subject: H. XXX_Mulders. Status: definitief</caption>
                     <tbody>
                        <tr>
                           <th>Context</th>
                           <td>Contact ID: MedMijHG-contactmoment01 2.16.840.1.113883.2.4.3.111.19.1 (Id: MedMijHG-contactmoment01 (urn:oid:2.16.840.1.113883.2.4.3.111.19.1))</td>
                        </tr>
                        <tr>
                           <th>Code</th>
                           <th>Waarde</th>
                        </tr>
                        <tr>
                           <td>
                              <span title="Evaluatie (E - http://fhir.nl/fhir/NamingSystem/journaalregeltypen)">Evaluatie</span>
                           </td>
                           <td>Ritmestoornis</td>
                        </tr>
                        <tr>
                           <td>
                              <span title="discharge diagnosis (DISDX - v3/ActCode)">discharge diagnosis</span>
                           </td>
                           <td>
                              <span title="Boezemfibrilleren/-fladderen (K78 - sid/icpc-1-nl)">Boezemfibrilleren/-fladderen</span>
                           </td>
                        </tr>
                     </tbody>
                  </table>
               </div>
            </text>
            <status value="final"/>
            <code>
               <coding>
                  <system value="http://fhir.nl/fhir/NamingSystem/journaalregeltypen"/>
                  <code value="E"/>
                  <display value="Evaluatie"/>
               </coding>
            </code>
            <subject>
               <reference value="urn:uuid:fe8565ee-4d3b-11ec-2007-020000000000"/>
               <display value="H. XXX_Mulders"/>
            </subject>
            <context>
               <identifier>
                  <system value="urn:oid:2.16.840.1.113883.2.4.3.111.19.1"/>
                  <value value="MedMijHG-contactmoment01"/>
               </identifier>
               <display value="Contact ID: MedMijHG-contactmoment01 2.16.840.1.113883.2.4.3.111.19.1"/>
            </context>
            <valueString value="Ritmestoornis"/>
            <component>
               <code>
                  <coding>
                     <system value="http://hl7.org/fhir/v3/ActCode"/>
                     <code value="DISDX"/>
                     <display value="discharge diagnosis"/>
                  </coding>
               </code>
               <valueCodeableConcept>
                  <coding>
                     <system value="http://hl7.org/fhir/sid/icpc-1-nl"/>
                     <code value="K78"/>
                     <display value="Boezemfibrilleren/-fladderen"/>
                  </coding>
               </valueCodeableConcept>
            </component>
         </Observation>
      </resource>
      <search>
         <mode value="include"/>
      </search>
   </entry>
   <entry>
      <fullUrl value="urn:uuid:fe855377-4d3b-11ec-2007-020000000000"/>
      <resource>
         <Observation>
            <meta>
               <profile value="http://nictiz.nl/fhir/StructureDefinition/gp-JournalEntry"/>
            </meta>
            <text>
               <status value="extensions"/>
               <div xmlns="http://www.w3.org/1999/xhtml">
                  <table>
                     <caption>Observatie/bepaling. Subject: H. XXX_Mulders. Status: definitief</caption>
                     <tbody>
                        <tr>
                           <th>Context</th>
                           <td>Contact ID: MedMijHG-contactmoment01 2.16.840.1.113883.2.4.3.111.19.1 (Id: MedMijHG-contactmoment01 (urn:oid:2.16.840.1.113883.2.4.3.111.19.1))</td>
                        </tr>
                        <tr>
                           <th>Code</th>
                           <th>Waarde</th>
                        </tr>
                        <tr>
                           <td>
                              <span title="Plan (P - http://fhir.nl/fhir/NamingSystem/journaalregeltypen)">Plan</span>
                           </td>
                           <td>Naar SEH.</td>
                        </tr>
                     </tbody>
                  </table>
               </div>
            </text>
            <status value="final"/>
            <code>
               <coding>
                  <system value="http://fhir.nl/fhir/NamingSystem/journaalregeltypen"/>
                  <code value="P"/>
                  <display value="Plan"/>
               </coding>
            </code>
            <subject>
               <reference value="urn:uuid:fe8565ee-4d3b-11ec-2007-020000000000"/>
               <display value="H. XXX_Mulders"/>
            </subject>
            <context>
               <identifier>
                  <system value="urn:oid:2.16.840.1.113883.2.4.3.111.19.1"/>
                  <value value="MedMijHG-contactmoment01"/>
               </identifier>
               <display value="Contact ID: MedMijHG-contactmoment01 2.16.840.1.113883.2.4.3.111.19.1"/>
            </context>
            <valueString value="Naar SEH."/>
         </Observation>
      </resource>
      <search>
         <mode value="include"/>
      </search>
   </entry>
   <entry>
      <fullUrl value="urn:uuid:fe85538c-4d3b-11ec-2007-020000000000"/>
      <resource>
         <Observation>
            <meta>
               <profile value="http://nictiz.nl/fhir/StructureDefinition/gp-JournalEntry"/>
            </meta>
            <text>
               <status value="extensions"/>
               <div xmlns="http://www.w3.org/1999/xhtml">
                  <table>
                     <caption>Observatie/bepaling. Subject: H. XXX_Mulders. Status: definitief</caption>
                     <tbody>
                        <tr>
                           <th>Context</th>
                           <td>Contact ID: MedMijHG-contactmoment11 2.16.840.1.113883.2.4.3.111.19.1 (Id: MedMijHG-contactmoment11 (urn:oid:2.16.840.1.113883.2.4.3.111.19.1))</td>
                        </tr>
                        <tr>
                           <th>Code</th>
                           <th>Waarde</th>
                        </tr>
                        <tr>
                           <td>
                              <span title="Evaluatie (E - http://fhir.nl/fhir/NamingSystem/journaalregeltypen)">Evaluatie</span>
                           </td>
                           <td>Keelpijn eci.</td>
                        </tr>
                        <tr>
                           <td>
                              <span title="discharge diagnosis (DISDX - v3/ActCode)">discharge diagnosis</span>
                           </td>
                           <td>
                              <span title="Keelpijn (R21.01 - sid/icpc-1-nl)">Keelpijn</span>
                           </td>
                        </tr>
                     </tbody>
                  </table>
               </div>
            </text>
            <status value="final"/>
            <code>
               <coding>
                  <system value="http://fhir.nl/fhir/NamingSystem/journaalregeltypen"/>
                  <code value="E"/>
                  <display value="Evaluatie"/>
               </coding>
            </code>
            <subject>
               <reference value="urn:uuid:fe8565ee-4d3b-11ec-2007-020000000000"/>
               <display value="H. XXX_Mulders"/>
            </subject>
            <context>
               <identifier>
                  <system value="urn:oid:2.16.840.1.113883.2.4.3.111.19.1"/>
                  <value value="MedMijHG-contactmoment11"/>
               </identifier>
               <display value="Contact ID: MedMijHG-contactmoment11 2.16.840.1.113883.2.4.3.111.19.1"/>
            </context>
            <valueString value="Keelpijn eci."/>
            <component>
               <code>
                  <coding>
                     <system value="http://hl7.org/fhir/v3/ActCode"/>
                     <code value="DISDX"/>
                     <display value="discharge diagnosis"/>
                  </coding>
               </code>
               <valueCodeableConcept>
                  <coding>
                     <system value="http://hl7.org/fhir/sid/icpc-1-nl"/>
                     <code value="R21.01"/>
                     <display value="Keelpijn"/>
                  </coding>
               </valueCodeableConcept>
            </component>
         </Observation>
      </resource>
      <search>
         <mode value="include"/>
      </search>
   </entry>
   <entry>
      <fullUrl value="urn:uuid:fe855396-4d3b-11ec-2007-020000000000"/>
      <resource>
         <Observation>
            <meta>
               <profile value="http://nictiz.nl/fhir/StructureDefinition/gp-JournalEntry"/>
            </meta>
            <text>
               <status value="extensions"/>
               <div xmlns="http://www.w3.org/1999/xhtml">
                  <table>
                     <caption>Observatie/bepaling. Subject: H. XXX_Mulders. Status: definitief</caption>
                     <tbody>
                        <tr>
                           <th>Context</th>
                           <td>Contact ID: MedMijHG-contactmoment11 2.16.840.1.113883.2.4.3.111.19.1 (Id: MedMijHG-contactmoment11 (urn:oid:2.16.840.1.113883.2.4.3.111.19.1))</td>
                        </tr>
                        <tr>
                           <th>Code</th>
                           <th>Waarde</th>
                        </tr>
                        <tr>
                           <td>
                              <span title="Plan (P - http://fhir.nl/fhir/NamingSystem/journaalregeltypen)">Plan</span>
                           </td>
                           <td>Kweek van aanslag keel</td>
                        </tr>
                     </tbody>
                  </table>
               </div>
            </text>
            <status value="final"/>
            <code>
               <coding>
                  <system value="http://fhir.nl/fhir/NamingSystem/journaalregeltypen"/>
                  <code value="P"/>
                  <display value="Plan"/>
               </coding>
            </code>
            <subject>
               <reference value="urn:uuid:fe8565ee-4d3b-11ec-2007-020000000000"/>
               <display value="H. XXX_Mulders"/>
            </subject>
            <context>
               <identifier>
                  <system value="urn:oid:2.16.840.1.113883.2.4.3.111.19.1"/>
                  <value value="MedMijHG-contactmoment11"/>
               </identifier>
               <display value="Contact ID: MedMijHG-contactmoment11 2.16.840.1.113883.2.4.3.111.19.1"/>
            </context>
            <valueString value="Kweek van aanslag keel"/>
         </Observation>
      </resource>
      <search>
         <mode value="include"/>
      </search>
   </entry>
   <entry>
      <fullUrl value="urn:uuid:fe8553ab-4d3b-11ec-2007-020000000000"/>
      <resource>
         <Observation>
            <meta>
               <profile value="http://nictiz.nl/fhir/StructureDefinition/gp-JournalEntry"/>
            </meta>
            <text>
               <status value="extensions"/>
               <div xmlns="http://www.w3.org/1999/xhtml">
                  <table>
                     <caption>Observatie/bepaling. Subject: H. XXX_Mulders. Status: definitief</caption>
                     <tbody>
                        <tr>
                           <th>Context</th>
                           <td>Contact ID: MedMijHG-contactmoment05 2.16.840.1.113883.2.4.3.111.19.1 (Id: MedMijHG-contactmoment05 (urn:oid:2.16.840.1.113883.2.4.3.111.19.1))</td>
                        </tr>
                        <tr>
                           <th>Code</th>
                           <th>Waarde</th>
                        </tr>
                        <tr>
                           <td>
                              <span title="Evaluatie (E - http://fhir.nl/fhir/NamingSystem/journaalregeltypen)">Evaluatie</span>
                           </td>
                           <td>Maag/duodenum problemen?</td>
                        </tr>
                        <tr>
                           <td>
                              <span title="discharge diagnosis (DISDX - v3/ActCode)">discharge diagnosis</span>
                           </td>
                           <td>
                              <span title="lage rugpijn (L03 - sid/icpc-1-nl)">lage rugpijn</span>
                           </td>
                        </tr>
                     </tbody>
                  </table>
               </div>
            </text>
            <status value="final"/>
            <code>
               <coding>
                  <system value="http://fhir.nl/fhir/NamingSystem/journaalregeltypen"/>
                  <code value="E"/>
                  <display value="Evaluatie"/>
               </coding>
            </code>
            <subject>
               <reference value="urn:uuid:fe8565ee-4d3b-11ec-2007-020000000000"/>
               <display value="H. XXX_Mulders"/>
            </subject>
            <context>
               <identifier>
                  <system value="urn:oid:2.16.840.1.113883.2.4.3.111.19.1"/>
                  <value value="MedMijHG-contactmoment05"/>
               </identifier>
               <display value="Contact ID: MedMijHG-contactmoment05 2.16.840.1.113883.2.4.3.111.19.1"/>
            </context>
            <valueString value="Maag/duodenum problemen?"/>
            <component>
               <code>
                  <coding>
                     <system value="http://hl7.org/fhir/v3/ActCode"/>
                     <code value="DISDX"/>
                     <display value="discharge diagnosis"/>
                  </coding>
               </code>
               <valueCodeableConcept>
                  <coding>
                     <system value="http://hl7.org/fhir/sid/icpc-1-nl"/>
                     <code value="L03"/>
                     <display value="lage rugpijn"/>
                  </coding>
               </valueCodeableConcept>
            </component>
         </Observation>
      </resource>
      <search>
         <mode value="include"/>
      </search>
   </entry>
   <entry>
      <fullUrl value="urn:uuid:fe8553b5-4d3b-11ec-2007-020000000000"/>
      <resource>
         <Observation>
            <meta>
               <profile value="http://nictiz.nl/fhir/StructureDefinition/gp-JournalEntry"/>
            </meta>
            <text>
               <status value="extensions"/>
               <div xmlns="http://www.w3.org/1999/xhtml">
                  <table>
                     <caption>Observatie/bepaling. Subject: H. XXX_Mulders. Status: definitief</caption>
                     <tbody>
                        <tr>
                           <th>Context</th>
                           <td>Contact ID: MedMijHG-contactmoment05 2.16.840.1.113883.2.4.3.111.19.1 (Id: MedMijHG-contactmoment05 (urn:oid:2.16.840.1.113883.2.4.3.111.19.1))</td>
                        </tr>
                        <tr>
                           <th>Code</th>
                           <th>Waarde</th>
                        </tr>
                        <tr>
                           <td>
                              <span title="Plan (P - http://fhir.nl/fhir/NamingSystem/journaalregeltypen)">Plan</span>
                           </td>
                           <td>Cesar of Mensendieck.</td>
                        </tr>
                     </tbody>
                  </table>
               </div>
            </text>
            <status value="final"/>
            <code>
               <coding>
                  <system value="http://fhir.nl/fhir/NamingSystem/journaalregeltypen"/>
                  <code value="P"/>
                  <display value="Plan"/>
               </coding>
            </code>
            <subject>
               <reference value="urn:uuid:fe8565ee-4d3b-11ec-2007-020000000000"/>
               <display value="H. XXX_Mulders"/>
            </subject>
            <context>
               <identifier>
                  <system value="urn:oid:2.16.840.1.113883.2.4.3.111.19.1"/>
                  <value value="MedMijHG-contactmoment05"/>
               </identifier>
               <display value="Contact ID: MedMijHG-contactmoment05 2.16.840.1.113883.2.4.3.111.19.1"/>
            </context>
            <valueString value="Cesar of Mensendieck."/>
         </Observation>
      </resource>
      <search>
         <mode value="include"/>
      </search>
   </entry>
</Bundle>
