<?xml-model href="http://hl7.org/fhir/STU3/bundle.sch" type="application/xml" schematypens="http://purl.oclc.org/dsdl/schematron"?><Bundle xmlns="http://hl7.org/fhir"
        xmlns:xsi="http://www.w3.org/2001/XMLSchema-instance"
        xsi:schemaLocation="http://hl7.org/fhir http://hl7.org/fhir/STU3/fhir-all.xsd">
   <type value="searchset"/>
   <total value="12"/>
   <entry>
      <fullUrl value="urn:uuid:a14f8d69-c753-11ea-1021-020000000000"/>
      <resource>
         <Composition>
            <meta>
               <profile value="http://nictiz.nl/fhir/StructureDefinition/gp-EncounterReport"/>
            </meta>
            <text>
               <status value="generated"/>
               <div xmlns="http://www.w3.org/1999/xhtml">
                  <b>Diabetes mellitus</b>
                  <table>
                     <caption>Samengestelde informatie. Subject: Tester Anoniem. Status: definitief<span style="display: block;">Auteur: Ch.P.M. Verhoeff</span>
                     </caption>
                     <tbody>
                        <tr>
                           <th>Type</th>
                           <td>
                              <span title="Summarization of encounter note Narrative (67781-5 - LOINC)">Summarization of encounter note Narrative</span>
                           </td>
                        </tr>
                        <tr>
                           <th>Gemaakt</th>
                           <td>15:23:33, 11 juli 2019</td>
                        </tr>
                        <tr>
                           <th>Contact</th>
                           <td>Contactmoment: ab874b06372b85dc23d396db1660cb89 consult 2019-07-11T15:23:33+02:00</td>
                        </tr>
                     </tbody>
                  </table>
               </div>
            </text>
            <status value="final"/>
            <type>
               <coding>
                  <system value="http://loinc.org"/>
                  <code value="67781-5"/>
                  <display value="Summarization of encounter note Narrative"/>
               </coding>
            </type>
            <subject>
               <reference value="urn:uuid:a14f8d50-c753-11ea-1021-020000000000"/>
               <display value="Tester Anoniem"/>
            </subject>
            <encounter>
               <reference value="urn:uuid:a14f6b98-c753-11ea-1021-020000000000"/>
               <display value="Contactmoment: ab874b06372b85dc23d396db1660cb89 consult 2019-07-11T15:23:33+02:00"/>
            </encounter>
            <date value="2019-07-11T15:23:33+02:00"/>
            <author>
                  <reference value="urn:oid:2.16.840.1.113883.2.4.6.1.1006222"/>
               <display value="Ch.P.M. Verhoeff"/>
               </author>
            <title value="Diabetes mellitus"/>
            <section>
               <code>
                  <coding>
                     <system value="http://fhir.nl/fhir/NamingSystem/journaalregeltypen"/>
                     <code value="S"/>
                     <display value="Subjectief"/>
                  </coding>
               </code>
               <text>
                  <status value="generated"/>
                  <div xmlns="http://www.w3.org/1999/xhtml"> </div>
               </text>
               <entry>
                  <reference value="urn:uuid:a14f8d91-c753-11ea-1021-020000000000"/>
                  <display value="S: Subjectief - "/>
               </entry>
               <entry>
                  <identifier>
                     <system value="2.16.528.1.1007.3.3.00043987.418.8"/>
                     <value value="6779736e5c716ab6608325f3f90b5e13"/>
                  </identifier>
                  <display value="Episode: 6779736e5c716ab6608325f3f90b5e13 2.16.528.1.1007.3.3.00043987.418.8"/>
               </entry>
            </section>
            <section>
               <code>
                  <coding>
                     <system value="http://fhir.nl/fhir/NamingSystem/journaalregeltypen"/>
                     <code value="P"/>
                     <display value="Plan"/>
                  </coding>
               </code>
               <text>
                  <status value="generated"/>
                  <div xmlns="http://www.w3.org/1999/xhtml"> </div>
               </text>
               <entry>
                  <reference value="urn:uuid:a14f830c-c753-11ea-1021-020000000000"/>
                  <display value="P: Plan - "/>
               </entry>
               <entry>
                  <identifier>
                     <system value="2.16.528.1.1007.3.3.00043987.418.8"/>
                     <value value="6779736e5c716ab6608325f3f90b5e13"/>
                  </identifier>
                  <display value="Episode: 6779736e5c716ab6608325f3f90b5e13 2.16.528.1.1007.3.3.00043987.418.8"/>
               </entry>
            </section>
            <section>
               <extension url="http://nictiz.nl/fhir/StructureDefinition/code-icpc-1-nl">
                  <valueCodeableConcept>
                     <coding>
                        <system value="http://hl7.org/fhir/sid/icpc-1-nl"/>
                        <code value="T90.02"/>
                        <display value="Diabetes mellitus"/>
                     </coding>
                  </valueCodeableConcept>
               </extension>
               <code>
                  <coding>
                     <system value="http://fhir.nl/fhir/NamingSystem/journaalregeltypen"/>
                     <code value="E"/>
                     <display value="Evaluatie"/>
                  </coding>
               </code>
               <text>
                  <status value="generated"/>
                  <div xmlns="http://www.w3.org/1999/xhtml">Diabetes mellitus</div>
               </text>
               <entry>
                  <reference value="urn:uuid:a14f8314-c753-11ea-1021-020000000000"/>
                  <display value="E: Evaluatie - Diabetes mellitus"/>
               </entry>
               <entry>
                  <identifier>
                     <system value="2.16.528.1.1007.3.3.00043987.418.8"/>
                     <value value="6779736e5c716ab6608325f3f90b5e13"/>
                  </identifier>
                  <display value="Episode: 6779736e5c716ab6608325f3f90b5e13 2.16.528.1.1007.3.3.00043987.418.8"/>
               </entry>
            </section>
         </Composition>
      </resource>
      <search>
         <mode value="match"/>
      </search>
   </entry>
   <entry>
      <fullUrl value="urn:uuid:a14f8330-c753-11ea-1021-020000000000"/>
      <resource>
         <Composition>
            <meta>
               <profile value="http://nictiz.nl/fhir/StructureDefinition/gp-EncounterReport"/>
            </meta>
            <text>
               <status value="generated"/>
               <div xmlns="http://www.w3.org/1999/xhtml">
                  <b>Diabetes mellitus</b>
                  <table>
                     <caption>Samengestelde informatie. Subject: Tester Anoniem. Status: definitief<span style="display: block;">Auteur: Ch.P.M. Verhoeff</span>
                     </caption>
                     <tbody>
                        <tr>
                           <th>Type</th>
                           <td>
                              <span title="Summarization of encounter note Narrative (67781-5 - LOINC)">Summarization of encounter note Narrative</span>
                           </td>
                        </tr>
                        <tr>
                           <th>Gemaakt</th>
                           <td>15:41:56, 19 november 2019</td>
                        </tr>
                        <tr>
                           <th>Contact</th>
                           <td>Contactmoment: 5dff5059c563fdb55023709f7b01dd62 consult 2019-11-19T15:41:56+01:00</td>
                        </tr>
                     </tbody>
                  </table>
               </div>
            </text>
            <status value="final"/>
            <type>
               <coding>
                  <system value="http://loinc.org"/>
                  <code value="67781-5"/>
                  <display value="Summarization of encounter note Narrative"/>
               </coding>
            </type>
            <subject>
               <reference value="urn:uuid:a14f8d50-c753-11ea-1021-020000000000"/>
               <display value="Tester Anoniem"/>
            </subject>
            <encounter>
               <reference value="urn:uuid:a14f6bc8-c753-11ea-1021-020000000000"/>
               <display value="Contactmoment: 5dff5059c563fdb55023709f7b01dd62 consult 2019-11-19T15:41:56+01:00"/>
            </encounter>
            <date value="2019-11-19T15:41:56+01:00"/>
            <author>
                  <reference value="urn:oid:2.16.840.1.113883.2.4.6.1.1006222"/>
               <display value="Ch.P.M. Verhoeff"/>
               </author>
            <title value="Diabetes mellitus"/>
            <section>
               <code>
                  <coding>
                     <system value="http://fhir.nl/fhir/NamingSystem/journaalregeltypen"/>
                     <code value="S"/>
                     <display value="Subjectief"/>
                  </coding>
               </code>
               <text>
                  <status value="generated"/>
                  <div xmlns="http://www.w3.org/1999/xhtml"> </div>
               </text>
               <entry>
                  <reference value="urn:uuid:a14f8d91-c753-11ea-1021-020000000000"/>
                  <display value="S: Subjectief - "/>
               </entry>
               <entry>
                  <identifier>
                     <system value="2.16.528.1.1007.3.3.00043987.418.8"/>
                     <value value="6779736e5c716ab6608325f3f90b5e13"/>
                  </identifier>
                  <display value="Episode: 6779736e5c716ab6608325f3f90b5e13 2.16.528.1.1007.3.3.00043987.418.8"/>
               </entry>
            </section>
            <section>
               <code>
                  <coding>
                     <system value="http://fhir.nl/fhir/NamingSystem/journaalregeltypen"/>
                     <code value="S"/>
                     <display value="Subjectief"/>
                  </coding>
               </code>
               <text>
                  <status value="generated"/>
                  <div xmlns="http://www.w3.org/1999/xhtml"> </div>
               </text>
               <entry>
                  <reference value="urn:uuid:a14f8d91-c753-11ea-1021-020000000000"/>
                  <display value="S: Subjectief - "/>
               </entry>
               <entry>
                  <identifier>
                     <system value="2.16.528.1.1007.3.3.00043987.418.8"/>
                     <value value="6779736e5c716ab6608325f3f90b5e13"/>
                  </identifier>
                  <display value="Episode: 6779736e5c716ab6608325f3f90b5e13 2.16.528.1.1007.3.3.00043987.418.8"/>
               </entry>
            </section>
            <section>
               <code>
                  <coding>
                     <system value="http://fhir.nl/fhir/NamingSystem/journaalregeltypen"/>
                     <code value="O"/>
                     <display value="Objectief"/>
                  </coding>
               </code>
               <text>
                  <status value="generated"/>
                  <div xmlns="http://www.w3.org/1999/xhtml"> </div>
               </text>
               <entry>
                  <reference value="urn:uuid:a14f8367-c753-11ea-1021-020000000000"/>
                  <display value="O: Objectief - "/>
               </entry>
               <entry>
                  <identifier>
                     <system value="2.16.528.1.1007.3.3.00043987.418.8"/>
                     <value value="6779736e5c716ab6608325f3f90b5e13"/>
                  </identifier>
                  <display value="Episode: 6779736e5c716ab6608325f3f90b5e13 2.16.528.1.1007.3.3.00043987.418.8"/>
               </entry>
            </section>
            <section>
               <code>
                  <coding>
                     <system value="http://fhir.nl/fhir/NamingSystem/journaalregeltypen"/>
                     <code value="P"/>
                     <display value="Plan"/>
                  </coding>
               </code>
               <text>
                  <status value="generated"/>
                  <div xmlns="http://www.w3.org/1999/xhtml"> </div>
               </text>
               <entry>
                  <reference value="urn:uuid:a14f830c-c753-11ea-1021-020000000000"/>
                  <display value="P: Plan - "/>
               </entry>
               <entry>
                  <identifier>
                     <system value="2.16.528.1.1007.3.3.00043987.418.8"/>
                     <value value="6779736e5c716ab6608325f3f90b5e13"/>
                  </identifier>
                  <display value="Episode: 6779736e5c716ab6608325f3f90b5e13 2.16.528.1.1007.3.3.00043987.418.8"/>
               </entry>
            </section>
            <section>
               <extension url="http://nictiz.nl/fhir/StructureDefinition/code-icpc-1-nl">
                  <valueCodeableConcept>
                     <coding>
                        <system value="http://hl7.org/fhir/sid/icpc-1-nl"/>
                        <code value="T90.02"/>
                        <display value="Diabetes mellitus"/>
                     </coding>
                  </valueCodeableConcept>
               </extension>
               <code>
                  <coding>
                     <system value="http://fhir.nl/fhir/NamingSystem/journaalregeltypen"/>
                     <code value="E"/>
                     <display value="Evaluatie"/>
                  </coding>
               </code>
               <text>
                  <status value="generated"/>
                  <div xmlns="http://www.w3.org/1999/xhtml">Diabetes mellitus</div>
               </text>
               <entry>
                  <reference value="urn:uuid:a14f8375-c753-11ea-1021-020000000000"/>
                  <display value="E: Evaluatie - Diabetes mellitus"/>
               </entry>
               <entry>
                  <identifier>
                     <system value="2.16.528.1.1007.3.3.00043987.418.8"/>
                     <value value="6779736e5c716ab6608325f3f90b5e13"/>
                  </identifier>
                  <display value="Episode: 6779736e5c716ab6608325f3f90b5e13 2.16.528.1.1007.3.3.00043987.418.8"/>
               </entry>
            </section>
         </Composition>
      </resource>
      <search>
         <mode value="match"/>
      </search>
   </entry>
   <entry>
      <fullUrl value="urn:uuid:a14f8391-c753-11ea-1021-020000000000"/>
      <resource>
         <Composition>
            <meta>
               <profile value="http://nictiz.nl/fhir/StructureDefinition/gp-EncounterReport"/>
            </meta>
            <text>
               <status value="generated"/>
               <div xmlns="http://www.w3.org/1999/xhtml">
                  <b>Diabetes mellitus</b>
                  <table>
                     <caption>Samengestelde informatie. Subject: Tester Anoniem. Status: definitief<span style="display: block;">Auteur: Ch.P.M. Verhoeff</span>
                     </caption>
                     <tbody>
                        <tr>
                           <th>Type</th>
                           <td>
                              <span title="Summarization of encounter note Narrative (67781-5 - LOINC)">Summarization of encounter note Narrative</span>
                           </td>
                        </tr>
                        <tr>
                           <th>Gemaakt</th>
                           <td>16:03:25, 18 februari 2020</td>
                        </tr>
                        <tr>
                           <th>Contact</th>
                           <td>Contactmoment: b7d32ae5d9f735c6a15841f6ec9d5f99 consult 2020-02-18T16:03:25+01:00</td>
                        </tr>
                     </tbody>
                  </table>
               </div>
            </text>
            <status value="final"/>
            <type>
               <coding>
                  <system value="http://loinc.org"/>
                  <code value="67781-5"/>
                  <display value="Summarization of encounter note Narrative"/>
               </coding>
            </type>
            <subject>
               <reference value="urn:uuid:a14f8d50-c753-11ea-1021-020000000000"/>
               <display value="Tester Anoniem"/>
            </subject>
            <encounter>
               <reference value="urn:uuid:a14f6bf8-c753-11ea-1021-020000000000"/>
               <display value="Contactmoment: b7d32ae5d9f735c6a15841f6ec9d5f99 consult 2020-02-18T16:03:25+01:00"/>
            </encounter>
            <date value="2020-02-18T16:03:25+01:00"/>
            <author>
                  <reference value="urn:oid:2.16.840.1.113883.2.4.6.1.1006222"/>
               <display value="Ch.P.M. Verhoeff"/>
               </author>
            <title value="Diabetes mellitus"/>
            <section>
               <code>
                  <coding>
                     <system value="http://fhir.nl/fhir/NamingSystem/journaalregeltypen"/>
                     <code value="S"/>
                     <display value="Subjectief"/>
                  </coding>
               </code>
               <text>
                  <status value="generated"/>
                  <div xmlns="http://www.w3.org/1999/xhtml"> </div>
               </text>
               <entry>
                  <reference value="urn:uuid:a14f8d91-c753-11ea-1021-020000000000"/>
                  <display value="S: Subjectief - "/>
               </entry>
               <entry>
                  <identifier>
                     <system value="2.16.528.1.1007.3.3.00043987.418.8"/>
                     <value value="6779736e5c716ab6608325f3f90b5e13"/>
                  </identifier>
                  <display value="Episode: 6779736e5c716ab6608325f3f90b5e13 2.16.528.1.1007.3.3.00043987.418.8"/>
               </entry>
            </section>
            <section>
               <code>
                  <coding>
                     <system value="http://fhir.nl/fhir/NamingSystem/journaalregeltypen"/>
                     <code value="S"/>
                     <display value="Subjectief"/>
                  </coding>
               </code>
               <text>
                  <status value="generated"/>
                  <div xmlns="http://www.w3.org/1999/xhtml"> </div>
               </text>
               <entry>
                  <reference value="urn:uuid:a14f8d91-c753-11ea-1021-020000000000"/>
                  <display value="S: Subjectief - "/>
               </entry>
               <entry>
                  <identifier>
                     <system value="2.16.528.1.1007.3.3.00043987.418.8"/>
                     <value value="6779736e5c716ab6608325f3f90b5e13"/>
                  </identifier>
                  <display value="Episode: 6779736e5c716ab6608325f3f90b5e13 2.16.528.1.1007.3.3.00043987.418.8"/>
               </entry>
            </section>
            <section>
               <code>
                  <coding>
                     <system value="http://fhir.nl/fhir/NamingSystem/journaalregeltypen"/>
                     <code value="O"/>
                     <display value="Objectief"/>
                  </coding>
               </code>
               <text>
                  <status value="generated"/>
                  <div xmlns="http://www.w3.org/1999/xhtml"> </div>
               </text>
               <entry>
                  <reference value="urn:uuid:a14f8367-c753-11ea-1021-020000000000"/>
                  <display value="O: Objectief - "/>
               </entry>
               <entry>
                  <identifier>
                     <system value="2.16.528.1.1007.3.3.00043987.418.8"/>
                     <value value="6779736e5c716ab6608325f3f90b5e13"/>
                  </identifier>
                  <display value="Episode: 6779736e5c716ab6608325f3f90b5e13 2.16.528.1.1007.3.3.00043987.418.8"/>
               </entry>
            </section>
            <section>
               <extension url="http://nictiz.nl/fhir/StructureDefinition/code-icpc-1-nl">
                  <valueCodeableConcept>
                     <coding>
                        <system value="http://hl7.org/fhir/sid/icpc-1-nl"/>
                        <code value="T90.02"/>
                        <display value="Diabetes mellitus"/>
                     </coding>
                  </valueCodeableConcept>
               </extension>
               <code>
                  <coding>
                     <system value="http://fhir.nl/fhir/NamingSystem/journaalregeltypen"/>
                     <code value="E"/>
                     <display value="Evaluatie"/>
                  </coding>
               </code>
               <text>
                  <status value="generated"/>
                  <div xmlns="http://www.w3.org/1999/xhtml"> </div>
               </text>
               <entry>
                  <reference value="urn:uuid:a14f83cf-c753-11ea-1021-020000000000"/>
                  <display value="E: Evaluatie - "/>
               </entry>
               <entry>
                  <identifier>
                     <system value="2.16.528.1.1007.3.3.00043987.418.8"/>
                     <value value="6779736e5c716ab6608325f3f90b5e13"/>
                  </identifier>
                  <display value="Episode: 6779736e5c716ab6608325f3f90b5e13 2.16.528.1.1007.3.3.00043987.418.8"/>
               </entry>
            </section>
            <section>
               <code>
                  <coding>
                     <system value="http://fhir.nl/fhir/NamingSystem/journaalregeltypen"/>
                     <code value="P"/>
                     <display value="Plan"/>
                  </coding>
               </code>
               <text>
                  <status value="generated"/>
                  <div xmlns="http://www.w3.org/1999/xhtml"> </div>
               </text>
               <entry>
                  <reference value="urn:uuid:a14f830c-c753-11ea-1021-020000000000"/>
                  <display value="P: Plan - "/>
               </entry>
               <entry>
                  <identifier>
                     <system value="2.16.528.1.1007.3.3.00043987.418.8"/>
                     <value value="6779736e5c716ab6608325f3f90b5e13"/>
                  </identifier>
                  <display value="Episode: 6779736e5c716ab6608325f3f90b5e13 2.16.528.1.1007.3.3.00043987.418.8"/>
               </entry>
            </section>
         </Composition>
      </resource>
      <search>
         <mode value="match"/>
      </search>
   </entry>
   <entry>
      <fullUrl value="urn:uuid:a14f83f2-c753-11ea-1021-020000000000"/>
      <resource>
         <Composition>
            <meta>
               <profile value="http://nictiz.nl/fhir/StructureDefinition/gp-EncounterReport"/>
            </meta>
            <text>
               <status value="generated"/>
               <div xmlns="http://www.w3.org/1999/xhtml">
                  <b>Diabetes mellitus</b>
                  <table>
                     <caption>Samengestelde informatie. Subject: Tester Anoniem. Status: definitief<span style="display: block;">Auteur: Ch.P.M. Verhoeff</span>
                     </caption>
                     <tbody>
                        <tr>
                           <th>Type</th>
                           <td>
                              <span title="Summarization of encounter note Narrative (67781-5 - LOINC)">Summarization of encounter note Narrative</span>
                           </td>
                        </tr>
                        <tr>
                           <th>Gemaakt</th>
                           <td>15:45:51, 23 maart 2020</td>
                        </tr>
                        <tr>
                           <th>Contact</th>
                           <td>Contactmoment: 8630606bd1f8c4b329ef64fba042a77a consult 2020-03-23T15:45:51+01:00</td>
                        </tr>
                     </tbody>
                  </table>
               </div>
            </text>
            <status value="final"/>
            <type>
               <coding>
                  <system value="http://loinc.org"/>
                  <code value="67781-5"/>
                  <display value="Summarization of encounter note Narrative"/>
               </coding>
            </type>
            <subject>
               <reference value="urn:uuid:a14f8d50-c753-11ea-1021-020000000000"/>
               <display value="Tester Anoniem"/>
            </subject>
            <encounter>
               <reference value="urn:uuid:a14f6c28-c753-11ea-1021-020000000000"/>
               <display value="Contactmoment: 8630606bd1f8c4b329ef64fba042a77a consult 2020-03-23T15:45:51+01:00"/>
            </encounter>
            <date value="2020-03-23T15:45:51+01:00"/>
            <author>
                  <reference value="urn:oid:2.16.840.1.113883.2.4.6.1.1006222"/>
               <display value="Ch.P.M. Verhoeff"/>
               </author>
            <title value="Diabetes mellitus"/>
            <section>
               <code>
                  <coding>
                     <system value="http://fhir.nl/fhir/NamingSystem/journaalregeltypen"/>
                     <code value="S"/>
                     <display value="Subjectief"/>
                  </coding>
               </code>
               <text>
                  <status value="generated"/>
                  <div xmlns="http://www.w3.org/1999/xhtml"> </div>
               </text>
               <entry>
                  <reference value="urn:uuid:a14f8d91-c753-11ea-1021-020000000000"/>
                  <display value="S: Subjectief - "/>
               </entry>
               <entry>
                  <identifier>
                     <system value="2.16.528.1.1007.3.3.00043987.418.8"/>
                     <value value="6779736e5c716ab6608325f3f90b5e13"/>
                  </identifier>
                  <display value="Episode: 6779736e5c716ab6608325f3f90b5e13 2.16.528.1.1007.3.3.00043987.418.8"/>
               </entry>
            </section>
            <section>
               <extension url="http://nictiz.nl/fhir/StructureDefinition/code-icpc-1-nl">
                  <valueCodeableConcept>
                     <coding>
                        <system value="http://hl7.org/fhir/sid/icpc-1-nl"/>
                        <code value="T90.02"/>
                        <display value="Diabetes mellitus"/>
                     </coding>
                  </valueCodeableConcept>
               </extension>
               <code>
                  <coding>
                     <system value="http://fhir.nl/fhir/NamingSystem/journaalregeltypen"/>
                     <code value="E"/>
                     <display value="Evaluatie"/>
                  </coding>
               </code>
               <text>
                  <status value="generated"/>
                  <div xmlns="http://www.w3.org/1999/xhtml">Diabetes mellitus</div>
               </text>
               <entry>
                  <reference value="urn:uuid:a14f8421-c753-11ea-1021-020000000000"/>
                  <display value="E: Evaluatie - Diabetes mellitus"/>
               </entry>
               <entry>
                  <identifier>
                     <system value="2.16.528.1.1007.3.3.00043987.418.8"/>
                     <value value="6779736e5c716ab6608325f3f90b5e13"/>
                  </identifier>
                  <display value="Episode: 6779736e5c716ab6608325f3f90b5e13 2.16.528.1.1007.3.3.00043987.418.8"/>
               </entry>
            </section>
         </Composition>
      </resource>
      <search>
         <mode value="match"/>
      </search>
   </entry>
   <entry>
      <fullUrl value="urn:uuid:a14f843e-c753-11ea-1021-020000000000"/>
      <resource>
         <Composition>
            <meta>
               <profile value="http://nictiz.nl/fhir/StructureDefinition/gp-EncounterReport"/>
            </meta>
            <text>
               <status value="generated"/>
               <div xmlns="http://www.w3.org/1999/xhtml">
                  <b>Diabetes mellitus</b>
                  <table>
                     <caption>Samengestelde informatie. Subject: Tester Anoniem. Status: definitief<span style="display: block;">Auteur: Ch.P.M. Verhoeff</span>
                     </caption>
                     <tbody>
                        <tr>
                           <th>Type</th>
                           <td>
                              <span title="Summarization of encounter note Narrative (67781-5 - LOINC)">Summarization of encounter note Narrative</span>
                           </td>
                        </tr>
                        <tr>
                           <th>Gemaakt</th>
                           <td>14:02:27, 29 april 2020</td>
                        </tr>
                        <tr>
                           <th>Contact</th>
                           <td>Contactmoment: 0463b8905f57ee3d787b3f1bc26d5d6f consult 2020-04-29T14:02:27+02:00</td>
                        </tr>
                     </tbody>
                  </table>
               </div>
            </text>
            <status value="final"/>
            <type>
               <coding>
                  <system value="http://loinc.org"/>
                  <code value="67781-5"/>
                  <display value="Summarization of encounter note Narrative"/>
               </coding>
            </type>
            <subject>
               <reference value="urn:uuid:a14f8d50-c753-11ea-1021-020000000000"/>
               <display value="Tester Anoniem"/>
            </subject>
            <encounter>
               <reference value="urn:uuid:a14f6c59-c753-11ea-1021-020000000000"/>
               <display value="Contactmoment: 0463b8905f57ee3d787b3f1bc26d5d6f consult 2020-04-29T14:02:27+02:00"/>
            </encounter>
            <date value="2020-04-29T14:02:27+02:00"/>
            <author>
                  <reference value="urn:oid:2.16.840.1.113883.2.4.6.1.1006222"/>
               <display value="Ch.P.M. Verhoeff"/>
               </author>
            <title value="Diabetes mellitus"/>
            <section>
               <code>
                  <coding>
                     <system value="http://fhir.nl/fhir/NamingSystem/journaalregeltypen"/>
                     <code value="S"/>
                     <display value="Subjectief"/>
                  </coding>
               </code>
               <text>
                  <status value="generated"/>
                  <div xmlns="http://www.w3.org/1999/xhtml"> </div>
               </text>
               <entry>
                  <reference value="urn:uuid:a14f8d91-c753-11ea-1021-020000000000"/>
                  <display value="S: Subjectief - "/>
               </entry>
               <entry>
                  <identifier>
                     <system value="2.16.528.1.1007.3.3.00043987.418.8"/>
                     <value value="6779736e5c716ab6608325f3f90b5e13"/>
                  </identifier>
                  <display value="Episode: 6779736e5c716ab6608325f3f90b5e13 2.16.528.1.1007.3.3.00043987.418.8"/>
               </entry>
            </section>
            <section>
               <code>
                  <coding>
                     <system value="http://fhir.nl/fhir/NamingSystem/journaalregeltypen"/>
                     <code value="P"/>
                     <display value="Plan"/>
                  </coding>
               </code>
               <text>
                  <status value="generated"/>
                  <div xmlns="http://www.w3.org/1999/xhtml"> </div>
               </text>
               <entry>
                  <reference value="urn:uuid:a14f830c-c753-11ea-1021-020000000000"/>
                  <display value="P: Plan - "/>
               </entry>
               <entry>
                  <identifier>
                     <system value="2.16.528.1.1007.3.3.00043987.418.8"/>
                     <value value="6779736e5c716ab6608325f3f90b5e13"/>
                  </identifier>
                  <display value="Episode: 6779736e5c716ab6608325f3f90b5e13 2.16.528.1.1007.3.3.00043987.418.8"/>
               </entry>
            </section>
            <section>
               <extension url="http://nictiz.nl/fhir/StructureDefinition/code-icpc-1-nl">
                  <valueCodeableConcept>
                     <coding>
                        <system value="http://hl7.org/fhir/sid/icpc-1-nl"/>
                        <code value="T90.02"/>
                        <display value="Diabetes mellitus"/>
                     </coding>
                  </valueCodeableConcept>
               </extension>
               <code>
                  <coding>
                     <system value="http://fhir.nl/fhir/NamingSystem/journaalregeltypen"/>
                     <code value="E"/>
                     <display value="Evaluatie"/>
                  </coding>
               </code>
               <text>
                  <status value="generated"/>
                  <div xmlns="http://www.w3.org/1999/xhtml">Diabetes mellitus</div>
               </text>
               <entry>
                  <reference value="urn:uuid:a14f8475-c753-11ea-1021-020000000000"/>
                  <display value="E: Evaluatie - Diabetes mellitus"/>
               </entry>
               <entry>
                  <identifier>
                     <system value="2.16.528.1.1007.3.3.00043987.418.8"/>
                     <value value="6779736e5c716ab6608325f3f90b5e13"/>
                  </identifier>
                  <display value="Episode: 6779736e5c716ab6608325f3f90b5e13 2.16.528.1.1007.3.3.00043987.418.8"/>
               </entry>
            </section>
         </Composition>
      </resource>
      <search>
         <mode value="match"/>
      </search>
   </entry>
   <entry>
      <fullUrl value="urn:uuid:a14f8491-c753-11ea-1021-020000000000"/>
      <resource>
         <Composition>
            <meta>
               <profile value="http://nictiz.nl/fhir/StructureDefinition/gp-EncounterReport"/>
            </meta>
            <text>
               <status value="generated"/>
               <div xmlns="http://www.w3.org/1999/xhtml">
                  <b>Diabetes mellitus</b>
                  <table>
                     <caption>Samengestelde informatie. Subject: Tester Anoniem. Status: definitief<span style="display: block;">Auteur: Ch.P.M. Verhoeff</span>
                     </caption>
                     <tbody>
                        <tr>
                           <th>Type</th>
                           <td>
                              <span title="Summarization of encounter note Narrative (67781-5 - LOINC)">Summarization of encounter note Narrative</span>
                           </td>
                        </tr>
                        <tr>
                           <th>Gemaakt</th>
                           <td>14:21:32, 12 mei 2020</td>
                        </tr>
                        <tr>
                           <th>Contact</th>
                           <td>Contactmoment: fed6fea050fce8ec34aaa4c30d64bf1f consult 2020-05-12T14:21:32+02:00</td>
                        </tr>
                     </tbody>
                  </table>
               </div>
            </text>
            <status value="final"/>
            <type>
               <coding>
                  <system value="http://loinc.org"/>
                  <code value="67781-5"/>
                  <display value="Summarization of encounter note Narrative"/>
               </coding>
            </type>
            <subject>
               <reference value="urn:uuid:a14f8d50-c753-11ea-1021-020000000000"/>
               <display value="Tester Anoniem"/>
            </subject>
            <encounter>
               <reference value="urn:uuid:a14f6c89-c753-11ea-1021-020000000000"/>
               <display value="Contactmoment: fed6fea050fce8ec34aaa4c30d64bf1f consult 2020-05-12T14:21:32+02:00"/>
            </encounter>
            <date value="2020-05-12T14:21:32+02:00"/>
            <author>
                  <reference value="urn:oid:2.16.840.1.113883.2.4.6.1.1006222"/>
               <display value="Ch.P.M. Verhoeff"/>
               </author>
            <title value="Diabetes mellitus"/>
            <section>
               <code>
                  <coding>
                     <system value="http://fhir.nl/fhir/NamingSystem/journaalregeltypen"/>
                     <code value="S"/>
                     <display value="Subjectief"/>
                  </coding>
               </code>
               <text>
                  <status value="generated"/>
                  <div xmlns="http://www.w3.org/1999/xhtml"> </div>
               </text>
               <entry>
                  <reference value="urn:uuid:a14f8d91-c753-11ea-1021-020000000000"/>
                  <display value="S: Subjectief - "/>
               </entry>
               <entry>
                  <identifier>
                     <system value="2.16.528.1.1007.3.3.00043987.418.8"/>
                     <value value="6779736e5c716ab6608325f3f90b5e13"/>
                  </identifier>
                  <display value="Episode: 6779736e5c716ab6608325f3f90b5e13 2.16.528.1.1007.3.3.00043987.418.8"/>
               </entry>
            </section>
            <section>
               <code>
                  <coding>
                     <system value="http://fhir.nl/fhir/NamingSystem/journaalregeltypen"/>
                     <code value="P"/>
                     <display value="Plan"/>
                  </coding>
               </code>
               <text>
                  <status value="generated"/>
                  <div xmlns="http://www.w3.org/1999/xhtml"> </div>
               </text>
               <entry>
                  <reference value="urn:uuid:a14f830c-c753-11ea-1021-020000000000"/>
                  <display value="P: Plan - "/>
               </entry>
               <entry>
                  <identifier>
                     <system value="2.16.528.1.1007.3.3.00043987.418.8"/>
                     <value value="6779736e5c716ab6608325f3f90b5e13"/>
                  </identifier>
                  <display value="Episode: 6779736e5c716ab6608325f3f90b5e13 2.16.528.1.1007.3.3.00043987.418.8"/>
               </entry>
            </section>
            <section>
               <extension url="http://nictiz.nl/fhir/StructureDefinition/code-icpc-1-nl">
                  <valueCodeableConcept>
                     <coding>
                        <system value="http://hl7.org/fhir/sid/icpc-1-nl"/>
                        <code value="T90.02"/>
                        <display value="Diabetes mellitus"/>
                     </coding>
                  </valueCodeableConcept>
               </extension>
               <code>
                  <coding>
                     <system value="http://fhir.nl/fhir/NamingSystem/journaalregeltypen"/>
                     <code value="E"/>
                     <display value="Evaluatie"/>
                  </coding>
               </code>
               <text>
                  <status value="generated"/>
                  <div xmlns="http://www.w3.org/1999/xhtml">Diabetes mellitus</div>
               </text>
               <entry>
                  <reference value="urn:uuid:a14f84c8-c753-11ea-1021-020000000000"/>
                  <display value="E: Evaluatie - Diabetes mellitus"/>
               </entry>
               <entry>
                  <identifier>
                     <system value="2.16.528.1.1007.3.3.00043987.418.8"/>
                     <value value="6779736e5c716ab6608325f3f90b5e13"/>
                  </identifier>
                  <display value="Episode: 6779736e5c716ab6608325f3f90b5e13 2.16.528.1.1007.3.3.00043987.418.8"/>
               </entry>
            </section>
         </Composition>
      </resource>
      <search>
         <mode value="match"/>
      </search>
   </entry>
   <entry>
      <fullUrl value="urn:uuid:a14f84e4-c753-11ea-1021-020000000000"/>
      <resource>
         <Composition>
            <meta>
               <profile value="http://nictiz.nl/fhir/StructureDefinition/gp-EncounterReport"/>
            </meta>
            <text>
               <status value="generated"/>
               <div xmlns="http://www.w3.org/1999/xhtml">
                  <b>Diabetes mellitus</b>
                  <table>
                     <caption>Samengestelde informatie. Subject: Tester Anoniem. Status: definitief<span style="display: block;">Auteur: Ch.P.M. Verhoeff</span>
                     </caption>
                     <tbody>
                        <tr>
                           <th>Type</th>
                           <td>
                              <span title="Summarization of encounter note Narrative (67781-5 - LOINC)">Summarization of encounter note Narrative</span>
                           </td>
                        </tr>
                        <tr>
                           <th>Gemaakt</th>
                           <td>16:04:37, 19 mei 2020</td>
                        </tr>
                        <tr>
                           <th>Contact</th>
                           <td>Contactmoment: de83cc0d983587d1fd16c4a18731b0bf consult 2020-05-19T16:04:37+02:00</td>
                        </tr>
                     </tbody>
                  </table>
               </div>
            </text>
            <status value="final"/>
            <type>
               <coding>
                  <system value="http://loinc.org"/>
                  <code value="67781-5"/>
                  <display value="Summarization of encounter note Narrative"/>
               </coding>
            </type>
            <subject>
               <reference value="urn:uuid:a14f8d50-c753-11ea-1021-020000000000"/>
               <display value="Tester Anoniem"/>
            </subject>
            <encounter>
               <reference value="urn:uuid:a14f6cb9-c753-11ea-1021-020000000000"/>
               <display value="Contactmoment: de83cc0d983587d1fd16c4a18731b0bf consult 2020-05-19T16:04:37+02:00"/>
            </encounter>
            <date value="2020-05-19T16:04:37+02:00"/>
            <author>
                  <reference value="urn:oid:2.16.840.1.113883.2.4.6.1.1006222"/>
               <display value="Ch.P.M. Verhoeff"/>
               </author>
            <title value="Diabetes mellitus"/>
            <section>
               <code>
                  <coding>
                     <system value="http://fhir.nl/fhir/NamingSystem/journaalregeltypen"/>
                     <code value="S"/>
                     <display value="Subjectief"/>
                  </coding>
               </code>
               <text>
                  <status value="generated"/>
                  <div xmlns="http://www.w3.org/1999/xhtml"> </div>
               </text>
               <entry>
                  <reference value="urn:uuid:a14f8d91-c753-11ea-1021-020000000000"/>
                  <display value="S: Subjectief - "/>
               </entry>
               <entry>
                  <identifier>
                     <system value="2.16.528.1.1007.3.3.00043987.418.8"/>
                     <value value="6779736e5c716ab6608325f3f90b5e13"/>
                  </identifier>
                  <display value="Episode: 6779736e5c716ab6608325f3f90b5e13 2.16.528.1.1007.3.3.00043987.418.8"/>
               </entry>
            </section>
            <section>
               <code>
                  <coding>
                     <system value="http://fhir.nl/fhir/NamingSystem/journaalregeltypen"/>
                     <code value="S"/>
                     <display value="Subjectief"/>
                  </coding>
               </code>
               <text>
                  <status value="generated"/>
                  <div xmlns="http://www.w3.org/1999/xhtml"> </div>
               </text>
               <entry>
                  <reference value="urn:uuid:a14f8d91-c753-11ea-1021-020000000000"/>
                  <display value="S: Subjectief - "/>
               </entry>
               <entry>
                  <identifier>
                     <system value="2.16.528.1.1007.3.3.00043987.418.8"/>
                     <value value="6779736e5c716ab6608325f3f90b5e13"/>
                  </identifier>
                  <display value="Episode: 6779736e5c716ab6608325f3f90b5e13 2.16.528.1.1007.3.3.00043987.418.8"/>
               </entry>
            </section>
            <section>
               <code>
                  <coding>
                     <system value="http://fhir.nl/fhir/NamingSystem/journaalregeltypen"/>
                     <code value="O"/>
                     <display value="Objectief"/>
                  </coding>
               </code>
               <text>
                  <status value="generated"/>
                  <div xmlns="http://www.w3.org/1999/xhtml"> </div>
               </text>
               <entry>
                  <reference value="urn:uuid:a14f8367-c753-11ea-1021-020000000000"/>
                  <display value="O: Objectief - "/>
               </entry>
               <entry>
                  <identifier>
                     <system value="2.16.528.1.1007.3.3.00043987.418.8"/>
                     <value value="6779736e5c716ab6608325f3f90b5e13"/>
                  </identifier>
                  <display value="Episode: 6779736e5c716ab6608325f3f90b5e13 2.16.528.1.1007.3.3.00043987.418.8"/>
               </entry>
            </section>
            <section>
               <code>
                  <coding>
                     <system value="http://fhir.nl/fhir/NamingSystem/journaalregeltypen"/>
                     <code value="P"/>
                     <display value="Plan"/>
                  </coding>
               </code>
               <text>
                  <status value="generated"/>
                  <div xmlns="http://www.w3.org/1999/xhtml"> </div>
               </text>
               <entry>
                  <reference value="urn:uuid:a14f830c-c753-11ea-1021-020000000000"/>
                  <display value="P: Plan - "/>
               </entry>
               <entry>
                  <identifier>
                     <system value="2.16.528.1.1007.3.3.00043987.418.8"/>
                     <value value="6779736e5c716ab6608325f3f90b5e13"/>
                  </identifier>
                  <display value="Episode: 6779736e5c716ab6608325f3f90b5e13 2.16.528.1.1007.3.3.00043987.418.8"/>
               </entry>
            </section>
            <section>
               <extension url="http://nictiz.nl/fhir/StructureDefinition/code-icpc-1-nl">
                  <valueCodeableConcept>
                     <coding>
                        <system value="http://hl7.org/fhir/sid/icpc-1-nl"/>
                        <code value="T90.02"/>
                        <display value="Diabetes mellitus"/>
                     </coding>
                  </valueCodeableConcept>
               </extension>
               <code>
                  <coding>
                     <system value="http://fhir.nl/fhir/NamingSystem/journaalregeltypen"/>
                     <code value="E"/>
                     <display value="Evaluatie"/>
                  </coding>
               </code>
               <text>
                  <status value="generated"/>
                  <div xmlns="http://www.w3.org/1999/xhtml">Diabetes mellitus</div>
               </text>
               <entry>
                  <reference value="urn:uuid:a14f8529-c753-11ea-1021-020000000000"/>
                  <display value="E: Evaluatie - Diabetes mellitus"/>
               </entry>
               <entry>
                  <identifier>
                     <system value="2.16.528.1.1007.3.3.00043987.418.8"/>
                     <value value="6779736e5c716ab6608325f3f90b5e13"/>
                  </identifier>
                  <display value="Episode: 6779736e5c716ab6608325f3f90b5e13 2.16.528.1.1007.3.3.00043987.418.8"/>
               </entry>
            </section>
         </Composition>
      </resource>
      <search>
         <mode value="match"/>
      </search>
   </entry>
   <entry>
      <fullUrl value="urn:uuid:a14f8545-c753-11ea-1021-020000000000"/>
      <resource>
         <Composition>
            <meta>
               <profile value="http://nictiz.nl/fhir/StructureDefinition/gp-EncounterReport"/>
            </meta>
            <text>
               <status value="generated"/>
               <div xmlns="http://www.w3.org/1999/xhtml">
                  <b>Diabetes mellitus</b>
                  <table>
                     <caption>Samengestelde informatie. Subject: Tester Anoniem. Status: definitief<span style="display: block;">Auteur: Ch.P.M. Verhoeff</span>
                     </caption>
                     <tbody>
                        <tr>
                           <th>Type</th>
                           <td>
                              <span title="Summarization of encounter note Narrative (67781-5 - LOINC)">Summarization of encounter note Narrative</span>
                           </td>
                        </tr>
                        <tr>
                           <th>Gemaakt</th>
                           <td>15:29:25, 26 mei 2020</td>
                        </tr>
                        <tr>
                           <th>Contact</th>
                           <td>Contactmoment: 24cd25b11aabdcdd3cfa7a63505feb21 consult 2020-05-26T15:29:25+02:00</td>
                        </tr>
                     </tbody>
                  </table>
               </div>
            </text>
            <status value="final"/>
            <type>
               <coding>
                  <system value="http://loinc.org"/>
                  <code value="67781-5"/>
                  <display value="Summarization of encounter note Narrative"/>
               </coding>
            </type>
            <subject>
               <reference value="urn:uuid:a14f8d50-c753-11ea-1021-020000000000"/>
               <display value="Tester Anoniem"/>
            </subject>
            <encounter>
               <reference value="urn:uuid:a14f6ce9-c753-11ea-1021-020000000000"/>
               <display value="Contactmoment: 24cd25b11aabdcdd3cfa7a63505feb21 consult 2020-05-26T15:29:25+02:00"/>
            </encounter>
            <date value="2020-05-26T15:29:25+02:00"/>
            <author>
                  <reference value="urn:oid:2.16.840.1.113883.2.4.6.1.1006222"/>
               <display value="Ch.P.M. Verhoeff"/>
               </author>
            <title value="Diabetes mellitus"/>
            <section>
               <code>
                  <coding>
                     <system value="http://fhir.nl/fhir/NamingSystem/journaalregeltypen"/>
                     <code value="S"/>
                     <display value="Subjectief"/>
                  </coding>
               </code>
               <text>
                  <status value="generated"/>
                  <div xmlns="http://www.w3.org/1999/xhtml"> </div>
               </text>
               <entry>
                  <reference value="urn:uuid:a14f8d91-c753-11ea-1021-020000000000"/>
                  <display value="S: Subjectief - "/>
               </entry>
               <entry>
                  <identifier>
                     <system value="2.16.528.1.1007.3.3.00043987.418.8"/>
                     <value value="6779736e5c716ab6608325f3f90b5e13"/>
                  </identifier>
                  <display value="Episode: 6779736e5c716ab6608325f3f90b5e13 2.16.528.1.1007.3.3.00043987.418.8"/>
               </entry>
            </section>
            <section>
               <code>
                  <coding>
                     <system value="http://fhir.nl/fhir/NamingSystem/journaalregeltypen"/>
                     <code value="P"/>
                     <display value="Plan"/>
                  </coding>
               </code>
               <text>
                  <status value="generated"/>
                  <div xmlns="http://www.w3.org/1999/xhtml"> </div>
               </text>
               <entry>
                  <reference value="urn:uuid:a14f830c-c753-11ea-1021-020000000000"/>
                  <display value="P: Plan - "/>
               </entry>
               <entry>
                  <identifier>
                     <system value="2.16.528.1.1007.3.3.00043987.418.8"/>
                     <value value="6779736e5c716ab6608325f3f90b5e13"/>
                  </identifier>
                  <display value="Episode: 6779736e5c716ab6608325f3f90b5e13 2.16.528.1.1007.3.3.00043987.418.8"/>
               </entry>
            </section>
            <section>
               <extension url="http://nictiz.nl/fhir/StructureDefinition/code-icpc-1-nl">
                  <valueCodeableConcept>
                     <coding>
                        <system value="http://hl7.org/fhir/sid/icpc-1-nl"/>
                        <code value="T90.02"/>
                        <display value="Diabetes mellitus"/>
                     </coding>
                  </valueCodeableConcept>
               </extension>
               <code>
                  <coding>
                     <system value="http://fhir.nl/fhir/NamingSystem/journaalregeltypen"/>
                     <code value="E"/>
                     <display value="Evaluatie"/>
                  </coding>
               </code>
               <text>
                  <status value="generated"/>
                  <div xmlns="http://www.w3.org/1999/xhtml">Diabetes mellitus</div>
               </text>
               <entry>
                  <reference value="urn:uuid:a14f857c-c753-11ea-1021-020000000000"/>
                  <display value="E: Evaluatie - Diabetes mellitus"/>
               </entry>
               <entry>
                  <identifier>
                     <system value="2.16.528.1.1007.3.3.00043987.418.8"/>
                     <value value="6779736e5c716ab6608325f3f90b5e13"/>
                  </identifier>
                  <display value="Episode: 6779736e5c716ab6608325f3f90b5e13 2.16.528.1.1007.3.3.00043987.418.8"/>
               </entry>
            </section>
         </Composition>
      </resource>
      <search>
         <mode value="match"/>
      </search>
   </entry>
   <entry>
      <fullUrl value="urn:uuid:a14f8598-c753-11ea-1021-020000000000"/>
      <resource>
         <Composition>
            <meta>
               <profile value="http://nictiz.nl/fhir/StructureDefinition/gp-EncounterReport"/>
            </meta>
            <text>
               <status value="generated"/>
               <div xmlns="http://www.w3.org/1999/xhtml">
                  <b>Geheugen; achteruitgang</b>
                  <table>
                     <caption>Samengestelde informatie. Subject: Tester Anoniem. Status: definitief<span style="display: block;">Auteur: Ch.P.M. Verhoeff</span>
                     </caption>
                     <tbody>
                        <tr>
                           <th>Type</th>
                           <td>
                              <span title="Summarization of encounter note Narrative (67781-5 - LOINC)">Summarization of encounter note Narrative</span>
                           </td>
                        </tr>
                        <tr>
                           <th>Gemaakt</th>
                           <td>14:02:27, 29 april 2020</td>
                        </tr>
                        <tr>
                           <th>Contact</th>
                           <td>Contactmoment: 0463b8905f57ee3d787b3f1bc26d5d6f consult 2020-04-29T14:02:27+02:00</td>
                        </tr>
                     </tbody>
                  </table>
               </div>
            </text>
            <status value="final"/>
            <type>
               <coding>
                  <system value="http://loinc.org"/>
                  <code value="67781-5"/>
                  <display value="Summarization of encounter note Narrative"/>
               </coding>
            </type>
            <subject>
               <reference value="urn:uuid:a14f8d50-c753-11ea-1021-020000000000"/>
               <display value="Tester Anoniem"/>
            </subject>
            <encounter>
               <reference value="urn:uuid:a14f6c59-c753-11ea-1021-020000000000"/>
               <display value="Contactmoment: 0463b8905f57ee3d787b3f1bc26d5d6f consult 2020-04-29T14:02:27+02:00"/>
            </encounter>
            <date value="2020-04-29T14:02:27+02:00"/>
            <author>
                  <reference value="urn:oid:2.16.840.1.113883.2.4.6.1.1006222"/>
               <display value="Ch.P.M. Verhoeff"/>
               </author>
            <title value="Geheugen; achteruitgang"/>
            <section>
               <code>
                  <coding>
                     <system value="http://fhir.nl/fhir/NamingSystem/journaalregeltypen"/>
                     <code value="S"/>
                     <display value="Subjectief"/>
                  </coding>
               </code>
               <text>
                  <status value="generated"/>
                  <div xmlns="http://www.w3.org/1999/xhtml"> </div>
               </text>
               <entry>
                  <reference value="urn:uuid:a14f8d91-c753-11ea-1021-020000000000"/>
                  <display value="S: Subjectief - "/>
               </entry>
               <entry>
                  <identifier>
                     <system value="2.16.528.1.1007.3.3.00043987.418.8"/>
                     <value value="7b48199d9a326da51f74569242d6b718"/>
                  </identifier>
                  <display value="Episode: 7b48199d9a326da51f74569242d6b718 2.16.528.1.1007.3.3.00043987.418.8"/>
               </entry>
            </section>
            <section>
               <extension url="http://nictiz.nl/fhir/StructureDefinition/code-icpc-1-nl">
                  <valueCodeableConcept>
                     <coding>
                        <system value="http://hl7.org/fhir/sid/icpc-1-nl"/>
                        <code value="P20"/>
                        <display value="Geheugen; achteruitgang"/>
                     </coding>
                  </valueCodeableConcept>
               </extension>
               <code>
                  <coding>
                     <system value="http://fhir.nl/fhir/NamingSystem/journaalregeltypen"/>
                     <code value="E"/>
                     <display value="Evaluatie"/>
                  </coding>
               </code>
               <text>
                  <status value="generated"/>
                  <div xmlns="http://www.w3.org/1999/xhtml">Geheugen; achteruitgang</div>
               </text>
               <entry>
                  <reference value="urn:uuid:a14f85c7-c753-11ea-1021-020000000000"/>
                  <display value="E: Evaluatie - Geheugen; achteruitgang"/>
               </entry>
               <entry>
                  <identifier>
                     <system value="2.16.528.1.1007.3.3.00043987.418.8"/>
                     <value value="7b48199d9a326da51f74569242d6b718"/>
                  </identifier>
                  <display value="Episode: 7b48199d9a326da51f74569242d6b718 2.16.528.1.1007.3.3.00043987.418.8"/>
               </entry>
            </section>
         </Composition>
      </resource>
      <search>
         <mode value="match"/>
      </search>
   </entry>
   <entry>
      <fullUrl value="urn:uuid:a14f85e3-c753-11ea-1021-020000000000"/>
      <resource>
         <Composition>
            <meta>
               <profile value="http://nictiz.nl/fhir/StructureDefinition/gp-EncounterReport"/>
            </meta>
            <text>
               <status value="generated"/>
               <div xmlns="http://www.w3.org/1999/xhtml">
                  <b>Essentiële (primaire) hypertensie</b>
                  <table>
                     <caption>Samengestelde informatie. Subject: Tester Anoniem. Status: definitief<span style="display: block;">Auteur: Ch.P.M. Verhoeff</span>
                     </caption>
                     <tbody>
                        <tr>
                           <th>Type</th>
                           <td>
                              <span title="Summarization of encounter note Narrative (67781-5 - LOINC)">Summarization of encounter note Narrative</span>
                           </td>
                        </tr>
                        <tr>
                           <th>Gemaakt</th>
                           <td>14:02:27, 29 april 2020</td>
                        </tr>
                        <tr>
                           <th>Contact</th>
                           <td>Contactmoment: 0463b8905f57ee3d787b3f1bc26d5d6f consult 2020-04-29T14:02:27+02:00</td>
                        </tr>
                     </tbody>
                  </table>
               </div>
            </text>
            <status value="final"/>
            <type>
               <coding>
                  <system value="http://loinc.org"/>
                  <code value="67781-5"/>
                  <display value="Summarization of encounter note Narrative"/>
               </coding>
            </type>
            <subject>
               <reference value="urn:uuid:a14f8d50-c753-11ea-1021-020000000000"/>
               <display value="Tester Anoniem"/>
            </subject>
            <encounter>
               <reference value="urn:uuid:a14f6c59-c753-11ea-1021-020000000000"/>
               <display value="Contactmoment: 0463b8905f57ee3d787b3f1bc26d5d6f consult 2020-04-29T14:02:27+02:00"/>
            </encounter>
            <date value="2020-04-29T14:02:27+02:00"/>
            <author>
                  <reference value="urn:oid:2.16.840.1.113883.2.4.6.1.1006222"/>
               <display value="Ch.P.M. Verhoeff"/>
               </author>
            <title value="Essentiële (primaire) hypertensie"/>
            <section>
               <extension url="http://nictiz.nl/fhir/StructureDefinition/code-icpc-1-nl">
                  <valueCodeableConcept>
                     <coding>
                        <system value="http://hl7.org/fhir/sid/icpc-1-nl"/>
                        <code value="K86"/>
                        <display value="Essentiële (primaire) hypertensie"/>
                     </coding>
                  </valueCodeableConcept>
               </extension>
               <code>
                  <coding>
                     <system value="http://fhir.nl/fhir/NamingSystem/journaalregeltypen"/>
                     <code value="E"/>
                     <display value="Evaluatie"/>
                  </coding>
               </code>
               <text>
                  <status value="generated"/>
                  <div xmlns="http://www.w3.org/1999/xhtml">Essentiële (primaire) hypertensie</div>
               </text>
               <entry>
                  <reference value="urn:uuid:a14f860b-c753-11ea-1021-020000000000"/>
                  <display value="E: Evaluatie - Essentiële (primaire) hypertensie"/>
               </entry>
               <entry>
                  <identifier>
                     <system value="2.16.528.1.1007.3.3.00043987.418.8"/>
                     <value value="9a05e3f543c4dbd25e45c0887a8c3f72"/>
                  </identifier>
                  <display value="Episode: 9a05e3f543c4dbd25e45c0887a8c3f72 2.16.528.1.1007.3.3.00043987.418.8"/>
               </entry>
            </section>
         </Composition>
      </resource>
      <search>
         <mode value="match"/>
      </search>
   </entry>
   <entry>
      <fullUrl value="urn:uuid:a14f8628-c753-11ea-1021-020000000000"/>
      <resource>
         <Composition>
            <meta>
               <profile value="http://nictiz.nl/fhir/StructureDefinition/gp-EncounterReport"/>
            </meta>
            <text>
               <status value="generated"/>
               <div xmlns="http://www.w3.org/1999/xhtml">
                  <b>Essentiële (primaire) hypertensie</b>
                  <table>
                     <caption>Samengestelde informatie. Subject: Tester Anoniem. Status: definitief<span style="display: block;">Auteur: Ch.P.M. Verhoeff</span>
                     </caption>
                     <tbody>
                        <tr>
                           <th>Type</th>
                           <td>
                              <span title="Summarization of encounter note Narrative (67781-5 - LOINC)">Summarization of encounter note Narrative</span>
                           </td>
                        </tr>
                        <tr>
                           <th>Gemaakt</th>
                           <td>15:29:25, 26 mei 2020</td>
                        </tr>
                        <tr>
                           <th>Contact</th>
                           <td>Contactmoment: 24cd25b11aabdcdd3cfa7a63505feb21 consult 2020-05-26T15:29:25+02:00</td>
                        </tr>
                     </tbody>
                  </table>
               </div>
            </text>
            <status value="final"/>
            <type>
               <coding>
                  <system value="http://loinc.org"/>
                  <code value="67781-5"/>
                  <display value="Summarization of encounter note Narrative"/>
               </coding>
            </type>
            <subject>
               <reference value="urn:uuid:a14f8d50-c753-11ea-1021-020000000000"/>
               <display value="Tester Anoniem"/>
            </subject>
            <encounter>
               <reference value="urn:uuid:a14f6ce9-c753-11ea-1021-020000000000"/>
               <display value="Contactmoment: 24cd25b11aabdcdd3cfa7a63505feb21 consult 2020-05-26T15:29:25+02:00"/>
            </encounter>
            <date value="2020-05-26T15:29:25+02:00"/>
            <author>
                  <reference value="urn:oid:2.16.840.1.113883.2.4.6.1.1006222"/>
               <display value="Ch.P.M. Verhoeff"/>
               </author>
            <title value="Essentiële (primaire) hypertensie"/>
            <section>
               <extension url="http://nictiz.nl/fhir/StructureDefinition/code-icpc-1-nl">
                  <valueCodeableConcept>
                     <coding>
                        <system value="http://hl7.org/fhir/sid/icpc-1-nl"/>
                        <code value="K86"/>
                        <display value="Essentiële (primaire) hypertensie"/>
                     </coding>
                  </valueCodeableConcept>
               </extension>
               <code>
                  <coding>
                     <system value="http://fhir.nl/fhir/NamingSystem/journaalregeltypen"/>
                     <code value="E"/>
                     <display value="Evaluatie"/>
                  </coding>
               </code>
               <text>
                  <status value="generated"/>
                  <div xmlns="http://www.w3.org/1999/xhtml">Essentiële (primaire) hypertensie</div>
               </text>
               <entry>
                  <reference value="urn:uuid:a14f8650-c753-11ea-1021-020000000000"/>
                  <display value="E: Evaluatie - Essentiële (primaire) hypertensie"/>
               </entry>
               <entry>
                  <identifier>
                     <system value="2.16.528.1.1007.3.3.00043987.418.8"/>
                     <value value="9a05e3f543c4dbd25e45c0887a8c3f72"/>
                  </identifier>
                  <display value="Episode: 9a05e3f543c4dbd25e45c0887a8c3f72 2.16.528.1.1007.3.3.00043987.418.8"/>
               </entry>
            </section>
         </Composition>
      </resource>
      <search>
         <mode value="match"/>
      </search>
   </entry>
   <entry>
      <fullUrl value="urn:uuid:a14f866c-c753-11ea-1021-020000000000"/>
      <resource>
         <Composition>
            <meta>
               <profile value="http://nictiz.nl/fhir/StructureDefinition/gp-EncounterReport"/>
            </meta>
            <text>
               <status value="generated"/>
               <div xmlns="http://www.w3.org/1999/xhtml">
                  <b>hernia</b>
                  <table>
                     <caption>Samengestelde informatie. Subject: Tester Anoniem. Status: definitief<span style="display: block;">Auteur: Ch.P.M. Verhoeff</span>
                     </caption>
                     <tbody>
                        <tr>
                           <th>Type</th>
                           <td>
                              <span title="Summarization of encounter note Narrative (67781-5 - LOINC)">Summarization of encounter note Narrative</span>
                           </td>
                        </tr>
                        <tr>
                           <th>Gemaakt</th>
                           <td>21:12:28, 12 juni 2020</td>
                        </tr>
                        <tr>
                           <th>Contact</th>
                           <td>Contactmoment: be282e7194bcdb015df6300cad511e17 consult 2020-06-12T21:12:28+02:00</td>
                        </tr>
                     </tbody>
                  </table>
               </div>
            </text>
            <status value="final"/>
            <type>
               <coding>
                  <system value="http://loinc.org"/>
                  <code value="67781-5"/>
                  <display value="Summarization of encounter note Narrative"/>
               </coding>
            </type>
            <subject>
               <reference value="urn:uuid:a14f8d50-c753-11ea-1021-020000000000"/>
               <display value="Tester Anoniem"/>
            </subject>
            <encounter>
               <reference value="urn:uuid:a14f6daa-c753-11ea-1021-020000000000"/>
               <display value="Contactmoment: be282e7194bcdb015df6300cad511e17 consult 2020-06-12T21:12:28+02:00"/>
            </encounter>
            <date value="2020-06-12T21:12:28+02:00"/>
            <author>
                  <reference value="urn:oid:2.16.840.1.113883.2.4.6.1.1006222"/>
               <display value="Ch.P.M. Verhoeff"/>
               </author>
            <title value="hernia"/>
            <section>
               <code>
                  <coding>
                     <system value="http://fhir.nl/fhir/NamingSystem/journaalregeltypen"/>
                     <code value="S"/>
                     <display value="Subjectief"/>
                  </coding>
               </code>
               <text>
                  <status value="generated"/>
                  <div xmlns="http://www.w3.org/1999/xhtml">bij hoesten pijn, heeft in de tuin gewerkt</div>
               </text>
               <entry>
                  <reference value="urn:uuid:a14f6b3c-c753-11ea-1021-020000000000"/>
                  <display value="S: Subjectief - bij hoesten pijn, heeft in de tuin gewerkt"/>
               </entry>
               <entry>
                  <identifier>
                     <system value="2.16.528.1.1007.3.3.00043987.418.8"/>
                     <value value="59b36996f6d574863130ce7fa99477c3"/>
                  </identifier>
                  <display value="Episode: 59b36996f6d574863130ce7fa99477c3 2.16.528.1.1007.3.3.00043987.418.8"/>
               </entry>
            </section>
            <section>
               <code>
                  <coding>
                     <system value="http://fhir.nl/fhir/NamingSystem/journaalregeltypen"/>
                     <code value="O"/>
                     <display value="Objectief"/>
                  </coding>
               </code>
               <text>
                  <status value="generated"/>
                  <div xmlns="http://www.w3.org/1999/xhtml">hyperone rugspieren, KPR re verminderd,</div>
               </text>
               <entry>
                  <reference value="urn:uuid:a14f6b43-c753-11ea-1021-020000000000"/>
                  <display value="O: Objectief - hyperone rugspieren, KPR re verminderd,"/>
               </entry>
               <entry>
                  <identifier>
                     <system value="2.16.528.1.1007.3.3.00043987.418.8"/>
                     <value value="59b36996f6d574863130ce7fa99477c3"/>
                  </identifier>
                  <display value="Episode: 59b36996f6d574863130ce7fa99477c3 2.16.528.1.1007.3.3.00043987.418.8"/>
               </entry>
            </section>
            <section>
               <extension url="http://nictiz.nl/fhir/StructureDefinition/code-icpc-1-nl">
                  <valueCodeableConcept>
                     <coding>
                        <system value="http://hl7.org/fhir/sid/icpc-1-nl"/>
                        <code value="L86"/>
                        <display value="hernia"/>
                     </coding>
                  </valueCodeableConcept>
               </extension>
               <code>
                  <coding>
                     <system value="http://fhir.nl/fhir/NamingSystem/journaalregeltypen"/>
                     <code value="E"/>
                     <display value="Evaluatie"/>
                  </coding>
               </code>
               <text>
                  <status value="generated"/>
                  <div xmlns="http://www.w3.org/1999/xhtml">hernia</div>
               </text>
               <entry>
                  <reference value="urn:uuid:a14f6b4b-c753-11ea-1021-020000000000"/>
                  <display value="E: Evaluatie - hernia"/>
               </entry>
               <entry>
                  <identifier>
                     <system value="2.16.528.1.1007.3.3.00043987.418.8"/>
                     <value value="59b36996f6d574863130ce7fa99477c3"/>
                  </identifier>
                  <display value="Episode: 59b36996f6d574863130ce7fa99477c3 2.16.528.1.1007.3.3.00043987.418.8"/>
               </entry>
            </section>
            <section>
               <code>
                  <coding>
                     <system value="http://fhir.nl/fhir/NamingSystem/journaalregeltypen"/>
                     <code value="P"/>
                     <display value="Plan"/>
                  </coding>
               </code>
               <text>
                  <status value="generated"/>
                  <div xmlns="http://www.w3.org/1999/xhtml">wel bewegen voor zover de pijn dit toelaat, probeer niet te lang te staan of te zitten, niet tillen, de klachten kunnen een paar weken aanhouden. Bij slecht kunnen plassen of een doof gevoel rond de anus dan direct contact opnemen. Let op het gewicht. Als de klachten over zijn gewicht aanpakken.</div>
               </text>
               <entry>
                  <reference value="urn:uuid:a14f6b62-c753-11ea-1021-020000000000"/>
                  <display value="P: Plan - wel bewegen voor zover de pijn dit toelaat, probeer niet te lang te staan of te zitten, niet tillen, de klachten kunnen een paar weken aanhouden. Bij slecht kunnen plassen of een doof gevoel rond de anus dan direct contact opnemen. Let op het gewicht. Als de klachten over zijn gewicht aanpakken."/>
               </entry>
               <entry>
                  <identifier>
                     <system value="2.16.528.1.1007.3.3.00043987.418.8"/>
                     <value value="59b36996f6d574863130ce7fa99477c3"/>
                  </identifier>
                  <display value="Episode: 59b36996f6d574863130ce7fa99477c3 2.16.528.1.1007.3.3.00043987.418.8"/>
               </entry>
            </section>
         </Composition>
      </resource>
      <search>
         <mode value="match"/>
      </search>
   </entry>
   <entry>
      <fullUrl value="urn:uuid:a14f6b98-c753-11ea-1021-020000000000"/>
      <resource>
         <Encounter>
            <meta>
               <profile value="http://nictiz.nl/fhir/StructureDefinition/gp-Encounter"/>
            </meta>
            <text>
               <status value="generated"/>
               <div xmlns="http://www.w3.org/1999/xhtml">
                  <table>
                     <caption>Contact. Subject: Tester Anoniem. Id: ab874b06372b85dc23d396db1660cb89 (2.16.528.1.1007.3.3.00043987.418.4), Status: voltooid</caption>
                     <tbody>
                        <tr>
                           <th>Type contact</th>
                           <td>
                              <div>
                                 <span title="Ambulatory (AMB - v3/ActCode)">Ambulatory</span>
                              </div>
                              <span title="consult (03 - nhg-tabel-14-contactwijze)">consult</span>
                           </td>
                        </tr>
                        <tr>
                           <th>Periode</th>
                           <td>Vanaf 15:23:33, 11 juli 2019</td>
                        </tr>
                        <tr>
                           <th>Participant</th>
                           <td>
                              <div>
                                 <span title="Performer (PRF - v3/ParticipationType)">Performer</span> - Ch.P.M. Verhoeff || E. van der Wielen - F. Weimer</div>
                           </td>
                        </tr>
                        <tr>
                           <th>Zorgaanbieder</th>
                           <td>E. van der Wielen - F. Weimer</td>
                        </tr>
                     </tbody>
                  </table>
               </div>
            </text>
            <identifier>
               <system value="2.16.528.1.1007.3.3.00043987.418.4"/>
               <value value="ab874b06372b85dc23d396db1660cb89"/>
            </identifier>
            <status value="finished"/>
            <class>
               <system value="http://hl7.org/fhir/v3/ActCode"/>
               <code value="AMB"/>
               <display value="Ambulatory"/>
            </class>
            <type>
               <coding>
                  <system value="https://referentiemodel.nhg.org/tabellen/nhg-tabel-14-contactwijze"/>
                  <version value="v3"/>
                  <code value="03"/>
                  <display value="consult"/>
               </coding>
            </type>
            <subject>
               <reference value="urn:uuid:a14f8d50-c753-11ea-1021-020000000000"/>
               <display value="Tester Anoniem"/>
            </subject>
            <episodeOfCare>
               <identifier>
                  <system value="2.16.528.1.1007.3.3.00043987.418.8"/>
                  <value value="6779736e5c716ab6608325f3f90b5e13"/>
               </identifier>
               <display value="Episode: 6779736e5c716ab6608325f3f90b5e13 2.16.528.1.1007.3.3.00043987.418.8"/>
            </episodeOfCare>
            <participant>
               <type>
                  <coding>
                     <system value="http://hl7.org/fhir/v3/ParticipationType"/>
                     <code value="PRF"/>
                     <display value="Performer"/>
                  </coding>
               </type>
               <individual>
                  <extension url="http://nictiz.nl/fhir/StructureDefinition/practitionerrole-reference">
                     <valueReference>
                        <reference value="urn:uuid:a14f6b9d-c753-11ea-1021-020000000000"/>
                        <display value="Ch.P.M. Verhoeff || E. van der Wielen - F. Weimer"/>
                     </valueReference>
                  </extension>
                  <reference value="urn:oid:2.16.840.1.113883.2.4.6.1.1006222"/>
                  <display value="Ch.P.M. Verhoeff"/>
               </individual>
            </participant>
            <period>
               <start value="2019-07-11T15:23:33+02:00"/>
            </period>
            <serviceProvider>
               <reference value="urn:oid:2.16.528.1.1007.3.3.43987"/>
               <display value="E. van der Wielen - F. Weimer"/>
            </serviceProvider>
         </Encounter>
      </resource>
      <search>
         <mode value="include"/>
      </search>
   </entry>
   <entry>
      <fullUrl value="urn:uuid:a14f6bc8-c753-11ea-1021-020000000000"/>
      <resource>
         <Encounter>
            <meta>
               <profile value="http://nictiz.nl/fhir/StructureDefinition/gp-Encounter"/>
            </meta>
            <text>
               <status value="generated"/>
               <div xmlns="http://www.w3.org/1999/xhtml">
                  <table>
                     <caption>Contact. Subject: Tester Anoniem. Id: 5dff5059c563fdb55023709f7b01dd62 (2.16.528.1.1007.3.3.00043987.418.4), Status: voltooid</caption>
                     <tbody>
                        <tr>
                           <th>Type contact</th>
                           <td>
                              <div>
                                 <span title="Ambulatory (AMB - v3/ActCode)">Ambulatory</span>
                              </div>
                              <span title="consult (03 - nhg-tabel-14-contactwijze)">consult</span>
                           </td>
                        </tr>
                        <tr>
                           <th>Periode</th>
                           <td>Vanaf 15:41:56, 19 november 2019</td>
                        </tr>
                        <tr>
                           <th>Participant</th>
                           <td>
                              <div>
                                 <span title="Performer (PRF - v3/ParticipationType)">Performer</span> - Ch.P.M. Verhoeff || E. van der Wielen - F. Weimer</div>
                           </td>
                        </tr>
                        <tr>
                           <th>Zorgaanbieder</th>
                           <td>E. van der Wielen - F. Weimer</td>
                        </tr>
                     </tbody>
                  </table>
               </div>
            </text>
            <identifier>
               <system value="2.16.528.1.1007.3.3.00043987.418.4"/>
               <value value="5dff5059c563fdb55023709f7b01dd62"/>
            </identifier>
            <status value="finished"/>
            <class>
               <system value="http://hl7.org/fhir/v3/ActCode"/>
               <code value="AMB"/>
               <display value="Ambulatory"/>
            </class>
            <type>
               <coding>
                  <system value="https://referentiemodel.nhg.org/tabellen/nhg-tabel-14-contactwijze"/>
                  <version value="v3"/>
                  <code value="03"/>
                  <display value="consult"/>
               </coding>
            </type>
            <subject>
               <reference value="urn:uuid:a14f8d50-c753-11ea-1021-020000000000"/>
               <display value="Tester Anoniem"/>
            </subject>
            <episodeOfCare>
               <identifier>
                  <system value="2.16.528.1.1007.3.3.00043987.418.8"/>
                  <value value="6779736e5c716ab6608325f3f90b5e13"/>
               </identifier>
               <display value="Episode: 6779736e5c716ab6608325f3f90b5e13 2.16.528.1.1007.3.3.00043987.418.8"/>
            </episodeOfCare>
            <participant>
               <type>
                  <coding>
                     <system value="http://hl7.org/fhir/v3/ParticipationType"/>
                     <code value="PRF"/>
                     <display value="Performer"/>
                  </coding>
               </type>
               <individual>
                  <extension url="http://nictiz.nl/fhir/StructureDefinition/practitionerrole-reference">
                     <valueReference>
                        <reference value="urn:uuid:a14f6b9d-c753-11ea-1021-020000000000"/>
                        <display value="Ch.P.M. Verhoeff || E. van der Wielen - F. Weimer"/>
                     </valueReference>
                  </extension>
                  <reference value="urn:oid:2.16.840.1.113883.2.4.6.1.1006222"/>
                  <display value="Ch.P.M. Verhoeff"/>
               </individual>
            </participant>
            <period>
               <start value="2019-11-19T15:41:56+01:00"/>
            </period>
            <serviceProvider>
               <reference value="urn:oid:2.16.528.1.1007.3.3.43987"/>
               <display value="E. van der Wielen - F. Weimer"/>
            </serviceProvider>
         </Encounter>
      </resource>
      <search>
         <mode value="include"/>
      </search>
   </entry>
   <entry>
      <fullUrl value="urn:uuid:a14f6bf8-c753-11ea-1021-020000000000"/>
      <resource>
         <Encounter>
            <meta>
               <profile value="http://nictiz.nl/fhir/StructureDefinition/gp-Encounter"/>
            </meta>
            <text>
               <status value="generated"/>
               <div xmlns="http://www.w3.org/1999/xhtml">
                  <table>
                     <caption>Contact. Subject: Tester Anoniem. Id: b7d32ae5d9f735c6a15841f6ec9d5f99 (2.16.528.1.1007.3.3.00043987.418.4), Status: voltooid</caption>
                     <tbody>
                        <tr>
                           <th>Type contact</th>
                           <td>
                              <div>
                                 <span title="Ambulatory (AMB - v3/ActCode)">Ambulatory</span>
                              </div>
                              <span title="consult (03 - nhg-tabel-14-contactwijze)">consult</span>
                           </td>
                        </tr>
                        <tr>
                           <th>Periode</th>
                           <td>Vanaf 16:03:25, 18 februari 2020</td>
                        </tr>
                        <tr>
                           <th>Participant</th>
                           <td>
                              <div>
                                 <span title="Performer (PRF - v3/ParticipationType)">Performer</span> - Ch.P.M. Verhoeff || E. van der Wielen - F. Weimer</div>
                           </td>
                        </tr>
                        <tr>
                           <th>Zorgaanbieder</th>
                           <td>E. van der Wielen - F. Weimer</td>
                        </tr>
                     </tbody>
                  </table>
               </div>
            </text>
            <identifier>
               <system value="2.16.528.1.1007.3.3.00043987.418.4"/>
               <value value="b7d32ae5d9f735c6a15841f6ec9d5f99"/>
            </identifier>
            <status value="finished"/>
            <class>
               <system value="http://hl7.org/fhir/v3/ActCode"/>
               <code value="AMB"/>
               <display value="Ambulatory"/>
            </class>
            <type>
               <coding>
                  <system value="https://referentiemodel.nhg.org/tabellen/nhg-tabel-14-contactwijze"/>
                  <version value="v3"/>
                  <code value="03"/>
                  <display value="consult"/>
               </coding>
            </type>
            <subject>
               <reference value="urn:uuid:a14f8d50-c753-11ea-1021-020000000000"/>
               <display value="Tester Anoniem"/>
            </subject>
            <episodeOfCare>
               <identifier>
                  <system value="2.16.528.1.1007.3.3.00043987.418.8"/>
                  <value value="6779736e5c716ab6608325f3f90b5e13"/>
               </identifier>
               <display value="Episode: 6779736e5c716ab6608325f3f90b5e13 2.16.528.1.1007.3.3.00043987.418.8"/>
            </episodeOfCare>
            <participant>
               <type>
                  <coding>
                     <system value="http://hl7.org/fhir/v3/ParticipationType"/>
                     <code value="PRF"/>
                     <display value="Performer"/>
                  </coding>
               </type>
               <individual>
                  <extension url="http://nictiz.nl/fhir/StructureDefinition/practitionerrole-reference">
                     <valueReference>
                        <reference value="urn:uuid:a14f6b9d-c753-11ea-1021-020000000000"/>
                        <display value="Ch.P.M. Verhoeff || E. van der Wielen - F. Weimer"/>
                     </valueReference>
                  </extension>
                  <reference value="urn:oid:2.16.840.1.113883.2.4.6.1.1006222"/>
                  <display value="Ch.P.M. Verhoeff"/>
               </individual>
            </participant>
            <period>
               <start value="2020-02-18T16:03:25+01:00"/>
            </period>
            <serviceProvider>
               <reference value="urn:oid:2.16.528.1.1007.3.3.43987"/>
               <display value="E. van der Wielen - F. Weimer"/>
            </serviceProvider>
         </Encounter>
      </resource>
      <search>
         <mode value="include"/>
      </search>
   </entry>
   <entry>
      <fullUrl value="urn:uuid:a14f6c28-c753-11ea-1021-020000000000"/>
      <resource>
         <Encounter>
            <meta>
               <profile value="http://nictiz.nl/fhir/StructureDefinition/gp-Encounter"/>
            </meta>
            <text>
               <status value="generated"/>
               <div xmlns="http://www.w3.org/1999/xhtml">
                  <table>
                     <caption>Contact. Subject: Tester Anoniem. Id: 8630606bd1f8c4b329ef64fba042a77a (2.16.528.1.1007.3.3.00043987.418.4), Status: voltooid</caption>
                     <tbody>
                        <tr>
                           <th>Type contact</th>
                           <td>
                              <div>
                                 <span title="Ambulatory (AMB - v3/ActCode)">Ambulatory</span>
                              </div>
                              <span title="consult (03 - nhg-tabel-14-contactwijze)">consult</span>
                           </td>
                        </tr>
                        <tr>
                           <th>Periode</th>
                           <td>Vanaf 15:45:51, 23 maart 2020</td>
                        </tr>
                        <tr>
                           <th>Participant</th>
                           <td>
                              <div>
                                 <span title="Performer (PRF - v3/ParticipationType)">Performer</span> - Ch.P.M. Verhoeff || E. van der Wielen - F. Weimer</div>
                           </td>
                        </tr>
                        <tr>
                           <th>Zorgaanbieder</th>
                           <td>E. van der Wielen - F. Weimer</td>
                        </tr>
                     </tbody>
                  </table>
               </div>
            </text>
            <identifier>
               <system value="2.16.528.1.1007.3.3.00043987.418.4"/>
               <value value="8630606bd1f8c4b329ef64fba042a77a"/>
            </identifier>
            <status value="finished"/>
            <class>
               <system value="http://hl7.org/fhir/v3/ActCode"/>
               <code value="AMB"/>
               <display value="Ambulatory"/>
            </class>
            <type>
               <coding>
                  <system value="https://referentiemodel.nhg.org/tabellen/nhg-tabel-14-contactwijze"/>
                  <version value="v3"/>
                  <code value="03"/>
                  <display value="consult"/>
               </coding>
            </type>
            <subject>
               <reference value="urn:uuid:a14f8d50-c753-11ea-1021-020000000000"/>
               <display value="Tester Anoniem"/>
            </subject>
            <episodeOfCare>
               <identifier>
                  <system value="2.16.528.1.1007.3.3.00043987.418.8"/>
                  <value value="6779736e5c716ab6608325f3f90b5e13"/>
               </identifier>
               <display value="Episode: 6779736e5c716ab6608325f3f90b5e13 2.16.528.1.1007.3.3.00043987.418.8"/>
            </episodeOfCare>
            <participant>
               <type>
                  <coding>
                     <system value="http://hl7.org/fhir/v3/ParticipationType"/>
                     <code value="PRF"/>
                     <display value="Performer"/>
                  </coding>
               </type>
               <individual>
                  <extension url="http://nictiz.nl/fhir/StructureDefinition/practitionerrole-reference">
                     <valueReference>
                        <reference value="urn:uuid:a14f6b9d-c753-11ea-1021-020000000000"/>
                        <display value="Ch.P.M. Verhoeff || E. van der Wielen - F. Weimer"/>
                     </valueReference>
                  </extension>
                  <reference value="urn:oid:2.16.840.1.113883.2.4.6.1.1006222"/>
                  <display value="Ch.P.M. Verhoeff"/>
               </individual>
            </participant>
            <period>
               <start value="2020-03-23T15:45:51+01:00"/>
            </period>
            <serviceProvider>
               <reference value="urn:oid:2.16.528.1.1007.3.3.43987"/>
               <display value="E. van der Wielen - F. Weimer"/>
            </serviceProvider>
         </Encounter>
      </resource>
      <search>
         <mode value="include"/>
      </search>
   </entry>
   <entry>
      <fullUrl value="urn:uuid:a14f6c59-c753-11ea-1021-020000000000"/>
      <resource>
         <Encounter>
            <meta>
               <profile value="http://nictiz.nl/fhir/StructureDefinition/gp-Encounter"/>
            </meta>
            <text>
               <status value="generated"/>
               <div xmlns="http://www.w3.org/1999/xhtml">
                  <table>
                     <caption>Contact. Subject: Tester Anoniem. Id: 0463b8905f57ee3d787b3f1bc26d5d6f (2.16.528.1.1007.3.3.00043987.418.4), Status: voltooid</caption>
                     <tbody>
                        <tr>
                           <th>Type contact</th>
                           <td>
                              <div>
                                 <span title="Ambulatory (AMB - v3/ActCode)">Ambulatory</span>
                              </div>
                              <span title="consult (03 - nhg-tabel-14-contactwijze)">consult</span>
                           </td>
                        </tr>
                        <tr>
                           <th>Periode</th>
                           <td>Vanaf 14:02:27, 29 april 2020</td>
                        </tr>
                        <tr>
                           <th>Participant</th>
                           <td>
                              <div>
                                 <span title="Performer (PRF - v3/ParticipationType)">Performer</span> - Ch.P.M. Verhoeff || E. van der Wielen - F. Weimer</div>
                           </td>
                        </tr>
                        <tr>
                           <th>Zorgaanbieder</th>
                           <td>E. van der Wielen - F. Weimer</td>
                        </tr>
                     </tbody>
                  </table>
               </div>
            </text>
            <identifier>
               <system value="2.16.528.1.1007.3.3.00043987.418.4"/>
               <value value="0463b8905f57ee3d787b3f1bc26d5d6f"/>
            </identifier>
            <status value="finished"/>
            <class>
               <system value="http://hl7.org/fhir/v3/ActCode"/>
               <code value="AMB"/>
               <display value="Ambulatory"/>
            </class>
            <type>
               <coding>
                  <system value="https://referentiemodel.nhg.org/tabellen/nhg-tabel-14-contactwijze"/>
                  <version value="v3"/>
                  <code value="03"/>
                  <display value="consult"/>
               </coding>
            </type>
            <subject>
               <reference value="urn:uuid:a14f8d50-c753-11ea-1021-020000000000"/>
               <display value="Tester Anoniem"/>
            </subject>
            <episodeOfCare>
               <identifier>
                  <system value="2.16.528.1.1007.3.3.00043987.418.8"/>
                  <value value="6779736e5c716ab6608325f3f90b5e13"/>
               </identifier>
               <display value="Episode: 6779736e5c716ab6608325f3f90b5e13 2.16.528.1.1007.3.3.00043987.418.8"/>
            </episodeOfCare>
            <participant>
               <type>
                  <coding>
                     <system value="http://hl7.org/fhir/v3/ParticipationType"/>
                     <code value="PRF"/>
                     <display value="Performer"/>
                  </coding>
               </type>
               <individual>
                  <extension url="http://nictiz.nl/fhir/StructureDefinition/practitionerrole-reference">
                     <valueReference>
                        <reference value="urn:uuid:a14f6b9d-c753-11ea-1021-020000000000"/>
                        <display value="Ch.P.M. Verhoeff || E. van der Wielen - F. Weimer"/>
                     </valueReference>
                  </extension>
                  <reference value="urn:oid:2.16.840.1.113883.2.4.6.1.1006222"/>
                  <display value="Ch.P.M. Verhoeff"/>
               </individual>
            </participant>
            <period>
               <start value="2020-04-29T14:02:27+02:00"/>
            </period>
            <serviceProvider>
               <reference value="urn:oid:2.16.528.1.1007.3.3.43987"/>
               <display value="E. van der Wielen - F. Weimer"/>
            </serviceProvider>
         </Encounter>
      </resource>
      <search>
         <mode value="include"/>
      </search>
   </entry>
   <entry>
      <fullUrl value="urn:uuid:a14f6c89-c753-11ea-1021-020000000000"/>
      <resource>
         <Encounter>
            <meta>
               <profile value="http://nictiz.nl/fhir/StructureDefinition/gp-Encounter"/>
            </meta>
            <text>
               <status value="generated"/>
               <div xmlns="http://www.w3.org/1999/xhtml">
                  <table>
                     <caption>Contact. Subject: Tester Anoniem. Id: fed6fea050fce8ec34aaa4c30d64bf1f (2.16.528.1.1007.3.3.00043987.418.4), Status: voltooid</caption>
                     <tbody>
                        <tr>
                           <th>Type contact</th>
                           <td>
                              <div>
                                 <span title="Ambulatory (AMB - v3/ActCode)">Ambulatory</span>
                              </div>
                              <span title="consult (03 - nhg-tabel-14-contactwijze)">consult</span>
                           </td>
                        </tr>
                        <tr>
                           <th>Periode</th>
                           <td>Vanaf 14:21:32, 12 mei 2020</td>
                        </tr>
                        <tr>
                           <th>Participant</th>
                           <td>
                              <div>
                                 <span title="Performer (PRF - v3/ParticipationType)">Performer</span> - Ch.P.M. Verhoeff || E. van der Wielen - F. Weimer</div>
                           </td>
                        </tr>
                        <tr>
                           <th>Zorgaanbieder</th>
                           <td>E. van der Wielen - F. Weimer</td>
                        </tr>
                     </tbody>
                  </table>
               </div>
            </text>
            <identifier>
               <system value="2.16.528.1.1007.3.3.00043987.418.4"/>
               <value value="fed6fea050fce8ec34aaa4c30d64bf1f"/>
            </identifier>
            <status value="finished"/>
            <class>
               <system value="http://hl7.org/fhir/v3/ActCode"/>
               <code value="AMB"/>
               <display value="Ambulatory"/>
            </class>
            <type>
               <coding>
                  <system value="https://referentiemodel.nhg.org/tabellen/nhg-tabel-14-contactwijze"/>
                  <version value="v3"/>
                  <code value="03"/>
                  <display value="consult"/>
               </coding>
            </type>
            <subject>
               <reference value="urn:uuid:a14f8d50-c753-11ea-1021-020000000000"/>
               <display value="Tester Anoniem"/>
            </subject>
            <episodeOfCare>
               <identifier>
                  <system value="2.16.528.1.1007.3.3.00043987.418.8"/>
                  <value value="6779736e5c716ab6608325f3f90b5e13"/>
               </identifier>
               <display value="Episode: 6779736e5c716ab6608325f3f90b5e13 2.16.528.1.1007.3.3.00043987.418.8"/>
            </episodeOfCare>
            <participant>
               <type>
                  <coding>
                     <system value="http://hl7.org/fhir/v3/ParticipationType"/>
                     <code value="PRF"/>
                     <display value="Performer"/>
                  </coding>
               </type>
               <individual>
                  <extension url="http://nictiz.nl/fhir/StructureDefinition/practitionerrole-reference">
                     <valueReference>
                        <reference value="urn:uuid:a14f6b9d-c753-11ea-1021-020000000000"/>
                        <display value="Ch.P.M. Verhoeff || E. van der Wielen - F. Weimer"/>
                     </valueReference>
                  </extension>
                  <reference value="urn:oid:2.16.840.1.113883.2.4.6.1.1006222"/>
                  <display value="Ch.P.M. Verhoeff"/>
               </individual>
            </participant>
            <period>
               <start value="2020-05-12T14:21:32+02:00"/>
            </period>
            <serviceProvider>
               <reference value="urn:oid:2.16.528.1.1007.3.3.43987"/>
               <display value="E. van der Wielen - F. Weimer"/>
            </serviceProvider>
         </Encounter>
      </resource>
      <search>
         <mode value="include"/>
      </search>
   </entry>
   <entry>
      <fullUrl value="urn:uuid:a14f6cb9-c753-11ea-1021-020000000000"/>
      <resource>
         <Encounter>
            <meta>
               <profile value="http://nictiz.nl/fhir/StructureDefinition/gp-Encounter"/>
            </meta>
            <text>
               <status value="generated"/>
               <div xmlns="http://www.w3.org/1999/xhtml">
                  <table>
                     <caption>Contact. Subject: Tester Anoniem. Id: de83cc0d983587d1fd16c4a18731b0bf (2.16.528.1.1007.3.3.00043987.418.4), Status: voltooid</caption>
                     <tbody>
                        <tr>
                           <th>Type contact</th>
                           <td>
                              <div>
                                 <span title="Ambulatory (AMB - v3/ActCode)">Ambulatory</span>
                              </div>
                              <span title="consult (03 - nhg-tabel-14-contactwijze)">consult</span>
                           </td>
                        </tr>
                        <tr>
                           <th>Periode</th>
                           <td>Vanaf 16:04:37, 19 mei 2020</td>
                        </tr>
                        <tr>
                           <th>Participant</th>
                           <td>
                              <div>
                                 <span title="Performer (PRF - v3/ParticipationType)">Performer</span> - Ch.P.M. Verhoeff || E. van der Wielen - F. Weimer</div>
                           </td>
                        </tr>
                        <tr>
                           <th>Zorgaanbieder</th>
                           <td>E. van der Wielen - F. Weimer</td>
                        </tr>
                     </tbody>
                  </table>
               </div>
            </text>
            <identifier>
               <system value="2.16.528.1.1007.3.3.00043987.418.4"/>
               <value value="de83cc0d983587d1fd16c4a18731b0bf"/>
            </identifier>
            <status value="finished"/>
            <class>
               <system value="http://hl7.org/fhir/v3/ActCode"/>
               <code value="AMB"/>
               <display value="Ambulatory"/>
            </class>
            <type>
               <coding>
                  <system value="https://referentiemodel.nhg.org/tabellen/nhg-tabel-14-contactwijze"/>
                  <version value="v3"/>
                  <code value="03"/>
                  <display value="consult"/>
               </coding>
            </type>
            <subject>
               <reference value="urn:uuid:a14f8d50-c753-11ea-1021-020000000000"/>
               <display value="Tester Anoniem"/>
            </subject>
            <episodeOfCare>
               <identifier>
                  <system value="2.16.528.1.1007.3.3.00043987.418.8"/>
                  <value value="6779736e5c716ab6608325f3f90b5e13"/>
               </identifier>
               <display value="Episode: 6779736e5c716ab6608325f3f90b5e13 2.16.528.1.1007.3.3.00043987.418.8"/>
            </episodeOfCare>
            <participant>
               <type>
                  <coding>
                     <system value="http://hl7.org/fhir/v3/ParticipationType"/>
                     <code value="PRF"/>
                     <display value="Performer"/>
                  </coding>
               </type>
               <individual>
                  <extension url="http://nictiz.nl/fhir/StructureDefinition/practitionerrole-reference">
                     <valueReference>
                        <reference value="urn:uuid:a14f6b9d-c753-11ea-1021-020000000000"/>
                        <display value="Ch.P.M. Verhoeff || E. van der Wielen - F. Weimer"/>
                     </valueReference>
                  </extension>
                  <reference value="urn:oid:2.16.840.1.113883.2.4.6.1.1006222"/>
                  <display value="Ch.P.M. Verhoeff"/>
               </individual>
            </participant>
            <period>
               <start value="2020-05-19T16:04:37+02:00"/>
            </period>
            <serviceProvider>
               <reference value="urn:oid:2.16.528.1.1007.3.3.43987"/>
               <display value="E. van der Wielen - F. Weimer"/>
            </serviceProvider>
         </Encounter>
      </resource>
      <search>
         <mode value="include"/>
      </search>
   </entry>
   <entry>
      <fullUrl value="urn:uuid:a14f6ce9-c753-11ea-1021-020000000000"/>
      <resource>
         <Encounter>
            <meta>
               <profile value="http://nictiz.nl/fhir/StructureDefinition/gp-Encounter"/>
            </meta>
            <text>
               <status value="generated"/>
               <div xmlns="http://www.w3.org/1999/xhtml">
                  <table>
                     <caption>Contact. Subject: Tester Anoniem. Id: 24cd25b11aabdcdd3cfa7a63505feb21 (2.16.528.1.1007.3.3.00043987.418.4), Status: voltooid</caption>
                     <tbody>
                        <tr>
                           <th>Type contact</th>
                           <td>
                              <div>
                                 <span title="Ambulatory (AMB - v3/ActCode)">Ambulatory</span>
                              </div>
                              <span title="consult (03 - nhg-tabel-14-contactwijze)">consult</span>
                           </td>
                        </tr>
                        <tr>
                           <th>Periode</th>
                           <td>Vanaf 15:29:25, 26 mei 2020</td>
                        </tr>
                        <tr>
                           <th>Participant</th>
                           <td>
                              <div>
                                 <span title="Performer (PRF - v3/ParticipationType)">Performer</span> - Ch.P.M. Verhoeff || E. van der Wielen - F. Weimer</div>
                           </td>
                        </tr>
                        <tr>
                           <th>Zorgaanbieder</th>
                           <td>E. van der Wielen - F. Weimer</td>
                        </tr>
                     </tbody>
                  </table>
               </div>
            </text>
            <identifier>
               <system value="2.16.528.1.1007.3.3.00043987.418.4"/>
               <value value="24cd25b11aabdcdd3cfa7a63505feb21"/>
            </identifier>
            <status value="finished"/>
            <class>
               <system value="http://hl7.org/fhir/v3/ActCode"/>
               <code value="AMB"/>
               <display value="Ambulatory"/>
            </class>
            <type>
               <coding>
                  <system value="https://referentiemodel.nhg.org/tabellen/nhg-tabel-14-contactwijze"/>
                  <version value="v3"/>
                  <code value="03"/>
                  <display value="consult"/>
               </coding>
            </type>
            <subject>
               <reference value="urn:uuid:a14f8d50-c753-11ea-1021-020000000000"/>
               <display value="Tester Anoniem"/>
            </subject>
            <episodeOfCare>
               <identifier>
                  <system value="2.16.528.1.1007.3.3.00043987.418.8"/>
                  <value value="6779736e5c716ab6608325f3f90b5e13"/>
               </identifier>
               <display value="Episode: 6779736e5c716ab6608325f3f90b5e13 2.16.528.1.1007.3.3.00043987.418.8"/>
            </episodeOfCare>
            <participant>
               <type>
                  <coding>
                     <system value="http://hl7.org/fhir/v3/ParticipationType"/>
                     <code value="PRF"/>
                     <display value="Performer"/>
                  </coding>
               </type>
               <individual>
                  <extension url="http://nictiz.nl/fhir/StructureDefinition/practitionerrole-reference">
                     <valueReference>
                        <reference value="urn:uuid:a14f6b9d-c753-11ea-1021-020000000000"/>
                        <display value="Ch.P.M. Verhoeff || E. van der Wielen - F. Weimer"/>
                     </valueReference>
                  </extension>
                  <reference value="urn:oid:2.16.840.1.113883.2.4.6.1.1006222"/>
                  <display value="Ch.P.M. Verhoeff"/>
               </individual>
            </participant>
            <period>
               <start value="2020-05-26T15:29:25+02:00"/>
            </period>
            <serviceProvider>
               <reference value="urn:oid:2.16.528.1.1007.3.3.43987"/>
               <display value="E. van der Wielen - F. Weimer"/>
            </serviceProvider>
         </Encounter>
      </resource>
      <search>
         <mode value="include"/>
      </search>
   </entry>
   <entry>
      <fullUrl value="urn:uuid:a14f6daa-c753-11ea-1021-020000000000"/>
      <resource>
         <Encounter>
            <meta>
               <profile value="http://nictiz.nl/fhir/StructureDefinition/gp-Encounter"/>
            </meta>
            <text>
               <status value="generated"/>
               <div xmlns="http://www.w3.org/1999/xhtml">
                  <table>
                     <caption>Contact. Subject: Tester Anoniem. Id: be282e7194bcdb015df6300cad511e17 (2.16.528.1.1007.3.3.00043987.418.4), Status: voltooid</caption>
                     <tbody>
                        <tr>
                           <th>Type contact</th>
                           <td>
                              <div>
                                 <span title="Ambulatory (AMB - v3/ActCode)">Ambulatory</span>
                              </div>
                              <span title="consult (03 - nhg-tabel-14-contactwijze)">consult</span>
                           </td>
                        </tr>
                        <tr>
                           <th>Periode</th>
                           <td>Vanaf 21:12:28, 12 juni 2020</td>
                        </tr>
                        <tr>
                           <th>Participant</th>
                           <td>
                              <div>
                                 <span title="Performer (PRF - v3/ParticipationType)">Performer</span> - Ch.P.M. Verhoeff || E. van der Wielen - F. Weimer</div>
                           </td>
                        </tr>
                        <tr>
                           <th>Zorgaanbieder</th>
                           <td>E. van der Wielen - F. Weimer</td>
                        </tr>
                     </tbody>
                  </table>
               </div>
            </text>
            <identifier>
               <system value="2.16.528.1.1007.3.3.00043987.418.4"/>
               <value value="be282e7194bcdb015df6300cad511e17"/>
            </identifier>
            <status value="finished"/>
            <class>
               <system value="http://hl7.org/fhir/v3/ActCode"/>
               <code value="AMB"/>
               <display value="Ambulatory"/>
            </class>
            <type>
               <coding>
                  <system value="https://referentiemodel.nhg.org/tabellen/nhg-tabel-14-contactwijze"/>
                  <version value="v3"/>
                  <code value="03"/>
                  <display value="consult"/>
               </coding>
            </type>
            <subject>
               <reference value="urn:uuid:a14f8d50-c753-11ea-1021-020000000000"/>
               <display value="Tester Anoniem"/>
            </subject>
            <episodeOfCare>
               <identifier>
                  <system value="2.16.528.1.1007.3.3.00043987.418.8"/>
                  <value value="59b36996f6d574863130ce7fa99477c3"/>
               </identifier>
               <display value="Episode: 59b36996f6d574863130ce7fa99477c3 2.16.528.1.1007.3.3.00043987.418.8"/>
            </episodeOfCare>
            <participant>
               <type>
                  <coding>
                     <system value="http://hl7.org/fhir/v3/ParticipationType"/>
                     <code value="PRF"/>
                     <display value="Performer"/>
                  </coding>
               </type>
               <individual>
                  <extension url="http://nictiz.nl/fhir/StructureDefinition/practitionerrole-reference">
                     <valueReference>
                        <reference value="urn:uuid:a14f6b9d-c753-11ea-1021-020000000000"/>
                        <display value="Ch.P.M. Verhoeff || E. van der Wielen - F. Weimer"/>
                     </valueReference>
                  </extension>
                  <reference value="urn:oid:2.16.840.1.113883.2.4.6.1.1006222"/>
                  <display value="Ch.P.M. Verhoeff"/>
               </individual>
            </participant>
            <period>
               <start value="2020-06-12T21:12:28+02:00"/>
            </period>
            <serviceProvider>
               <reference value="urn:oid:2.16.528.1.1007.3.3.43987"/>
               <display value="E. van der Wielen - F. Weimer"/>
            </serviceProvider>
         </Encounter>
      </resource>
      <search>
         <mode value="include"/>
      </search>
   </entry>
   <entry>
      <fullUrl value="urn:uuid:a14f8d50-c753-11ea-1021-020000000000"/>
      <resource>
         <Patient>
            <meta>
               <profile value="http://fhir.nl/fhir/StructureDefinition/nl-core-patient"/>
            </meta>
            <text>
               <status value="generated"/>
               <div xmlns="http://www.w3.org/1999/xhtml">
                  <div>Id <i>afgeschermd (ontbrekend gegeven)</i> (BSN), Tester Anoniem, Man</div>
               </div>
            </text>
            <identifier>
               <system value="http://fhir.nl/fhir/NamingSystem/bsn"/>
               <value>
                  <extension url="http://hl7.org/fhir/StructureDefinition/data-absent-reason">
                     <valueCode value="masked"/>
                  </extension>
               </value>
            </identifier>
            <name>
               <extension url="http://hl7.org/fhir/StructureDefinition/humanname-assembly-order">
                  <valueCode value="UNK"/>
               </extension>
               <family value="Anoniem">
                  <extension url="http://hl7.org/fhir/StructureDefinition/humanname-own-name">
                     <valueString value="Anoniem"/>
                  </extension>
               </family>
               <given value="Tester">
                  <extension url="http://hl7.org/fhir/StructureDefinition/iso21090-EN-qualifier">
                     <valueCode value="BR"/>
                  </extension>
               </given>
            </name>
            <gender value="male"/>
         </Patient>
      </resource>
      <search>
         <mode value="include"/>
      </search>
   </entry>
   <entry>
      <fullUrl value="urn:oid:2.16.840.1.113883.2.4.6.1.1006222"/>
      <resource>
         <Practitioner>
            <meta>
               <profile value="http://fhir.nl/fhir/StructureDefinition/nl-core-practitioner"/>
            </meta>
            <text>
               <status value="generated"/>
               <div xmlns="http://www.w3.org/1999/xhtml">
                  <div>Id 01006222 (AGB-Z), Ch.P.M. Verhoeff</div>
               </div>
            </text>
            <identifier>
               <system value="http://fhir.nl/fhir/NamingSystem/agb-z"/>
               <value value="01006222"/>
            </identifier>
            <name>
               <extension url="http://hl7.org/fhir/StructureDefinition/humanname-assembly-order">
                  <valueCode value="NL1"/>
               </extension>
               <family value="Verhoeff">
                  <extension url="http://hl7.org/fhir/StructureDefinition/humanname-own-name">
                     <valueString value="Verhoeff"/>
                  </extension>
               </family>
               <given value="Ch.P.M.">
                  <extension url="http://hl7.org/fhir/StructureDefinition/iso21090-EN-qualifier">
                     <valueCode value="BR"/>
                  </extension>
               </given>
            </name>
         </Practitioner>
      </resource>
      <search>
         <mode value="include"/>
      </search>
   </entry>
   <entry>
      <fullUrl value="urn:oid:2.16.528.1.1007.3.3.43987"/>
      <resource>
         <Organization>
            <meta>
               <profile value="http://fhir.nl/fhir/StructureDefinition/nl-core-organization"/>
            </meta>
            <text>
               <status value="generated"/>
               <div xmlns="http://www.w3.org/1999/xhtml">
                  <table>
                     <caption>OrganisatieId: 00043987 (URA)</caption>
                     <tbody>
                        <tr>
                           <th>Naam</th>
                           <td>E. van der Wielen - F. Weimer</td>
                        </tr>
                     </tbody>
                  </table>
               </div>
            </text>
            <identifier>
               <system value="http://fhir.nl/fhir/NamingSystem/ura"/>
               <value value="00043987"/>
            </identifier>
            <name value="E. van der Wielen - F. Weimer"/>
         </Organization>
      </resource>
      <search>
         <mode value="include"/>
      </search>
   </entry>
   <entry>
      <fullUrl value="urn:oid:2.16.528.1.1007.3.3.206442"/>
      <resource>
         <Organization>
            <meta>
               <profile value="http://fhir.nl/fhir/StructureDefinition/nl-core-organization"/>
            </meta>
            <text>
               <status value="generated"/>
               <div xmlns="http://www.w3.org/1999/xhtml">
                  <table>
                     <caption>OrganisatieId: 000206442 (URA)</caption>
                     <tbody>
                        <tr>
                           <th>Naam</th>
                           <td>E. van der Wielen - F. Weimer</td>
                        </tr>
                     </tbody>
                  </table>
               </div>
            </text>
            <identifier>
               <system value="http://fhir.nl/fhir/NamingSystem/ura"/>
               <value value="000206442"/>
            </identifier>
            <name value="E. van der Wielen - F. Weimer"/>
         </Organization>
      </resource>
      <search>
         <mode value="include"/>
      </search>
   </entry>
   <entry>
      <fullUrl value="urn:uuid:a14f8d6b-c753-11ea-1021-020000000000"/>
      <resource>
         <PractitionerRole>
            <meta>
               <profile value="http://fhir.nl/fhir/StructureDefinition/nl-core-practitionerrole"/>
            </meta>
            <text>
               <status value="generated"/>
               <div xmlns="http://www.w3.org/1999/xhtml">
                  <table>
                     <caption>Zorgverlenerrol</caption>
                     <tbody>
                        <tr>
                           <th>Zorgverlener</th>
                           <td>
                              <div>Ch.P.M. Verhoeff</div>
                              <div>E. van der Wielen - F. Weimer</div>
                           </td>
                        </tr>
                        <tr>
                           <th>Specialisme</th>
                           <td>01.015 (http://fhir.nl/fhir/NamingSystem/uzi-rolcode)</td>
                        </tr>
                     </tbody>
                  </table>
               </div>
            </text>
            <practitioner>
               <reference value="urn:oid:2.16.840.1.113883.2.4.6.1.1006222"/>
               <display value="Ch.P.M. Verhoeff"/>
            </practitioner>
            <organization>
               <reference value="urn:oid:2.16.528.1.1007.3.3.206442"/>
               <display value="E. van der Wielen - F. Weimer"/>
            </organization>
            <specialty>
               <coding>
                  <system value="http://fhir.nl/fhir/NamingSystem/uzi-rolcode"/>
                  <code value="01.015"/>
               </coding>
            </specialty>
         </PractitionerRole>
      </resource>
      <search>
         <mode value="include"/>
      </search>
   </entry>
   <entry>
      <fullUrl value="urn:uuid:a14f6b9d-c753-11ea-1021-020000000000"/>
      <resource>
         <PractitionerRole>
            <meta>
               <profile value="http://fhir.nl/fhir/StructureDefinition/nl-core-practitionerrole"/>
            </meta>
            <text>
               <status value="generated"/>
               <div xmlns="http://www.w3.org/1999/xhtml">
                  <table>
                     <caption>Zorgverlenerrol</caption>
                     <tbody>
                        <tr>
                           <th>Zorgverlener</th>
                           <td>
                              <div>Ch.P.M. Verhoeff</div>
                              <div>E. van der Wielen - F. Weimer</div>
                           </td>
                        </tr>
                        <tr>
                           <th>Specialisme</th>
                           <td>01.015 (http://fhir.nl/fhir/NamingSystem/uzi-rolcode)</td>
                        </tr>
                     </tbody>
                  </table>
               </div>
            </text>
            <practitioner>
               <reference value="urn:oid:2.16.840.1.113883.2.4.6.1.1006222"/>
               <display value="Ch.P.M. Verhoeff"/>
            </practitioner>
            <organization>
               <reference value="urn:oid:2.16.528.1.1007.3.3.43987"/>
               <display value="E. van der Wielen - F. Weimer"/>
            </organization>
            <specialty>
               <coding>
                  <system value="http://fhir.nl/fhir/NamingSystem/uzi-rolcode"/>
                  <code value="01.015"/>
               </coding>
            </specialty>
         </PractitionerRole>
      </resource>
      <search>
         <mode value="include"/>
      </search>
   </entry>
   <entry>
      <fullUrl value="urn:uuid:a14f8d91-c753-11ea-1021-020000000000"/>
      <resource>
         <Observation>
            <meta>
               <profile value="http://nictiz.nl/fhir/StructureDefinition/gp-JournalEntry"/>
            </meta>
            <text>
               <status value="generated"/>
               <div xmlns="http://www.w3.org/1999/xhtml">
                  <table>
                     <caption>Observatie/bepaling. Subject: Tester Anoniem. Status: definitief</caption>
                     <tbody>
                        <tr>
                           <th>Context</th>
                           <td>Contact ID: ab874b06372b85dc23d396db1660cb89 2.16.528.1.1007.3.3.00043987.418.4 (Id: ab874b06372b85dc23d396db1660cb89 (2.16.528.1.1007.3.3.00043987.418.4))</td>
                        </tr>
                        <tr>
                           <th>Code</th>
                           <th>Waarde</th>
                        </tr>
                        <tr>
                           <td>
                              <span title="Subjectief (S - http://fhir.nl/fhir/NamingSystem/journaalregeltypen)">Subjectief</span>
                           </td>
                           <td> </td>
                        </tr>
                     </tbody>
                  </table>
               </div>
            </text>
            <status value="final"/>
            <code>
               <coding>
                  <system value="http://fhir.nl/fhir/NamingSystem/journaalregeltypen"/>
                  <code value="S"/>
                  <display value="Subjectief"/>
               </coding>
            </code>
            <subject>
               <reference value="urn:uuid:a14f8d50-c753-11ea-1021-020000000000"/>
               <display value="Tester Anoniem"/>
            </subject>
            <context>
               <identifier>
                  <system value="2.16.528.1.1007.3.3.00043987.418.4"/>
                  <value value="ab874b06372b85dc23d396db1660cb89"/>
               </identifier>
               <display value="Contact ID: ab874b06372b85dc23d396db1660cb89 2.16.528.1.1007.3.3.00043987.418.4"/>
            </context>
            <valueString value=" "/>
         </Observation>
      </resource>
      <search>
         <mode value="include"/>
      </search>
   </entry>
   <entry>
      <fullUrl value="urn:uuid:a14f830c-c753-11ea-1021-020000000000"/>
      <resource>
         <Observation>
            <meta>
               <profile value="http://nictiz.nl/fhir/StructureDefinition/gp-JournalEntry"/>
            </meta>
            <text>
               <status value="generated"/>
               <div xmlns="http://www.w3.org/1999/xhtml">
                  <table>
                     <caption>Observatie/bepaling. Subject: Tester Anoniem. Status: definitief</caption>
                     <tbody>
                        <tr>
                           <th>Context</th>
                           <td>Contact ID: ab874b06372b85dc23d396db1660cb89 2.16.528.1.1007.3.3.00043987.418.4 (Id: ab874b06372b85dc23d396db1660cb89 (2.16.528.1.1007.3.3.00043987.418.4))</td>
                        </tr>
                        <tr>
                           <th>Code</th>
                           <th>Waarde</th>
                        </tr>
                        <tr>
                           <td>
                              <span title="Plan (P - http://fhir.nl/fhir/NamingSystem/journaalregeltypen)">Plan</span>
                           </td>
                           <td> </td>
                        </tr>
                     </tbody>
                  </table>
               </div>
            </text>
            <status value="final"/>
            <code>
               <coding>
                  <system value="http://fhir.nl/fhir/NamingSystem/journaalregeltypen"/>
                  <code value="P"/>
                  <display value="Plan"/>
               </coding>
            </code>
            <subject>
               <reference value="urn:uuid:a14f8d50-c753-11ea-1021-020000000000"/>
               <display value="Tester Anoniem"/>
            </subject>
            <context>
               <identifier>
                  <system value="2.16.528.1.1007.3.3.00043987.418.4"/>
                  <value value="ab874b06372b85dc23d396db1660cb89"/>
               </identifier>
               <display value="Contact ID: ab874b06372b85dc23d396db1660cb89 2.16.528.1.1007.3.3.00043987.418.4"/>
            </context>
            <valueString value=" "/>
         </Observation>
      </resource>
      <search>
         <mode value="include"/>
      </search>
   </entry>
   <entry>
      <fullUrl value="urn:uuid:a14f8314-c753-11ea-1021-020000000000"/>
      <resource>
         <Observation>
            <meta>
               <profile value="http://nictiz.nl/fhir/StructureDefinition/gp-JournalEntry"/>
            </meta>
            <text>
               <status value="generated"/>
               <div xmlns="http://www.w3.org/1999/xhtml">
                  <table>
                     <caption>Observatie/bepaling. Subject: Tester Anoniem. Status: definitief</caption>
                     <tbody>
                        <tr>
                           <th>Context</th>
                           <td>Contact ID: ab874b06372b85dc23d396db1660cb89 2.16.528.1.1007.3.3.00043987.418.4 (Id: ab874b06372b85dc23d396db1660cb89 (2.16.528.1.1007.3.3.00043987.418.4))</td>
                        </tr>
                        <tr>
                           <th>Code</th>
                           <th>Waarde</th>
                        </tr>
                        <tr>
                           <td>
                              <span title="Evaluatie (E - http://fhir.nl/fhir/NamingSystem/journaalregeltypen)">Evaluatie</span>
                           </td>
                           <td>Diabetes mellitus</td>
                        </tr>
                        <tr>
                           <td>
                              <span title="discharge diagnosis (DISDX - v3/ActCode)">discharge diagnosis</span>
                           </td>
                           <td>
                              <span title="Diabetes mellitus (T90.02 - sid/icpc-1-nl)">Diabetes mellitus</span>
                           </td>
                        </tr>
                     </tbody>
                  </table>
               </div>
            </text>
            <status value="final"/>
            <code>
               <coding>
                  <system value="http://fhir.nl/fhir/NamingSystem/journaalregeltypen"/>
                  <code value="E"/>
                  <display value="Evaluatie"/>
               </coding>
            </code>
            <subject>
               <reference value="urn:uuid:a14f8d50-c753-11ea-1021-020000000000"/>
               <display value="Tester Anoniem"/>
            </subject>
            <context>
               <identifier>
                  <system value="2.16.528.1.1007.3.3.00043987.418.4"/>
                  <value value="ab874b06372b85dc23d396db1660cb89"/>
               </identifier>
               <display value="Contact ID: ab874b06372b85dc23d396db1660cb89 2.16.528.1.1007.3.3.00043987.418.4"/>
            </context>
            <valueString value="Diabetes mellitus"/>
            <component>
               <code>
                  <coding>
                     <system value="http://hl7.org/fhir/v3/ActCode"/>
                     <code value="DISDX"/>
                     <display value="discharge diagnosis"/>
                  </coding>
               </code>
               <valueCodeableConcept>
                  <coding>
                     <system value="http://hl7.org/fhir/sid/icpc-1-nl"/>
                     <code value="T90.02"/>
                     <display value="Diabetes mellitus"/>
                  </coding>
               </valueCodeableConcept>
            </component>
         </Observation>
      </resource>
      <search>
         <mode value="include"/>
      </search>
   </entry>
   <entry>
      <fullUrl value="urn:uuid:a14f8367-c753-11ea-1021-020000000000"/>
      <resource>
         <Observation>
            <meta>
               <profile value="http://nictiz.nl/fhir/StructureDefinition/gp-JournalEntry"/>
            </meta>
            <text>
               <status value="generated"/>
               <div xmlns="http://www.w3.org/1999/xhtml">
                  <table>
                     <caption>Observatie/bepaling. Subject: Tester Anoniem. Status: definitief</caption>
                     <tbody>
                        <tr>
                           <th>Context</th>
                           <td>Contact ID: 5dff5059c563fdb55023709f7b01dd62 2.16.528.1.1007.3.3.00043987.418.4 (Id: 5dff5059c563fdb55023709f7b01dd62 (2.16.528.1.1007.3.3.00043987.418.4))</td>
                        </tr>
                        <tr>
                           <th>Code</th>
                           <th>Waarde</th>
                        </tr>
                        <tr>
                           <td>
                              <span title="Objectief (O - http://fhir.nl/fhir/NamingSystem/journaalregeltypen)">Objectief</span>
                           </td>
                           <td> </td>
                        </tr>
                     </tbody>
                  </table>
               </div>
            </text>
            <status value="final"/>
            <code>
               <coding>
                  <system value="http://fhir.nl/fhir/NamingSystem/journaalregeltypen"/>
                  <code value="O"/>
                  <display value="Objectief"/>
               </coding>
            </code>
            <subject>
               <reference value="urn:uuid:a14f8d50-c753-11ea-1021-020000000000"/>
               <display value="Tester Anoniem"/>
            </subject>
            <context>
               <identifier>
                  <system value="2.16.528.1.1007.3.3.00043987.418.4"/>
                  <value value="5dff5059c563fdb55023709f7b01dd62"/>
               </identifier>
               <display value="Contact ID: 5dff5059c563fdb55023709f7b01dd62 2.16.528.1.1007.3.3.00043987.418.4"/>
            </context>
            <valueString value=" "/>
         </Observation>
      </resource>
      <search>
         <mode value="include"/>
      </search>
   </entry>
   <entry>
      <fullUrl value="urn:uuid:a14f8375-c753-11ea-1021-020000000000"/>
      <resource>
         <Observation>
            <meta>
               <profile value="http://nictiz.nl/fhir/StructureDefinition/gp-JournalEntry"/>
            </meta>
            <text>
               <status value="generated"/>
               <div xmlns="http://www.w3.org/1999/xhtml">
                  <table>
                     <caption>Observatie/bepaling. Subject: Tester Anoniem. Status: definitief</caption>
                     <tbody>
                        <tr>
                           <th>Context</th>
                           <td>Contact ID: 5dff5059c563fdb55023709f7b01dd62 2.16.528.1.1007.3.3.00043987.418.4 (Id: 5dff5059c563fdb55023709f7b01dd62 (2.16.528.1.1007.3.3.00043987.418.4))</td>
                        </tr>
                        <tr>
                           <th>Code</th>
                           <th>Waarde</th>
                        </tr>
                        <tr>
                           <td>
                              <span title="Evaluatie (E - http://fhir.nl/fhir/NamingSystem/journaalregeltypen)">Evaluatie</span>
                           </td>
                           <td>Diabetes mellitus</td>
                        </tr>
                        <tr>
                           <td>
                              <span title="discharge diagnosis (DISDX - v3/ActCode)">discharge diagnosis</span>
                           </td>
                           <td>
                              <span title="Diabetes mellitus (T90.02 - sid/icpc-1-nl)">Diabetes mellitus</span>
                           </td>
                        </tr>
                     </tbody>
                  </table>
               </div>
            </text>
            <status value="final"/>
            <code>
               <coding>
                  <system value="http://fhir.nl/fhir/NamingSystem/journaalregeltypen"/>
                  <code value="E"/>
                  <display value="Evaluatie"/>
               </coding>
            </code>
            <subject>
               <reference value="urn:uuid:a14f8d50-c753-11ea-1021-020000000000"/>
               <display value="Tester Anoniem"/>
            </subject>
            <context>
               <identifier>
                  <system value="2.16.528.1.1007.3.3.00043987.418.4"/>
                  <value value="5dff5059c563fdb55023709f7b01dd62"/>
               </identifier>
               <display value="Contact ID: 5dff5059c563fdb55023709f7b01dd62 2.16.528.1.1007.3.3.00043987.418.4"/>
            </context>
            <valueString value="Diabetes mellitus"/>
            <component>
               <code>
                  <coding>
                     <system value="http://hl7.org/fhir/v3/ActCode"/>
                     <code value="DISDX"/>
                     <display value="discharge diagnosis"/>
                  </coding>
               </code>
               <valueCodeableConcept>
                  <coding>
                     <system value="http://hl7.org/fhir/sid/icpc-1-nl"/>
                     <code value="T90.02"/>
                     <display value="Diabetes mellitus"/>
                  </coding>
               </valueCodeableConcept>
            </component>
         </Observation>
      </resource>
      <search>
         <mode value="include"/>
      </search>
   </entry>
   <entry>
      <fullUrl value="urn:uuid:a14f83cf-c753-11ea-1021-020000000000"/>
      <resource>
         <Observation>
            <meta>
               <profile value="http://nictiz.nl/fhir/StructureDefinition/gp-JournalEntry"/>
            </meta>
            <text>
               <status value="generated"/>
               <div xmlns="http://www.w3.org/1999/xhtml">
                  <table>
                     <caption>Observatie/bepaling. Subject: Tester Anoniem. Status: definitief</caption>
                     <tbody>
                        <tr>
                           <th>Context</th>
                           <td>Contact ID: b7d32ae5d9f735c6a15841f6ec9d5f99 2.16.528.1.1007.3.3.00043987.418.4 (Id: b7d32ae5d9f735c6a15841f6ec9d5f99 (2.16.528.1.1007.3.3.00043987.418.4))</td>
                        </tr>
                        <tr>
                           <th>Code</th>
                           <th>Waarde</th>
                        </tr>
                        <tr>
                           <td>
                              <span title="Evaluatie (E - http://fhir.nl/fhir/NamingSystem/journaalregeltypen)">Evaluatie</span>
                           </td>
                           <td> </td>
                        </tr>
                        <tr>
                           <td>
                              <span title="discharge diagnosis (DISDX - v3/ActCode)">discharge diagnosis</span>
                           </td>
                           <td>
                              <span title="Diabetes mellitus (T90.02 - sid/icpc-1-nl)">Diabetes mellitus</span>
                           </td>
                        </tr>
                     </tbody>
                  </table>
               </div>
            </text>
            <status value="final"/>
            <code>
               <coding>
                  <system value="http://fhir.nl/fhir/NamingSystem/journaalregeltypen"/>
                  <code value="E"/>
                  <display value="Evaluatie"/>
               </coding>
            </code>
            <subject>
               <reference value="urn:uuid:a14f8d50-c753-11ea-1021-020000000000"/>
               <display value="Tester Anoniem"/>
            </subject>
            <context>
               <identifier>
                  <system value="2.16.528.1.1007.3.3.00043987.418.4"/>
                  <value value="b7d32ae5d9f735c6a15841f6ec9d5f99"/>
               </identifier>
               <display value="Contact ID: b7d32ae5d9f735c6a15841f6ec9d5f99 2.16.528.1.1007.3.3.00043987.418.4"/>
            </context>
            <valueString value=" "/>
            <component>
               <code>
                  <coding>
                     <system value="http://hl7.org/fhir/v3/ActCode"/>
                     <code value="DISDX"/>
                     <display value="discharge diagnosis"/>
                  </coding>
               </code>
               <valueCodeableConcept>
                  <coding>
                     <system value="http://hl7.org/fhir/sid/icpc-1-nl"/>
                     <code value="T90.02"/>
                     <display value="Diabetes mellitus"/>
                  </coding>
               </valueCodeableConcept>
            </component>
         </Observation>
      </resource>
      <search>
         <mode value="include"/>
      </search>
   </entry>
   <entry>
      <fullUrl value="urn:uuid:a14f8421-c753-11ea-1021-020000000000"/>
      <resource>
         <Observation>
            <meta>
               <profile value="http://nictiz.nl/fhir/StructureDefinition/gp-JournalEntry"/>
            </meta>
            <text>
               <status value="generated"/>
               <div xmlns="http://www.w3.org/1999/xhtml">
                  <table>
                     <caption>Observatie/bepaling. Subject: Tester Anoniem. Status: definitief</caption>
                     <tbody>
                        <tr>
                           <th>Context</th>
                           <td>Contact ID: 8630606bd1f8c4b329ef64fba042a77a 2.16.528.1.1007.3.3.00043987.418.4 (Id: 8630606bd1f8c4b329ef64fba042a77a (2.16.528.1.1007.3.3.00043987.418.4))</td>
                        </tr>
                        <tr>
                           <th>Code</th>
                           <th>Waarde</th>
                        </tr>
                        <tr>
                           <td>
                              <span title="Evaluatie (E - http://fhir.nl/fhir/NamingSystem/journaalregeltypen)">Evaluatie</span>
                           </td>
                           <td>Diabetes mellitus</td>
                        </tr>
                        <tr>
                           <td>
                              <span title="discharge diagnosis (DISDX - v3/ActCode)">discharge diagnosis</span>
                           </td>
                           <td>
                              <span title="Diabetes mellitus (T90.02 - sid/icpc-1-nl)">Diabetes mellitus</span>
                           </td>
                        </tr>
                     </tbody>
                  </table>
               </div>
            </text>
            <status value="final"/>
            <code>
               <coding>
                  <system value="http://fhir.nl/fhir/NamingSystem/journaalregeltypen"/>
                  <code value="E"/>
                  <display value="Evaluatie"/>
               </coding>
            </code>
            <subject>
               <reference value="urn:uuid:a14f8d50-c753-11ea-1021-020000000000"/>
               <display value="Tester Anoniem"/>
            </subject>
            <context>
               <identifier>
                  <system value="2.16.528.1.1007.3.3.00043987.418.4"/>
                  <value value="8630606bd1f8c4b329ef64fba042a77a"/>
               </identifier>
               <display value="Contact ID: 8630606bd1f8c4b329ef64fba042a77a 2.16.528.1.1007.3.3.00043987.418.4"/>
            </context>
            <valueString value="Diabetes mellitus"/>
            <component>
               <code>
                  <coding>
                     <system value="http://hl7.org/fhir/v3/ActCode"/>
                     <code value="DISDX"/>
                     <display value="discharge diagnosis"/>
                  </coding>
               </code>
               <valueCodeableConcept>
                  <coding>
                     <system value="http://hl7.org/fhir/sid/icpc-1-nl"/>
                     <code value="T90.02"/>
                     <display value="Diabetes mellitus"/>
                  </coding>
               </valueCodeableConcept>
            </component>
         </Observation>
      </resource>
      <search>
         <mode value="include"/>
      </search>
   </entry>
   <entry>
      <fullUrl value="urn:uuid:a14f8475-c753-11ea-1021-020000000000"/>
      <resource>
         <Observation>
            <meta>
               <profile value="http://nictiz.nl/fhir/StructureDefinition/gp-JournalEntry"/>
            </meta>
            <text>
               <status value="generated"/>
               <div xmlns="http://www.w3.org/1999/xhtml">
                  <table>
                     <caption>Observatie/bepaling. Subject: Tester Anoniem. Status: definitief</caption>
                     <tbody>
                        <tr>
                           <th>Context</th>
                           <td>Contact ID: 0463b8905f57ee3d787b3f1bc26d5d6f 2.16.528.1.1007.3.3.00043987.418.4 (Id: 0463b8905f57ee3d787b3f1bc26d5d6f (2.16.528.1.1007.3.3.00043987.418.4))</td>
                        </tr>
                        <tr>
                           <th>Code</th>
                           <th>Waarde</th>
                        </tr>
                        <tr>
                           <td>
                              <span title="Evaluatie (E - http://fhir.nl/fhir/NamingSystem/journaalregeltypen)">Evaluatie</span>
                           </td>
                           <td>Diabetes mellitus</td>
                        </tr>
                        <tr>
                           <td>
                              <span title="discharge diagnosis (DISDX - v3/ActCode)">discharge diagnosis</span>
                           </td>
                           <td>
                              <span title="Diabetes mellitus (T90.02 - sid/icpc-1-nl)">Diabetes mellitus</span>
                           </td>
                        </tr>
                     </tbody>
                  </table>
               </div>
            </text>
            <status value="final"/>
            <code>
               <coding>
                  <system value="http://fhir.nl/fhir/NamingSystem/journaalregeltypen"/>
                  <code value="E"/>
                  <display value="Evaluatie"/>
               </coding>
            </code>
            <subject>
               <reference value="urn:uuid:a14f8d50-c753-11ea-1021-020000000000"/>
               <display value="Tester Anoniem"/>
            </subject>
            <context>
               <identifier>
                  <system value="2.16.528.1.1007.3.3.00043987.418.4"/>
                  <value value="0463b8905f57ee3d787b3f1bc26d5d6f"/>
               </identifier>
               <display value="Contact ID: 0463b8905f57ee3d787b3f1bc26d5d6f 2.16.528.1.1007.3.3.00043987.418.4"/>
            </context>
            <valueString value="Diabetes mellitus"/>
            <component>
               <code>
                  <coding>
                     <system value="http://hl7.org/fhir/v3/ActCode"/>
                     <code value="DISDX"/>
                     <display value="discharge diagnosis"/>
                  </coding>
               </code>
               <valueCodeableConcept>
                  <coding>
                     <system value="http://hl7.org/fhir/sid/icpc-1-nl"/>
                     <code value="T90.02"/>
                     <display value="Diabetes mellitus"/>
                  </coding>
               </valueCodeableConcept>
            </component>
         </Observation>
      </resource>
      <search>
         <mode value="include"/>
      </search>
   </entry>
   <entry>
      <fullUrl value="urn:uuid:a14f84c8-c753-11ea-1021-020000000000"/>
      <resource>
         <Observation>
            <meta>
               <profile value="http://nictiz.nl/fhir/StructureDefinition/gp-JournalEntry"/>
            </meta>
            <text>
               <status value="generated"/>
               <div xmlns="http://www.w3.org/1999/xhtml">
                  <table>
                     <caption>Observatie/bepaling. Subject: Tester Anoniem. Status: definitief</caption>
                     <tbody>
                        <tr>
                           <th>Context</th>
                           <td>Contact ID: fed6fea050fce8ec34aaa4c30d64bf1f 2.16.528.1.1007.3.3.00043987.418.4 (Id: fed6fea050fce8ec34aaa4c30d64bf1f (2.16.528.1.1007.3.3.00043987.418.4))</td>
                        </tr>
                        <tr>
                           <th>Code</th>
                           <th>Waarde</th>
                        </tr>
                        <tr>
                           <td>
                              <span title="Evaluatie (E - http://fhir.nl/fhir/NamingSystem/journaalregeltypen)">Evaluatie</span>
                           </td>
                           <td>Diabetes mellitus</td>
                        </tr>
                        <tr>
                           <td>
                              <span title="discharge diagnosis (DISDX - v3/ActCode)">discharge diagnosis</span>
                           </td>
                           <td>
                              <span title="Diabetes mellitus (T90.02 - sid/icpc-1-nl)">Diabetes mellitus</span>
                           </td>
                        </tr>
                     </tbody>
                  </table>
               </div>
            </text>
            <status value="final"/>
            <code>
               <coding>
                  <system value="http://fhir.nl/fhir/NamingSystem/journaalregeltypen"/>
                  <code value="E"/>
                  <display value="Evaluatie"/>
               </coding>
            </code>
            <subject>
               <reference value="urn:uuid:a14f8d50-c753-11ea-1021-020000000000"/>
               <display value="Tester Anoniem"/>
            </subject>
            <context>
               <identifier>
                  <system value="2.16.528.1.1007.3.3.00043987.418.4"/>
                  <value value="fed6fea050fce8ec34aaa4c30d64bf1f"/>
               </identifier>
               <display value="Contact ID: fed6fea050fce8ec34aaa4c30d64bf1f 2.16.528.1.1007.3.3.00043987.418.4"/>
            </context>
            <valueString value="Diabetes mellitus"/>
            <component>
               <code>
                  <coding>
                     <system value="http://hl7.org/fhir/v3/ActCode"/>
                     <code value="DISDX"/>
                     <display value="discharge diagnosis"/>
                  </coding>
               </code>
               <valueCodeableConcept>
                  <coding>
                     <system value="http://hl7.org/fhir/sid/icpc-1-nl"/>
                     <code value="T90.02"/>
                     <display value="Diabetes mellitus"/>
                  </coding>
               </valueCodeableConcept>
            </component>
         </Observation>
      </resource>
      <search>
         <mode value="include"/>
      </search>
   </entry>
   <entry>
      <fullUrl value="urn:uuid:a14f8529-c753-11ea-1021-020000000000"/>
      <resource>
         <Observation>
            <meta>
               <profile value="http://nictiz.nl/fhir/StructureDefinition/gp-JournalEntry"/>
            </meta>
            <text>
               <status value="generated"/>
               <div xmlns="http://www.w3.org/1999/xhtml">
                  <table>
                     <caption>Observatie/bepaling. Subject: Tester Anoniem. Status: definitief</caption>
                     <tbody>
                        <tr>
                           <th>Context</th>
                           <td>Contact ID: de83cc0d983587d1fd16c4a18731b0bf 2.16.528.1.1007.3.3.00043987.418.4 (Id: de83cc0d983587d1fd16c4a18731b0bf (2.16.528.1.1007.3.3.00043987.418.4))</td>
                        </tr>
                        <tr>
                           <th>Code</th>
                           <th>Waarde</th>
                        </tr>
                        <tr>
                           <td>
                              <span title="Evaluatie (E - http://fhir.nl/fhir/NamingSystem/journaalregeltypen)">Evaluatie</span>
                           </td>
                           <td>Diabetes mellitus</td>
                        </tr>
                        <tr>
                           <td>
                              <span title="discharge diagnosis (DISDX - v3/ActCode)">discharge diagnosis</span>
                           </td>
                           <td>
                              <span title="Diabetes mellitus (T90.02 - sid/icpc-1-nl)">Diabetes mellitus</span>
                           </td>
                        </tr>
                     </tbody>
                  </table>
               </div>
            </text>
            <status value="final"/>
            <code>
               <coding>
                  <system value="http://fhir.nl/fhir/NamingSystem/journaalregeltypen"/>
                  <code value="E"/>
                  <display value="Evaluatie"/>
               </coding>
            </code>
            <subject>
               <reference value="urn:uuid:a14f8d50-c753-11ea-1021-020000000000"/>
               <display value="Tester Anoniem"/>
            </subject>
            <context>
               <identifier>
                  <system value="2.16.528.1.1007.3.3.00043987.418.4"/>
                  <value value="de83cc0d983587d1fd16c4a18731b0bf"/>
               </identifier>
               <display value="Contact ID: de83cc0d983587d1fd16c4a18731b0bf 2.16.528.1.1007.3.3.00043987.418.4"/>
            </context>
            <valueString value="Diabetes mellitus"/>
            <component>
               <code>
                  <coding>
                     <system value="http://hl7.org/fhir/v3/ActCode"/>
                     <code value="DISDX"/>
                     <display value="discharge diagnosis"/>
                  </coding>
               </code>
               <valueCodeableConcept>
                  <coding>
                     <system value="http://hl7.org/fhir/sid/icpc-1-nl"/>
                     <code value="T90.02"/>
                     <display value="Diabetes mellitus"/>
                  </coding>
               </valueCodeableConcept>
            </component>
         </Observation>
      </resource>
      <search>
         <mode value="include"/>
      </search>
   </entry>
   <entry>
      <fullUrl value="urn:uuid:a14f857c-c753-11ea-1021-020000000000"/>
      <resource>
         <Observation>
            <meta>
               <profile value="http://nictiz.nl/fhir/StructureDefinition/gp-JournalEntry"/>
            </meta>
            <text>
               <status value="generated"/>
               <div xmlns="http://www.w3.org/1999/xhtml">
                  <table>
                     <caption>Observatie/bepaling. Subject: Tester Anoniem. Status: definitief</caption>
                     <tbody>
                        <tr>
                           <th>Context</th>
                           <td>Contact ID: 24cd25b11aabdcdd3cfa7a63505feb21 2.16.528.1.1007.3.3.00043987.418.4 (Id: 24cd25b11aabdcdd3cfa7a63505feb21 (2.16.528.1.1007.3.3.00043987.418.4))</td>
                        </tr>
                        <tr>
                           <th>Code</th>
                           <th>Waarde</th>
                        </tr>
                        <tr>
                           <td>
                              <span title="Evaluatie (E - http://fhir.nl/fhir/NamingSystem/journaalregeltypen)">Evaluatie</span>
                           </td>
                           <td>Diabetes mellitus</td>
                        </tr>
                        <tr>
                           <td>
                              <span title="discharge diagnosis (DISDX - v3/ActCode)">discharge diagnosis</span>
                           </td>
                           <td>
                              <span title="Diabetes mellitus (T90.02 - sid/icpc-1-nl)">Diabetes mellitus</span>
                           </td>
                        </tr>
                     </tbody>
                  </table>
               </div>
            </text>
            <status value="final"/>
            <code>
               <coding>
                  <system value="http://fhir.nl/fhir/NamingSystem/journaalregeltypen"/>
                  <code value="E"/>
                  <display value="Evaluatie"/>
               </coding>
            </code>
            <subject>
               <reference value="urn:uuid:a14f8d50-c753-11ea-1021-020000000000"/>
               <display value="Tester Anoniem"/>
            </subject>
            <context>
               <identifier>
                  <system value="2.16.528.1.1007.3.3.00043987.418.4"/>
                  <value value="24cd25b11aabdcdd3cfa7a63505feb21"/>
               </identifier>
               <display value="Contact ID: 24cd25b11aabdcdd3cfa7a63505feb21 2.16.528.1.1007.3.3.00043987.418.4"/>
            </context>
            <valueString value="Diabetes mellitus"/>
            <component>
               <code>
                  <coding>
                     <system value="http://hl7.org/fhir/v3/ActCode"/>
                     <code value="DISDX"/>
                     <display value="discharge diagnosis"/>
                  </coding>
               </code>
               <valueCodeableConcept>
                  <coding>
                     <system value="http://hl7.org/fhir/sid/icpc-1-nl"/>
                     <code value="T90.02"/>
                     <display value="Diabetes mellitus"/>
                  </coding>
               </valueCodeableConcept>
            </component>
         </Observation>
      </resource>
      <search>
         <mode value="include"/>
      </search>
   </entry>
   <entry>
      <fullUrl value="urn:uuid:a14f85c7-c753-11ea-1021-020000000000"/>
      <resource>
         <Observation>
            <meta>
               <profile value="http://nictiz.nl/fhir/StructureDefinition/gp-JournalEntry"/>
            </meta>
            <text>
               <status value="generated"/>
               <div xmlns="http://www.w3.org/1999/xhtml">
                  <table>
                     <caption>Observatie/bepaling. Subject: Tester Anoniem. Status: definitief</caption>
                     <tbody>
                        <tr>
                           <th>Context</th>
                           <td>Contact ID: 0463b8905f57ee3d787b3f1bc26d5d6f 2.16.528.1.1007.3.3.00043987.418.4 (Id: 0463b8905f57ee3d787b3f1bc26d5d6f (2.16.528.1.1007.3.3.00043987.418.4))</td>
                        </tr>
                        <tr>
                           <th>Code</th>
                           <th>Waarde</th>
                        </tr>
                        <tr>
                           <td>
                              <span title="Evaluatie (E - http://fhir.nl/fhir/NamingSystem/journaalregeltypen)">Evaluatie</span>
                           </td>
                           <td>Geheugen; achteruitgang</td>
                        </tr>
                        <tr>
                           <td>
                              <span title="discharge diagnosis (DISDX - v3/ActCode)">discharge diagnosis</span>
                           </td>
                           <td>
                              <span title="Geheugen; achteruitgang (P20 - sid/icpc-1-nl)">Geheugen; achteruitgang</span>
                           </td>
                        </tr>
                     </tbody>
                  </table>
               </div>
            </text>
            <status value="final"/>
            <code>
               <coding>
                  <system value="http://fhir.nl/fhir/NamingSystem/journaalregeltypen"/>
                  <code value="E"/>
                  <display value="Evaluatie"/>
               </coding>
            </code>
            <subject>
               <reference value="urn:uuid:a14f8d50-c753-11ea-1021-020000000000"/>
               <display value="Tester Anoniem"/>
            </subject>
            <context>
               <identifier>
                  <system value="2.16.528.1.1007.3.3.00043987.418.4"/>
                  <value value="0463b8905f57ee3d787b3f1bc26d5d6f"/>
               </identifier>
               <display value="Contact ID: 0463b8905f57ee3d787b3f1bc26d5d6f 2.16.528.1.1007.3.3.00043987.418.4"/>
            </context>
            <valueString value="Geheugen; achteruitgang"/>
            <component>
               <code>
                  <coding>
                     <system value="http://hl7.org/fhir/v3/ActCode"/>
                     <code value="DISDX"/>
                     <display value="discharge diagnosis"/>
                  </coding>
               </code>
               <valueCodeableConcept>
                  <coding>
                     <system value="http://hl7.org/fhir/sid/icpc-1-nl"/>
                     <code value="P20"/>
                     <display value="Geheugen; achteruitgang"/>
                  </coding>
               </valueCodeableConcept>
            </component>
         </Observation>
      </resource>
      <search>
         <mode value="include"/>
      </search>
   </entry>
   <entry>
      <fullUrl value="urn:uuid:a14f860b-c753-11ea-1021-020000000000"/>
      <resource>
         <Observation>
            <meta>
               <profile value="http://nictiz.nl/fhir/StructureDefinition/gp-JournalEntry"/>
            </meta>
            <text>
               <status value="generated"/>
               <div xmlns="http://www.w3.org/1999/xhtml">
                  <table>
                     <caption>Observatie/bepaling. Subject: Tester Anoniem. Status: definitief</caption>
                     <tbody>
                        <tr>
                           <th>Context</th>
                           <td>Contact ID: 0463b8905f57ee3d787b3f1bc26d5d6f 2.16.528.1.1007.3.3.00043987.418.4 (Id: 0463b8905f57ee3d787b3f1bc26d5d6f (2.16.528.1.1007.3.3.00043987.418.4))</td>
                        </tr>
                        <tr>
                           <th>Code</th>
                           <th>Waarde</th>
                        </tr>
                        <tr>
                           <td>
                              <span title="Evaluatie (E - http://fhir.nl/fhir/NamingSystem/journaalregeltypen)">Evaluatie</span>
                           </td>
                           <td>Essentiële (primaire) hypertensie</td>
                        </tr>
                        <tr>
                           <td>
                              <span title="discharge diagnosis (DISDX - v3/ActCode)">discharge diagnosis</span>
                           </td>
                           <td>
                              <span title="Essentiële (primaire) hypertensie (K86 - sid/icpc-1-nl)">Essentiële (primaire) hypertensie</span>
                           </td>
                        </tr>
                     </tbody>
                  </table>
               </div>
            </text>
            <status value="final"/>
            <code>
               <coding>
                  <system value="http://fhir.nl/fhir/NamingSystem/journaalregeltypen"/>
                  <code value="E"/>
                  <display value="Evaluatie"/>
               </coding>
            </code>
            <subject>
               <reference value="urn:uuid:a14f8d50-c753-11ea-1021-020000000000"/>
               <display value="Tester Anoniem"/>
            </subject>
            <context>
               <identifier>
                  <system value="2.16.528.1.1007.3.3.00043987.418.4"/>
                  <value value="0463b8905f57ee3d787b3f1bc26d5d6f"/>
               </identifier>
               <display value="Contact ID: 0463b8905f57ee3d787b3f1bc26d5d6f 2.16.528.1.1007.3.3.00043987.418.4"/>
            </context>
            <valueString value="Essentiële (primaire) hypertensie"/>
            <component>
               <code>
                  <coding>
                     <system value="http://hl7.org/fhir/v3/ActCode"/>
                     <code value="DISDX"/>
                     <display value="discharge diagnosis"/>
                  </coding>
               </code>
               <valueCodeableConcept>
                  <coding>
                     <system value="http://hl7.org/fhir/sid/icpc-1-nl"/>
                     <code value="K86"/>
                     <display value="Essentiële (primaire) hypertensie"/>
                  </coding>
               </valueCodeableConcept>
            </component>
         </Observation>
      </resource>
      <search>
         <mode value="include"/>
      </search>
   </entry>
   <entry>
      <fullUrl value="urn:uuid:a14f8650-c753-11ea-1021-020000000000"/>
      <resource>
         <Observation>
            <meta>
               <profile value="http://nictiz.nl/fhir/StructureDefinition/gp-JournalEntry"/>
            </meta>
            <text>
               <status value="generated"/>
               <div xmlns="http://www.w3.org/1999/xhtml">
                  <table>
                     <caption>Observatie/bepaling. Subject: Tester Anoniem. Status: definitief</caption>
                     <tbody>
                        <tr>
                           <th>Context</th>
                           <td>Contact ID: 24cd25b11aabdcdd3cfa7a63505feb21 2.16.528.1.1007.3.3.00043987.418.4 (Id: 24cd25b11aabdcdd3cfa7a63505feb21 (2.16.528.1.1007.3.3.00043987.418.4))</td>
                        </tr>
                        <tr>
                           <th>Code</th>
                           <th>Waarde</th>
                        </tr>
                        <tr>
                           <td>
                              <span title="Evaluatie (E - http://fhir.nl/fhir/NamingSystem/journaalregeltypen)">Evaluatie</span>
                           </td>
                           <td>Essentiële (primaire) hypertensie</td>
                        </tr>
                        <tr>
                           <td>
                              <span title="discharge diagnosis (DISDX - v3/ActCode)">discharge diagnosis</span>
                           </td>
                           <td>
                              <span title="Essentiële (primaire) hypertensie (K86 - sid/icpc-1-nl)">Essentiële (primaire) hypertensie</span>
                           </td>
                        </tr>
                     </tbody>
                  </table>
               </div>
            </text>
            <status value="final"/>
            <code>
               <coding>
                  <system value="http://fhir.nl/fhir/NamingSystem/journaalregeltypen"/>
                  <code value="E"/>
                  <display value="Evaluatie"/>
               </coding>
            </code>
            <subject>
               <reference value="urn:uuid:a14f8d50-c753-11ea-1021-020000000000"/>
               <display value="Tester Anoniem"/>
            </subject>
            <context>
               <identifier>
                  <system value="2.16.528.1.1007.3.3.00043987.418.4"/>
                  <value value="24cd25b11aabdcdd3cfa7a63505feb21"/>
               </identifier>
               <display value="Contact ID: 24cd25b11aabdcdd3cfa7a63505feb21 2.16.528.1.1007.3.3.00043987.418.4"/>
            </context>
            <valueString value="Essentiële (primaire) hypertensie"/>
            <component>
               <code>
                  <coding>
                     <system value="http://hl7.org/fhir/v3/ActCode"/>
                     <code value="DISDX"/>
                     <display value="discharge diagnosis"/>
                  </coding>
               </code>
               <valueCodeableConcept>
                  <coding>
                     <system value="http://hl7.org/fhir/sid/icpc-1-nl"/>
                     <code value="K86"/>
                     <display value="Essentiële (primaire) hypertensie"/>
                  </coding>
               </valueCodeableConcept>
            </component>
         </Observation>
      </resource>
      <search>
         <mode value="include"/>
      </search>
   </entry>
   <entry>
      <fullUrl value="urn:uuid:a14f6b3c-c753-11ea-1021-020000000000"/>
      <resource>
         <Observation>
            <meta>
               <profile value="http://nictiz.nl/fhir/StructureDefinition/gp-JournalEntry"/>
            </meta>
            <text>
               <status value="generated"/>
               <div xmlns="http://www.w3.org/1999/xhtml">
                  <table>
                     <caption>Observatie/bepaling. Subject: Tester Anoniem. Status: definitief</caption>
                     <tbody>
                        <tr>
                           <th>Context</th>
                           <td>Contact ID: be282e7194bcdb015df6300cad511e17 2.16.528.1.1007.3.3.00043987.418.4 (Id: be282e7194bcdb015df6300cad511e17 (2.16.528.1.1007.3.3.00043987.418.4))</td>
                        </tr>
                        <tr>
                           <th>Code</th>
                           <th>Waarde</th>
                        </tr>
                        <tr>
                           <td>
                              <span title="Subjectief (S - http://fhir.nl/fhir/NamingSystem/journaalregeltypen)">Subjectief</span>
                           </td>
                           <td>bij hoesten pijn, heeft in de tuin gewerkt</td>
                        </tr>
                     </tbody>
                  </table>
               </div>
            </text>
            <status value="final"/>
            <code>
               <coding>
                  <system value="http://fhir.nl/fhir/NamingSystem/journaalregeltypen"/>
                  <code value="S"/>
                  <display value="Subjectief"/>
               </coding>
            </code>
            <subject>
               <reference value="urn:uuid:a14f8d50-c753-11ea-1021-020000000000"/>
               <display value="Tester Anoniem"/>
            </subject>
            <context>
               <identifier>
                  <system value="2.16.528.1.1007.3.3.00043987.418.4"/>
                  <value value="be282e7194bcdb015df6300cad511e17"/>
               </identifier>
               <display value="Contact ID: be282e7194bcdb015df6300cad511e17 2.16.528.1.1007.3.3.00043987.418.4"/>
            </context>
            <valueString value="bij hoesten pijn, heeft in de tuin gewerkt"/>
         </Observation>
      </resource>
      <search>
         <mode value="include"/>
      </search>
   </entry>
   <entry>
      <fullUrl value="urn:uuid:a14f6b43-c753-11ea-1021-020000000000"/>
      <resource>
         <Observation>
            <meta>
               <profile value="http://nictiz.nl/fhir/StructureDefinition/gp-JournalEntry"/>
            </meta>
            <text>
               <status value="generated"/>
               <div xmlns="http://www.w3.org/1999/xhtml">
                  <table>
                     <caption>Observatie/bepaling. Subject: Tester Anoniem. Status: definitief</caption>
                     <tbody>
                        <tr>
                           <th>Context</th>
                           <td>Contact ID: be282e7194bcdb015df6300cad511e17 2.16.528.1.1007.3.3.00043987.418.4 (Id: be282e7194bcdb015df6300cad511e17 (2.16.528.1.1007.3.3.00043987.418.4))</td>
                        </tr>
                        <tr>
                           <th>Code</th>
                           <th>Waarde</th>
                        </tr>
                        <tr>
                           <td>
                              <span title="Objectief (O - http://fhir.nl/fhir/NamingSystem/journaalregeltypen)">Objectief</span>
                           </td>
                           <td>hyperone rugspieren, KPR re verminderd,</td>
                        </tr>
                     </tbody>
                  </table>
               </div>
            </text>
            <status value="final"/>
            <code>
               <coding>
                  <system value="http://fhir.nl/fhir/NamingSystem/journaalregeltypen"/>
                  <code value="O"/>
                  <display value="Objectief"/>
               </coding>
            </code>
            <subject>
               <reference value="urn:uuid:a14f8d50-c753-11ea-1021-020000000000"/>
               <display value="Tester Anoniem"/>
            </subject>
            <context>
               <identifier>
                  <system value="2.16.528.1.1007.3.3.00043987.418.4"/>
                  <value value="be282e7194bcdb015df6300cad511e17"/>
               </identifier>
               <display value="Contact ID: be282e7194bcdb015df6300cad511e17 2.16.528.1.1007.3.3.00043987.418.4"/>
            </context>
            <valueString value="hyperone rugspieren, KPR re verminderd,"/>
         </Observation>
      </resource>
      <search>
         <mode value="include"/>
      </search>
   </entry>
   <entry>
      <fullUrl value="urn:uuid:a14f6b4b-c753-11ea-1021-020000000000"/>
      <resource>
         <Observation>
            <meta>
               <profile value="http://nictiz.nl/fhir/StructureDefinition/gp-JournalEntry"/>
            </meta>
            <text>
               <status value="generated"/>
               <div xmlns="http://www.w3.org/1999/xhtml">
                  <table>
                     <caption>Observatie/bepaling. Subject: Tester Anoniem. Status: definitief</caption>
                     <tbody>
                        <tr>
                           <th>Context</th>
                           <td>Contact ID: be282e7194bcdb015df6300cad511e17 2.16.528.1.1007.3.3.00043987.418.4 (Id: be282e7194bcdb015df6300cad511e17 (2.16.528.1.1007.3.3.00043987.418.4))</td>
                        </tr>
                        <tr>
                           <th>Code</th>
                           <th>Waarde</th>
                        </tr>
                        <tr>
                           <td>
                              <span title="Evaluatie (E - http://fhir.nl/fhir/NamingSystem/journaalregeltypen)">Evaluatie</span>
                           </td>
                           <td>hernia</td>
                        </tr>
                        <tr>
                           <td>
                              <span title="discharge diagnosis (DISDX - v3/ActCode)">discharge diagnosis</span>
                           </td>
                           <td>
                              <span title="hernia (L86 - sid/icpc-1-nl)">hernia</span>
                           </td>
                        </tr>
                     </tbody>
                  </table>
               </div>
            </text>
            <status value="final"/>
            <code>
               <coding>
                  <system value="http://fhir.nl/fhir/NamingSystem/journaalregeltypen"/>
                  <code value="E"/>
                  <display value="Evaluatie"/>
               </coding>
            </code>
            <subject>
               <reference value="urn:uuid:a14f8d50-c753-11ea-1021-020000000000"/>
               <display value="Tester Anoniem"/>
            </subject>
            <context>
               <identifier>
                  <system value="2.16.528.1.1007.3.3.00043987.418.4"/>
                  <value value="be282e7194bcdb015df6300cad511e17"/>
               </identifier>
               <display value="Contact ID: be282e7194bcdb015df6300cad511e17 2.16.528.1.1007.3.3.00043987.418.4"/>
            </context>
            <valueString value="hernia"/>
            <component>
               <code>
                  <coding>
                     <system value="http://hl7.org/fhir/v3/ActCode"/>
                     <code value="DISDX"/>
                     <display value="discharge diagnosis"/>
                  </coding>
               </code>
               <valueCodeableConcept>
                  <coding>
                     <system value="http://hl7.org/fhir/sid/icpc-1-nl"/>
                     <code value="L86"/>
                     <display value="hernia"/>
                  </coding>
               </valueCodeableConcept>
            </component>
         </Observation>
      </resource>
      <search>
         <mode value="include"/>
      </search>
   </entry>
   <entry>
      <fullUrl value="urn:uuid:a14f6b62-c753-11ea-1021-020000000000"/>
      <resource>
         <Observation>
            <meta>
               <profile value="http://nictiz.nl/fhir/StructureDefinition/gp-JournalEntry"/>
            </meta>
            <text>
               <status value="generated"/>
               <div xmlns="http://www.w3.org/1999/xhtml">
                  <table>
                     <caption>Observatie/bepaling. Subject: Tester Anoniem. Status: definitief</caption>
                     <tbody>
                        <tr>
                           <th>Context</th>
                           <td>Contact ID: be282e7194bcdb015df6300cad511e17 2.16.528.1.1007.3.3.00043987.418.4 (Id: be282e7194bcdb015df6300cad511e17 (2.16.528.1.1007.3.3.00043987.418.4))</td>
                        </tr>
                        <tr>
                           <th>Code</th>
                           <th>Waarde</th>
                        </tr>
                        <tr>
                           <td>
                              <span title="Plan (P - http://fhir.nl/fhir/NamingSystem/journaalregeltypen)">Plan</span>
                           </td>
                           <td>wel bewegen voor zover de pijn dit toelaat, probeer niet te lang te staan of te zitten, niet tillen, de klachten kunnen een paar weken aanhouden. Bij slecht kunnen plassen of een doof gevoel rond de anus dan direct contact opnemen. Let op het gewicht. Als de klachten over zijn gewicht aanpakken.</td>
                        </tr>
                     </tbody>
                  </table>
               </div>
            </text>
            <status value="final"/>
            <code>
               <coding>
                  <system value="http://fhir.nl/fhir/NamingSystem/journaalregeltypen"/>
                  <code value="P"/>
                  <display value="Plan"/>
               </coding>
            </code>
            <subject>
               <reference value="urn:uuid:a14f8d50-c753-11ea-1021-020000000000"/>
               <display value="Tester Anoniem"/>
            </subject>
            <context>
               <identifier>
                  <system value="2.16.528.1.1007.3.3.00043987.418.4"/>
                  <value value="be282e7194bcdb015df6300cad511e17"/>
               </identifier>
               <display value="Contact ID: be282e7194bcdb015df6300cad511e17 2.16.528.1.1007.3.3.00043987.418.4"/>
            </context>
            <valueString value="wel bewegen voor zover de pijn dit toelaat, probeer niet te lang te staan of te zitten, niet tillen, de klachten kunnen een paar weken aanhouden. Bij slecht kunnen plassen of een doof gevoel rond de anus dan direct contact opnemen. Let op het gewicht. Als de klachten over zijn gewicht aanpakken."/>
         </Observation>
      </resource>
      <search>
         <mode value="include"/>
      </search>
   </entry>
</Bundle>