<?xml-model href="http://hl7.org/fhir/STU3/bundle.sch" type="application/xml" schematypens="http://purl.oclc.org/dsdl/schematron"?>
<Bundle xsi:schemaLocation="http://hl7.org/fhir http://hl7.org/fhir/STU3/fhir-all.xsd"
        xmlns:xsi="http://www.w3.org/2001/XMLSchema-instance"
        xmlns="http://hl7.org/fhir">
   <id value="7ec45f6e-a2da-11ef-1473-020000000000"/>
   <type value="searchset"/>
   <total value="19"/>
   <link>
      <relation value="self"/>
      <url value="http://dummy.nictiz.nl/dummyquery"/>
   </link>
   <entry>
      <fullUrl value="https://example.org/fhir/Encounter/2.16.840.1.113883.2.4.3.111.19.1-MedMijHG-contactmoment13"/>
      <resource>
         <Encounter>
            <id value="2.16.840.1.113883.2.4.3.111.19.1-MedMijHG-contactmoment13"/>
            <meta>
               <profile value="http://nictiz.nl/fhir/StructureDefinition/gp-Encounter"/>
            </meta>
            <text>
               <status value="extensions"/>
               <div xmlns="http://www.w3.org/1999/xhtml">
                  <table>
                     <caption>Contact. Subject: J. XXX_Cevat. Id: MedMijHG-contactmoment13 (urn:oid:2.16.840.1.113883.2.4.3.111.19.1), Status: voltooid</caption>
                     <tbody>
                        <tr>
                           <th>Type contact</th>
                           <td>
                              <div>
                                 <span title="Ambulatory (AMB - v3/ActCode)">Ambulatory</span>
                              </div>
                              <span title="consult (03 - nhg-tabel-14-contactwijze)">consult</span>
                           </td>
                        </tr>
                        <tr>
                           <th>Periode</th>
                           <td>23 juni 2020</td>
                        </tr>
                        <tr>
                           <th>Participant</th>
                           <td>
                              <div>
                                 <span title="Performer (PRF - v3/ParticipationType)">Performer</span> - Huisarts 1 || Gezondheidscentrum Aesculaap</div>
                           </td>
                        </tr>
                        <tr>
                           <th>Zorgaanbieder</th>
                           <td>
                              <a href="https://example.org/fhir/Organization/2.16.528.1.1007.3.3-00002727">Gezondheidscentrum Aesculaap</a>
                           </td>
                        </tr>
                     </tbody>
                  </table>
               </div>
            </text>
            <identifier>
               <system value="urn:oid:2.16.840.1.113883.2.4.3.111.19.1"/>
               <value value="MedMijHG-contactmoment13"/>
            </identifier>
            <status value="finished"/>
            <class>
               <extension url="http://nictiz.nl/fhir/StructureDefinition/code-specification">
                  <valueCodeableConcept>
                     <coding>
                        <system value="https://referentiemodel.nhg.org/tabellen/nhg-tabel-14-contactwijze"/>
                        <version value="v3"/>
                        <code value="03"/>
                        <display value="consult"/>
                     </coding>
                  </valueCodeableConcept>
               </extension>
               <system value="http://hl7.org/fhir/v3/ActCode"/>
               <code value="AMB"/>
               <display value="Ambulatory"/>
            </class>
            <type>
               <coding>
                  <system value="https://referentiemodel.nhg.org/tabellen/nhg-tabel-14-contactwijze"/>
                  <version value="v3"/>
                  <code value="03"/>
                  <display value="consult"/>
               </coding>
            </type>
            <subject>
               <reference value="urn:uuid:7ec44200-a2da-11ef-1473-020000000000"/>
               <display value="J. XXX_Cevat"/>
            </subject>
            <episodeOfCare>
               <identifier>
                  <system value="urn:oid:2.16.840.1.113883.2.4.3.111.19.1"/>
                  <value value="MedMijHG-concern-R21.01"/>
               </identifier>
               <display value="Episode: MedMijHG-concern-R21.01 2.16.840.1.113883.2.4.3.111.19.1"/>
            </episodeOfCare>
            <participant>
               <type>
                  <coding>
                     <system value="http://hl7.org/fhir/v3/ParticipationType"/>
                     <code value="PRF"/>
                     <display value="Performer"/>
                  </coding>
               </type>
               <individual>
                  <extension url="http://nictiz.nl/fhir/StructureDefinition/practitionerrole-reference">
                     <valueReference>
                        <reference value="urn:uuid:7ec4422f-a2da-11ef-1473-020000000000"/>
                        <display value="Huisarts 1 || Gezondheidscentrum Aesculaap"/>
                     </valueReference>
                  </extension>
                  <reference value="https://example.org/fhir/Practitioner/2.16.528.1.1007.3.1-900016431"/>
                  <display value="Huisarts 1"/>
               </individual>
            </participant>
            <period>
               <start value="2020-06-23"/>
               <end value="2020-06-23"/>
            </period>
            <serviceProvider>
               <reference value="https://example.org/fhir/Organization/2.16.528.1.1007.3.3-00002727"/>
               <display value="Gezondheidscentrum Aesculaap"/>
            </serviceProvider>
         </Encounter>
      </resource>
      <search>
         <mode value="match"/>
      </search>
   </entry>
   <entry>
      <fullUrl value="https://example.org/fhir/Encounter/2.16.840.1.113883.2.4.3.111.19.1-MedMijHG-contactmoment17"/>
      <resource>
         <Encounter>
            <id value="2.16.840.1.113883.2.4.3.111.19.1-MedMijHG-contactmoment17"/>
            <meta>
               <profile value="http://nictiz.nl/fhir/StructureDefinition/gp-Encounter"/>
            </meta>
            <text>
               <status value="extensions"/>
               <div xmlns="http://www.w3.org/1999/xhtml">
                  <table>
                     <caption>Contact. Subject: J. XXX_Cevat. Id: MedMijHG-contactmoment17 (urn:oid:2.16.840.1.113883.2.4.3.111.19.1), Status: voltooid</caption>
                     <tbody>
                        <tr>
                           <th>Type contact</th>
                           <td>
                              <div>
                                 <span title="Ambulatory (AMB - v3/ActCode)">Ambulatory</span>
                              </div>
                              <span title="consult (03 - nhg-tabel-14-contactwijze)">consult</span>
                           </td>
                        </tr>
                        <tr>
                           <th>Periode</th>
                           <td>13:56:45 - 14:26:45 op 18 juni 2020</td>
                        </tr>
                        <tr>
                           <th>Participant</th>
                           <td>
                              <div>
                                 <span title="Performer (PRF - v3/ParticipationType)">Performer</span> - Huisarts 1 || Gezondheidscentrum Aesculaap</div>
                           </td>
                        </tr>
                        <tr>
                           <th>Zorgaanbieder</th>
                           <td>
                              <a href="https://example.org/fhir/Organization/2.16.528.1.1007.3.3-00002727">Gezondheidscentrum Aesculaap</a>
                           </td>
                        </tr>
                     </tbody>
                  </table>
               </div>
            </text>
            <identifier>
               <system value="urn:oid:2.16.840.1.113883.2.4.3.111.19.1"/>
               <value value="MedMijHG-contactmoment17"/>
            </identifier>
            <status value="finished"/>
            <class>
               <extension url="http://nictiz.nl/fhir/StructureDefinition/code-specification">
                  <valueCodeableConcept>
                     <coding>
                        <system value="https://referentiemodel.nhg.org/tabellen/nhg-tabel-14-contactwijze"/>
                        <version value="v3"/>
                        <code value="03"/>
                        <display value="consult"/>
                     </coding>
                  </valueCodeableConcept>
               </extension>
               <system value="http://hl7.org/fhir/v3/ActCode"/>
               <code value="AMB"/>
               <display value="Ambulatory"/>
            </class>
            <type>
               <coding>
                  <system value="https://referentiemodel.nhg.org/tabellen/nhg-tabel-14-contactwijze"/>
                  <version value="v3"/>
                  <code value="03"/>
                  <display value="consult"/>
               </coding>
            </type>
            <subject>
               <reference value="urn:uuid:7ec44200-a2da-11ef-1473-020000000000"/>
               <display value="J. XXX_Cevat"/>
            </subject>
            <episodeOfCare>
               <identifier>
                  <system value="urn:oid:2.16.840.1.113883.2.4.3.111.19.1"/>
                  <value value="MedMijHG-concern-L86.01"/>
               </identifier>
               <display value="Episode: MedMijHG-concern-L86.01 2.16.840.1.113883.2.4.3.111.19.1"/>
            </episodeOfCare>
            <participant>
               <type>
                  <coding>
                     <system value="http://hl7.org/fhir/v3/ParticipationType"/>
                     <code value="PRF"/>
                     <display value="Performer"/>
                  </coding>
               </type>
               <individual>
                  <extension url="http://nictiz.nl/fhir/StructureDefinition/practitionerrole-reference">
                     <valueReference>
                        <reference value="urn:uuid:7ec4422f-a2da-11ef-1473-020000000000"/>
                        <display value="Huisarts 1 || Gezondheidscentrum Aesculaap"/>
                     </valueReference>
                  </extension>
                  <reference value="https://example.org/fhir/Practitioner/2.16.528.1.1007.3.1-900016431"/>
                  <display value="Huisarts 1"/>
               </individual>
            </participant>
            <period>
               <start value="2020-06-18T13:56:45+02:00"/>
               <end value="2020-06-18T14:26:45+02:00"/>
            </period>
            <serviceProvider>
               <reference value="https://example.org/fhir/Organization/2.16.528.1.1007.3.3-00002727"/>
               <display value="Gezondheidscentrum Aesculaap"/>
            </serviceProvider>
         </Encounter>
      </resource>
      <search>
         <mode value="match"/>
      </search>
   </entry>
   <entry>
      <fullUrl value="https://example.org/fhir/Encounter/2.16.840.1.113883.2.4.3.111.19.1-MedMijHG-contactmoment12"/>
      <resource>
         <Encounter>
            <id value="2.16.840.1.113883.2.4.3.111.19.1-MedMijHG-contactmoment12"/>
            <meta>
               <profile value="http://nictiz.nl/fhir/StructureDefinition/gp-Encounter"/>
            </meta>
            <text>
               <status value="extensions"/>
               <div xmlns="http://www.w3.org/1999/xhtml">
                  <table>
                     <caption>Contact. Subject: J. XXX_Cevat. Id: MedMijHG-contactmoment12 (urn:oid:2.16.840.1.113883.2.4.3.111.19.1), Status: voltooid</caption>
                     <tbody>
                        <tr>
                           <th>Type contact</th>
                           <td>
                              <div>
                                 <span title="Ambulatory (AMB - v3/ActCode)">Ambulatory</span>
                              </div>
                              <span title="consult (03 - nhg-tabel-14-contactwijze)">consult</span>
                           </td>
                        </tr>
                        <tr>
                           <th>Periode</th>
                           <td>13:56:45 - 14:26:45 op 14 mei 2020</td>
                        </tr>
                        <tr>
                           <th>Participant</th>
                           <td>
                              <div>
                                 <span title="Performer (PRF - v3/ParticipationType)">Performer</span> - Huisarts 1 || Gezondheidscentrum Aesculaap</div>
                           </td>
                        </tr>
                        <tr>
                           <th>Zorgaanbieder</th>
                           <td>
                              <a href="https://example.org/fhir/Organization/2.16.528.1.1007.3.3-00002727">Gezondheidscentrum Aesculaap</a>
                           </td>
                        </tr>
                     </tbody>
                  </table>
               </div>
            </text>
            <identifier>
               <system value="urn:oid:2.16.840.1.113883.2.4.3.111.19.1"/>
               <value value="MedMijHG-contactmoment12"/>
            </identifier>
            <status value="finished"/>
            <class>
               <extension url="http://nictiz.nl/fhir/StructureDefinition/code-specification">
                  <valueCodeableConcept>
                     <coding>
                        <system value="https://referentiemodel.nhg.org/tabellen/nhg-tabel-14-contactwijze"/>
                        <version value="v3"/>
                        <code value="03"/>
                        <display value="consult"/>
                     </coding>
                  </valueCodeableConcept>
               </extension>
               <system value="http://hl7.org/fhir/v3/ActCode"/>
               <code value="AMB"/>
               <display value="Ambulatory"/>
            </class>
            <type>
               <coding>
                  <system value="https://referentiemodel.nhg.org/tabellen/nhg-tabel-14-contactwijze"/>
                  <version value="v3"/>
                  <code value="03"/>
                  <display value="consult"/>
               </coding>
            </type>
            <subject>
               <reference value="urn:uuid:7ec44200-a2da-11ef-1473-020000000000"/>
               <display value="J. XXX_Cevat"/>
            </subject>
            <episodeOfCare>
               <identifier>
                  <system value="urn:oid:2.16.840.1.113883.2.4.3.111.19.1"/>
                  <value value="MedMijHG-concern-R21.01"/>
               </identifier>
               <display value="Episode: MedMijHG-concern-R21.01 2.16.840.1.113883.2.4.3.111.19.1"/>
            </episodeOfCare>
            <participant>
               <type>
                  <coding>
                     <system value="http://hl7.org/fhir/v3/ParticipationType"/>
                     <code value="PRF"/>
                     <display value="Performer"/>
                  </coding>
               </type>
               <individual>
                  <extension url="http://nictiz.nl/fhir/StructureDefinition/practitionerrole-reference">
                     <valueReference>
                        <reference value="urn:uuid:7ec4422f-a2da-11ef-1473-020000000000"/>
                        <display value="Huisarts 1 || Gezondheidscentrum Aesculaap"/>
                     </valueReference>
                  </extension>
                  <reference value="https://example.org/fhir/Practitioner/2.16.528.1.1007.3.1-900016431"/>
                  <display value="Huisarts 1"/>
               </individual>
            </participant>
            <period>
               <start value="2020-05-14T13:56:45+02:00"/>
               <end value="2020-05-14T14:26:45+02:00"/>
            </period>
            <serviceProvider>
               <reference value="https://example.org/fhir/Organization/2.16.528.1.1007.3.3-00002727"/>
               <display value="Gezondheidscentrum Aesculaap"/>
            </serviceProvider>
         </Encounter>
      </resource>
      <search>
         <mode value="match"/>
      </search>
   </entry>
   <entry>
      <fullUrl value="https://example.org/fhir/Encounter/2.16.840.1.113883.2.4.3.111.19.1-MedMijHG-contactmoment16"/>
      <resource>
         <Encounter>
            <id value="2.16.840.1.113883.2.4.3.111.19.1-MedMijHG-contactmoment16"/>
            <meta>
               <profile value="http://nictiz.nl/fhir/StructureDefinition/gp-Encounter"/>
            </meta>
            <text>
               <status value="extensions"/>
               <div xmlns="http://www.w3.org/1999/xhtml">
                  <table>
                     <caption>Contact. Subject: J. XXX_Cevat. Id: MedMijHG-contactmoment16 (urn:oid:2.16.840.1.113883.2.4.3.111.19.1), Status: voltooid</caption>
                     <tbody>
                        <tr>
                           <th>Type contact</th>
                           <td>
                              <div>
                                 <span title="Ambulatory (AMB - v3/ActCode)">Ambulatory</span>
                              </div>
                              <span title="consult (03 - nhg-tabel-14-contactwijze)">consult</span>
                           </td>
                        </tr>
                        <tr>
                           <th>Periode</th>
                           <td>13:56:45 - 14:26:45 op 9 mei 2020</td>
                        </tr>
                        <tr>
                           <th>Participant</th>
                           <td>
                              <div>
                                 <span title="Performer (PRF - v3/ParticipationType)">Performer</span> - Huisarts 1 || Gezondheidscentrum Aesculaap</div>
                           </td>
                        </tr>
                        <tr>
                           <th>Zorgaanbieder</th>
                           <td>
                              <a href="https://example.org/fhir/Organization/2.16.528.1.1007.3.3-00002727">Gezondheidscentrum Aesculaap</a>
                           </td>
                        </tr>
                     </tbody>
                  </table>
               </div>
            </text>
            <identifier>
               <system value="urn:oid:2.16.840.1.113883.2.4.3.111.19.1"/>
               <value value="MedMijHG-contactmoment16"/>
            </identifier>
            <status value="finished"/>
            <class>
               <extension url="http://nictiz.nl/fhir/StructureDefinition/code-specification">
                  <valueCodeableConcept>
                     <coding>
                        <system value="https://referentiemodel.nhg.org/tabellen/nhg-tabel-14-contactwijze"/>
                        <version value="v3"/>
                        <code value="03"/>
                        <display value="consult"/>
                     </coding>
                  </valueCodeableConcept>
               </extension>
               <system value="http://hl7.org/fhir/v3/ActCode"/>
               <code value="AMB"/>
               <display value="Ambulatory"/>
            </class>
            <type>
               <coding>
                  <system value="https://referentiemodel.nhg.org/tabellen/nhg-tabel-14-contactwijze"/>
                  <version value="v3"/>
                  <code value="03"/>
                  <display value="consult"/>
               </coding>
            </type>
            <subject>
               <reference value="urn:uuid:7ec44200-a2da-11ef-1473-020000000000"/>
               <display value="J. XXX_Cevat"/>
            </subject>
            <episodeOfCare>
               <identifier>
                  <system value="urn:oid:2.16.840.1.113883.2.4.3.111.19.1"/>
                  <value value="MedMijHG-concern-L86.01"/>
               </identifier>
               <display value="Episode: MedMijHG-concern-L86.01 2.16.840.1.113883.2.4.3.111.19.1"/>
            </episodeOfCare>
            <participant>
               <type>
                  <coding>
                     <system value="http://hl7.org/fhir/v3/ParticipationType"/>
                     <code value="PRF"/>
                     <display value="Performer"/>
                  </coding>
               </type>
               <individual>
                  <extension url="http://nictiz.nl/fhir/StructureDefinition/practitionerrole-reference">
                     <valueReference>
                        <reference value="urn:uuid:7ec4422f-a2da-11ef-1473-020000000000"/>
                        <display value="Huisarts 1 || Gezondheidscentrum Aesculaap"/>
                     </valueReference>
                  </extension>
                  <reference value="https://example.org/fhir/Practitioner/2.16.528.1.1007.3.1-900016431"/>
                  <display value="Huisarts 1"/>
               </individual>
            </participant>
            <period>
               <start value="2020-05-09T13:56:45+02:00"/>
               <end value="2020-05-09T14:26:45+02:00"/>
            </period>
            <serviceProvider>
               <reference value="https://example.org/fhir/Organization/2.16.528.1.1007.3.3-00002727"/>
               <display value="Gezondheidscentrum Aesculaap"/>
            </serviceProvider>
         </Encounter>
      </resource>
      <search>
         <mode value="match"/>
      </search>
   </entry>
   <entry>
      <fullUrl value="https://example.org/fhir/Encounter/2.16.840.1.113883.2.4.3.111.19.1-MedMijHG-contactmoment15"/>
      <resource>
         <Encounter>
            <id value="2.16.840.1.113883.2.4.3.111.19.1-MedMijHG-contactmoment15"/>
            <meta>
               <profile value="http://nictiz.nl/fhir/StructureDefinition/gp-Encounter"/>
            </meta>
            <text>
               <status value="extensions"/>
               <div xmlns="http://www.w3.org/1999/xhtml">
                  <table>
                     <caption>Contact. Subject: J. XXX_Cevat. Id: MedMijHG-contactmoment15 (urn:oid:2.16.840.1.113883.2.4.3.111.19.1), Status: voltooid</caption>
                     <tbody>
                        <tr>
                           <th>Type contact</th>
                           <td>
                              <div>
                                 <span title="Ambulatory (AMB - v3/ActCode)">Ambulatory</span>
                              </div>
                              <span title="consult (03 - nhg-tabel-14-contactwijze)">consult</span>
                           </td>
                        </tr>
                        <tr>
                           <th>Periode</th>
                           <td>13:56:45 - 14:26:45 op 4 mei 2020</td>
                        </tr>
                        <tr>
                           <th>Participant</th>
                           <td>
                              <div>
                                 <span title="Performer (PRF - v3/ParticipationType)">Performer</span> - Huisarts 1 || Gezondheidscentrum Aesculaap</div>
                           </td>
                        </tr>
                        <tr>
                           <th>Zorgaanbieder</th>
                           <td>
                              <a href="https://example.org/fhir/Organization/2.16.528.1.1007.3.3-00002727">Gezondheidscentrum Aesculaap</a>
                           </td>
                        </tr>
                     </tbody>
                  </table>
               </div>
            </text>
            <identifier>
               <system value="urn:oid:2.16.840.1.113883.2.4.3.111.19.1"/>
               <value value="MedMijHG-contactmoment15"/>
            </identifier>
            <status value="finished"/>
            <class>
               <extension url="http://nictiz.nl/fhir/StructureDefinition/code-specification">
                  <valueCodeableConcept>
                     <coding>
                        <system value="https://referentiemodel.nhg.org/tabellen/nhg-tabel-14-contactwijze"/>
                        <version value="v3"/>
                        <code value="03"/>
                        <display value="consult"/>
                     </coding>
                  </valueCodeableConcept>
               </extension>
               <system value="http://hl7.org/fhir/v3/ActCode"/>
               <code value="AMB"/>
               <display value="Ambulatory"/>
            </class>
            <type>
               <coding>
                  <system value="https://referentiemodel.nhg.org/tabellen/nhg-tabel-14-contactwijze"/>
                  <version value="v3"/>
                  <code value="03"/>
                  <display value="consult"/>
               </coding>
            </type>
            <subject>
               <reference value="urn:uuid:7ec44200-a2da-11ef-1473-020000000000"/>
               <display value="J. XXX_Cevat"/>
            </subject>
            <episodeOfCare>
               <identifier>
                  <system value="urn:oid:2.16.840.1.113883.2.4.3.111.19.1"/>
                  <value value="MedMijHG-concern-L86.01"/>
               </identifier>
               <display value="Episode: MedMijHG-concern-L86.01 2.16.840.1.113883.2.4.3.111.19.1"/>
            </episodeOfCare>
            <participant>
               <type>
                  <coding>
                     <system value="http://hl7.org/fhir/v3/ParticipationType"/>
                     <code value="PRF"/>
                     <display value="Performer"/>
                  </coding>
               </type>
               <individual>
                  <extension url="http://nictiz.nl/fhir/StructureDefinition/practitionerrole-reference">
                     <valueReference>
                        <reference value="urn:uuid:7ec4422f-a2da-11ef-1473-020000000000"/>
                        <display value="Huisarts 1 || Gezondheidscentrum Aesculaap"/>
                     </valueReference>
                  </extension>
                  <reference value="https://example.org/fhir/Practitioner/2.16.528.1.1007.3.1-900016431"/>
                  <display value="Huisarts 1"/>
               </individual>
            </participant>
            <period>
               <start value="2020-05-04T13:56:45+02:00"/>
               <end value="2020-05-04T14:26:45+02:00"/>
            </period>
            <serviceProvider>
               <reference value="https://example.org/fhir/Organization/2.16.528.1.1007.3.3-00002727"/>
               <display value="Gezondheidscentrum Aesculaap"/>
            </serviceProvider>
         </Encounter>
      </resource>
      <search>
         <mode value="match"/>
      </search>
   </entry>
   <entry>
      <fullUrl value="https://example.org/fhir/Encounter/2.16.840.1.113883.2.4.3.111.19.1-MedMijHG-contactmoment14"/>
      <resource>
         <Encounter>
            <id value="2.16.840.1.113883.2.4.3.111.19.1-MedMijHG-contactmoment14"/>
            <meta>
               <profile value="http://nictiz.nl/fhir/StructureDefinition/gp-Encounter"/>
            </meta>
            <text>
               <status value="extensions"/>
               <div xmlns="http://www.w3.org/1999/xhtml">
                  <table>
                     <caption>Contact. Subject: J. XXX_Cevat. Id: MedMijHG-contactmoment14 (urn:oid:2.16.840.1.113883.2.4.3.111.19.1), Status: voltooid</caption>
                     <tbody>
                        <tr>
                           <th>Type contact</th>
                           <td>
                              <div>
                                 <span title="Ambulatory (AMB - v3/ActCode)">Ambulatory</span>
                              </div>
                              <span title="consult (03 - nhg-tabel-14-contactwijze)">consult</span>
                           </td>
                        </tr>
                        <tr>
                           <th>Periode</th>
                           <td>13:56:45 - 14:26:45 op 14 april 2020</td>
                        </tr>
                        <tr>
                           <th>Participant</th>
                           <td>
                              <div>
                                 <span title="Performer (PRF - v3/ParticipationType)">Performer</span> - Huisarts 1 || Gezondheidscentrum Aesculaap</div>
                           </td>
                        </tr>
                        <tr>
                           <th>Zorgaanbieder</th>
                           <td>
                              <a href="https://example.org/fhir/Organization/2.16.528.1.1007.3.3-00002727">Gezondheidscentrum Aesculaap</a>
                           </td>
                        </tr>
                     </tbody>
                  </table>
               </div>
            </text>
            <identifier>
               <system value="urn:oid:2.16.840.1.113883.2.4.3.111.19.1"/>
               <value value="MedMijHG-contactmoment14"/>
            </identifier>
            <status value="finished"/>
            <class>
               <extension url="http://nictiz.nl/fhir/StructureDefinition/code-specification">
                  <valueCodeableConcept>
                     <coding>
                        <system value="https://referentiemodel.nhg.org/tabellen/nhg-tabel-14-contactwijze"/>
                        <version value="v3"/>
                        <code value="03"/>
                        <display value="consult"/>
                     </coding>
                  </valueCodeableConcept>
               </extension>
               <system value="http://hl7.org/fhir/v3/ActCode"/>
               <code value="AMB"/>
               <display value="Ambulatory"/>
            </class>
            <type>
               <coding>
                  <system value="https://referentiemodel.nhg.org/tabellen/nhg-tabel-14-contactwijze"/>
                  <version value="v3"/>
                  <code value="03"/>
                  <display value="consult"/>
               </coding>
            </type>
            <subject>
               <reference value="urn:uuid:7ec44200-a2da-11ef-1473-020000000000"/>
               <display value="J. XXX_Cevat"/>
            </subject>
            <episodeOfCare>
               <identifier>
                  <system value="urn:oid:2.16.840.1.113883.2.4.3.111.19.1"/>
                  <value value="MedMijHG-concern-L86.01"/>
               </identifier>
               <display value="Episode: MedMijHG-concern-L86.01 2.16.840.1.113883.2.4.3.111.19.1"/>
            </episodeOfCare>
            <participant>
               <type>
                  <coding>
                     <system value="http://hl7.org/fhir/v3/ParticipationType"/>
                     <code value="PRF"/>
                     <display value="Performer"/>
                  </coding>
               </type>
               <individual>
                  <extension url="http://nictiz.nl/fhir/StructureDefinition/practitionerrole-reference">
                     <valueReference>
                        <reference value="urn:uuid:7ec4422f-a2da-11ef-1473-020000000000"/>
                        <display value="Huisarts 1 || Gezondheidscentrum Aesculaap"/>
                     </valueReference>
                  </extension>
                  <reference value="https://example.org/fhir/Practitioner/2.16.528.1.1007.3.1-900016431"/>
                  <display value="Huisarts 1"/>
               </individual>
            </participant>
            <period>
               <start value="2020-04-14T13:56:45+02:00"/>
               <end value="2020-04-14T14:26:45+02:00"/>
            </period>
            <serviceProvider>
               <reference value="https://example.org/fhir/Organization/2.16.528.1.1007.3.3-00002727"/>
               <display value="Gezondheidscentrum Aesculaap"/>
            </serviceProvider>
         </Encounter>
      </resource>
      <search>
         <mode value="match"/>
      </search>
   </entry>
   <entry>
      <fullUrl value="https://example.org/fhir/Encounter/2.16.840.1.113883.2.4.3.111.19.1-MedMijHG-contactmoment11"/>
      <resource>
         <Encounter>
            <id value="2.16.840.1.113883.2.4.3.111.19.1-MedMijHG-contactmoment11"/>
            <meta>
               <profile value="http://nictiz.nl/fhir/StructureDefinition/gp-Encounter"/>
            </meta>
            <text>
               <status value="extensions"/>
               <div xmlns="http://www.w3.org/1999/xhtml">
                  <table>
                     <caption>Contact. Subject: J. XXX_Cevat. Id: MedMijHG-contactmoment11 (urn:oid:2.16.840.1.113883.2.4.3.111.19.1), Status: voltooid</caption>
                     <tbody>
                        <tr>
                           <th>Type contact</th>
                           <td>
                              <div>
                                 <span title="Ambulatory (AMB - v3/ActCode)">Ambulatory</span>
                              </div>
                              <span title="consult (03 - nhg-tabel-14-contactwijze)">consult</span>
                           </td>
                        </tr>
                        <tr>
                           <th>Periode</th>
                           <td>13:56:45 - 14:26:45 op 4 april 2020</td>
                        </tr>
                        <tr>
                           <th>Participant</th>
                           <td>
                              <div>
                                 <span title="Performer (PRF - v3/ParticipationType)">Performer</span> - Huisarts 1 || Gezondheidscentrum Aesculaap</div>
                           </td>
                        </tr>
                        <tr>
                           <th>Zorgaanbieder</th>
                           <td>
                              <a href="https://example.org/fhir/Organization/2.16.528.1.1007.3.3-00002727">Gezondheidscentrum Aesculaap</a>
                           </td>
                        </tr>
                     </tbody>
                  </table>
               </div>
            </text>
            <identifier>
               <system value="urn:oid:2.16.840.1.113883.2.4.3.111.19.1"/>
               <value value="MedMijHG-contactmoment11"/>
            </identifier>
            <status value="finished"/>
            <class>
               <extension url="http://nictiz.nl/fhir/StructureDefinition/code-specification">
                  <valueCodeableConcept>
                     <coding>
                        <system value="https://referentiemodel.nhg.org/tabellen/nhg-tabel-14-contactwijze"/>
                        <version value="v3"/>
                        <code value="03"/>
                        <display value="consult"/>
                     </coding>
                  </valueCodeableConcept>
               </extension>
               <system value="http://hl7.org/fhir/v3/ActCode"/>
               <code value="AMB"/>
               <display value="Ambulatory"/>
            </class>
            <type>
               <coding>
                  <system value="https://referentiemodel.nhg.org/tabellen/nhg-tabel-14-contactwijze"/>
                  <version value="v3"/>
                  <code value="03"/>
                  <display value="consult"/>
               </coding>
            </type>
            <subject>
               <reference value="urn:uuid:7ec44200-a2da-11ef-1473-020000000000"/>
               <display value="J. XXX_Cevat"/>
            </subject>
            <episodeOfCare>
               <identifier>
                  <system value="urn:oid:2.16.840.1.113883.2.4.3.111.19.1"/>
                  <value value="MedMijHG-concern-R21.01"/>
               </identifier>
               <display value="Episode: MedMijHG-concern-R21.01 2.16.840.1.113883.2.4.3.111.19.1"/>
            </episodeOfCare>
            <participant>
               <type>
                  <coding>
                     <system value="http://hl7.org/fhir/v3/ParticipationType"/>
                     <code value="PRF"/>
                     <display value="Performer"/>
                  </coding>
               </type>
               <individual>
                  <extension url="http://nictiz.nl/fhir/StructureDefinition/practitionerrole-reference">
                     <valueReference>
                        <reference value="urn:uuid:7ec4422f-a2da-11ef-1473-020000000000"/>
                        <display value="Huisarts 1 || Gezondheidscentrum Aesculaap"/>
                     </valueReference>
                  </extension>
                  <reference value="https://example.org/fhir/Practitioner/2.16.528.1.1007.3.1-900016431"/>
                  <display value="Huisarts 1"/>
               </individual>
            </participant>
            <period>
               <start value="2020-04-04T13:56:45+02:00"/>
               <end value="2020-04-04T14:26:45+02:00"/>
            </period>
            <serviceProvider>
               <reference value="https://example.org/fhir/Organization/2.16.528.1.1007.3.3-00002727"/>
               <display value="Gezondheidscentrum Aesculaap"/>
            </serviceProvider>
         </Encounter>
      </resource>
      <search>
         <mode value="match"/>
      </search>
   </entry>
   <entry>
      <fullUrl value="https://example.org/fhir/Encounter/2.16.840.1.113883.2.4.3.111.19.1-MedMijHG-contactmoment07"/>
      <resource>
         <Encounter>
            <id value="2.16.840.1.113883.2.4.3.111.19.1-MedMijHG-contactmoment07"/>
            <meta>
               <profile value="http://nictiz.nl/fhir/StructureDefinition/gp-Encounter"/>
            </meta>
            <text>
               <status value="extensions"/>
               <div xmlns="http://www.w3.org/1999/xhtml">
                  <table>
                     <caption>Contact. Subject: J. XXX_Cevat. Id: MedMijHG-contactmoment07 (urn:oid:2.16.840.1.113883.2.4.3.111.19.1), Status: voltooid</caption>
                     <tbody>
                        <tr>
                           <th>Type contact</th>
                           <td>
                              <div>
                                 <span title="Ambulatory (AMB - v3/ActCode)">Ambulatory</span>
                              </div>
                              <span title="consult (03 - nhg-tabel-14-contactwijze)">consult</span>
                           </td>
                        </tr>
                        <tr>
                           <th>Periode</th>
                           <td>13:56:45 - 14:26:45 op 30 maart 2020</td>
                        </tr>
                        <tr>
                           <th>Participant</th>
                           <td>
                              <div>
                                 <span title="Performer (PRF - v3/ParticipationType)">Performer</span> - Huisarts 1 || Gezondheidscentrum Aesculaap</div>
                           </td>
                        </tr>
                        <tr>
                           <th>Zorgaanbieder</th>
                           <td>
                              <a href="https://example.org/fhir/Organization/2.16.528.1.1007.3.3-00002727">Gezondheidscentrum Aesculaap</a>
                           </td>
                        </tr>
                     </tbody>
                  </table>
               </div>
            </text>
            <identifier>
               <system value="urn:oid:2.16.840.1.113883.2.4.3.111.19.1"/>
               <value value="MedMijHG-contactmoment07"/>
            </identifier>
            <status value="finished"/>
            <class>
               <extension url="http://nictiz.nl/fhir/StructureDefinition/code-specification">
                  <valueCodeableConcept>
                     <coding>
                        <system value="https://referentiemodel.nhg.org/tabellen/nhg-tabel-14-contactwijze"/>
                        <version value="v3"/>
                        <code value="03"/>
                        <display value="consult"/>
                     </coding>
                  </valueCodeableConcept>
               </extension>
               <system value="http://hl7.org/fhir/v3/ActCode"/>
               <code value="AMB"/>
               <display value="Ambulatory"/>
            </class>
            <type>
               <coding>
                  <system value="https://referentiemodel.nhg.org/tabellen/nhg-tabel-14-contactwijze"/>
                  <version value="v3"/>
                  <code value="03"/>
                  <display value="consult"/>
               </coding>
            </type>
            <subject>
               <reference value="urn:uuid:7ec44200-a2da-11ef-1473-020000000000"/>
               <display value="J. XXX_Cevat"/>
            </subject>
            <episodeOfCare>
               <identifier>
                  <system value="urn:oid:2.16.840.1.113883.2.4.3.111.19.1"/>
                  <value value="MedMijHG-concern-D02"/>
               </identifier>
               <display value="Episode: MedMijHG-concern-D02 2.16.840.1.113883.2.4.3.111.19.1"/>
            </episodeOfCare>
            <participant>
               <type>
                  <coding>
                     <system value="http://hl7.org/fhir/v3/ParticipationType"/>
                     <code value="PRF"/>
                     <display value="Performer"/>
                  </coding>
               </type>
               <individual>
                  <extension url="http://nictiz.nl/fhir/StructureDefinition/practitionerrole-reference">
                     <valueReference>
                        <reference value="urn:uuid:7ec4422f-a2da-11ef-1473-020000000000"/>
                        <display value="Huisarts 1 || Gezondheidscentrum Aesculaap"/>
                     </valueReference>
                  </extension>
                  <reference value="https://example.org/fhir/Practitioner/2.16.528.1.1007.3.1-900016431"/>
                  <display value="Huisarts 1"/>
               </individual>
            </participant>
            <period>
               <start value="2020-03-30T13:56:45+02:00"/>
               <end value="2020-03-30T14:26:45+02:00"/>
            </period>
            <serviceProvider>
               <reference value="https://example.org/fhir/Organization/2.16.528.1.1007.3.3-00002727"/>
               <display value="Gezondheidscentrum Aesculaap"/>
            </serviceProvider>
         </Encounter>
      </resource>
      <search>
         <mode value="match"/>
      </search>
   </entry>
   <entry>
      <fullUrl value="https://example.org/fhir/Encounter/2.16.840.1.113883.2.4.3.111.19.1-MedMijHG-contactmoment05"/>
      <resource>
         <Encounter>
            <id value="2.16.840.1.113883.2.4.3.111.19.1-MedMijHG-contactmoment05"/>
            <meta>
               <profile value="http://nictiz.nl/fhir/StructureDefinition/gp-Encounter"/>
            </meta>
            <text>
               <status value="extensions"/>
               <div xmlns="http://www.w3.org/1999/xhtml">
                  <table>
                     <caption>Contact. Subject: J. XXX_Cevat. Id: MedMijHG-contactmoment05 (urn:oid:2.16.840.1.113883.2.4.3.111.19.1), Status: voltooid</caption>
                     <tbody>
                        <tr>
                           <th>Type contact</th>
                           <td>
                              <div>
                                 <span title="Ambulatory (AMB - v3/ActCode)">Ambulatory</span>
                              </div>
                              <span title="consult (03 - nhg-tabel-14-contactwijze)">consult</span>
                           </td>
                        </tr>
                        <tr>
                           <th>Periode</th>
                           <td>12:56:45 - 13:26:45 op 25 maart 2020</td>
                        </tr>
                        <tr>
                           <th>Participant</th>
                           <td>
                              <div>
                                 <span title="Performer (PRF - v3/ParticipationType)">Performer</span> - Huisarts 1 || Gezondheidscentrum Aesculaap</div>
                           </td>
                        </tr>
                        <tr>
                           <th>Zorgaanbieder</th>
                           <td>
                              <a href="https://example.org/fhir/Organization/2.16.528.1.1007.3.3-00002727">Gezondheidscentrum Aesculaap</a>
                           </td>
                        </tr>
                     </tbody>
                  </table>
               </div>
            </text>
            <identifier>
               <system value="urn:oid:2.16.840.1.113883.2.4.3.111.19.1"/>
               <value value="MedMijHG-contactmoment05"/>
            </identifier>
            <status value="finished"/>
            <class>
               <extension url="http://nictiz.nl/fhir/StructureDefinition/code-specification">
                  <valueCodeableConcept>
                     <coding>
                        <system value="https://referentiemodel.nhg.org/tabellen/nhg-tabel-14-contactwijze"/>
                        <version value="v3"/>
                        <code value="03"/>
                        <display value="consult"/>
                     </coding>
                  </valueCodeableConcept>
               </extension>
               <system value="http://hl7.org/fhir/v3/ActCode"/>
               <code value="AMB"/>
               <display value="Ambulatory"/>
            </class>
            <type>
               <coding>
                  <system value="https://referentiemodel.nhg.org/tabellen/nhg-tabel-14-contactwijze"/>
                  <version value="v3"/>
                  <code value="03"/>
                  <display value="consult"/>
               </coding>
            </type>
            <subject>
               <reference value="urn:uuid:7ec44200-a2da-11ef-1473-020000000000"/>
               <display value="J. XXX_Cevat"/>
            </subject>
            <episodeOfCare>
               <identifier>
                  <system value="urn:oid:2.16.840.1.113883.2.4.3.111.19.1"/>
                  <value value="MedMijHG-concern-L86.01"/>
               </identifier>
               <display value="Episode: MedMijHG-concern-L86.01 2.16.840.1.113883.2.4.3.111.19.1"/>
            </episodeOfCare>
            <participant>
               <type>
                  <coding>
                     <system value="http://hl7.org/fhir/v3/ParticipationType"/>
                     <code value="PRF"/>
                     <display value="Performer"/>
                  </coding>
               </type>
               <individual>
                  <extension url="http://nictiz.nl/fhir/StructureDefinition/practitionerrole-reference">
                     <valueReference>
                        <reference value="urn:uuid:7ec4422f-a2da-11ef-1473-020000000000"/>
                        <display value="Huisarts 1 || Gezondheidscentrum Aesculaap"/>
                     </valueReference>
                  </extension>
                  <reference value="https://example.org/fhir/Practitioner/2.16.528.1.1007.3.1-900016431"/>
                  <display value="Huisarts 1"/>
               </individual>
            </participant>
            <period>
               <start value="2020-03-25T12:56:45+01:00"/>
               <end value="2020-03-25T13:26:45+01:00"/>
            </period>
            <serviceProvider>
               <reference value="https://example.org/fhir/Organization/2.16.528.1.1007.3.3-00002727"/>
               <display value="Gezondheidscentrum Aesculaap"/>
            </serviceProvider>
         </Encounter>
      </resource>
      <search>
         <mode value="match"/>
      </search>
   </entry>
   <entry>
      <fullUrl value="https://example.org/fhir/Encounter/2.16.840.1.113883.2.4.3.111.19.1-MedMijHG-contactmoment10"/>
      <resource>
         <Encounter>
            <id value="2.16.840.1.113883.2.4.3.111.19.1-MedMijHG-contactmoment10"/>
            <meta>
               <profile value="http://nictiz.nl/fhir/StructureDefinition/gp-Encounter"/>
            </meta>
            <text>
               <status value="extensions"/>
               <div xmlns="http://www.w3.org/1999/xhtml">
                  <table>
                     <caption>Contact. Subject: J. XXX_Cevat. Id: MedMijHG-contactmoment10 (urn:oid:2.16.840.1.113883.2.4.3.111.19.1), Status: voltooid</caption>
                     <tbody>
                        <tr>
                           <th>Type contact</th>
                           <td>
                              <div>
                                 <span title="Ambulatory (AMB - v3/ActCode)">Ambulatory</span>
                              </div>
                              <span title="consult (03 - nhg-tabel-14-contactwijze)">consult</span>
                           </td>
                        </tr>
                        <tr>
                           <th>Periode</th>
                           <td>12:56:45 - 13:26:45 op 10 maart 2020</td>
                        </tr>
                        <tr>
                           <th>Participant</th>
                           <td>
                              <div>
                                 <span title="Performer (PRF - v3/ParticipationType)">Performer</span> - Huisarts 1 || Gezondheidscentrum Aesculaap</div>
                           </td>
                        </tr>
                        <tr>
                           <th>Zorgaanbieder</th>
                           <td>
                              <a href="https://example.org/fhir/Organization/2.16.528.1.1007.3.3-00002727">Gezondheidscentrum Aesculaap</a>
                           </td>
                        </tr>
                     </tbody>
                  </table>
               </div>
            </text>
            <identifier>
               <system value="urn:oid:2.16.840.1.113883.2.4.3.111.19.1"/>
               <value value="MedMijHG-contactmoment10"/>
            </identifier>
            <status value="finished"/>
            <class>
               <extension url="http://nictiz.nl/fhir/StructureDefinition/code-specification">
                  <valueCodeableConcept>
                     <coding>
                        <system value="https://referentiemodel.nhg.org/tabellen/nhg-tabel-14-contactwijze"/>
                        <version value="v3"/>
                        <code value="03"/>
                        <display value="consult"/>
                     </coding>
                  </valueCodeableConcept>
               </extension>
               <system value="http://hl7.org/fhir/v3/ActCode"/>
               <code value="AMB"/>
               <display value="Ambulatory"/>
            </class>
            <type>
               <coding>
                  <system value="https://referentiemodel.nhg.org/tabellen/nhg-tabel-14-contactwijze"/>
                  <version value="v3"/>
                  <code value="03"/>
                  <display value="consult"/>
               </coding>
            </type>
            <subject>
               <reference value="urn:uuid:7ec44200-a2da-11ef-1473-020000000000"/>
               <display value="J. XXX_Cevat"/>
            </subject>
            <episodeOfCare>
               <identifier>
                  <system value="urn:oid:2.16.840.1.113883.2.4.3.111.19.1"/>
                  <value value="MedMijHG-concern-R21.01"/>
               </identifier>
               <display value="Episode: MedMijHG-concern-R21.01 2.16.840.1.113883.2.4.3.111.19.1"/>
            </episodeOfCare>
            <participant>
               <type>
                  <coding>
                     <system value="http://hl7.org/fhir/v3/ParticipationType"/>
                     <code value="PRF"/>
                     <display value="Performer"/>
                  </coding>
               </type>
               <individual>
                  <extension url="http://nictiz.nl/fhir/StructureDefinition/practitionerrole-reference">
                     <valueReference>
                        <reference value="urn:uuid:7ec4422f-a2da-11ef-1473-020000000000"/>
                        <display value="Huisarts 1 || Gezondheidscentrum Aesculaap"/>
                     </valueReference>
                  </extension>
                  <reference value="https://example.org/fhir/Practitioner/2.16.528.1.1007.3.1-900016431"/>
                  <display value="Huisarts 1"/>
               </individual>
            </participant>
            <period>
               <start value="2020-03-10T12:56:45+01:00"/>
               <end value="2020-03-10T13:26:45+01:00"/>
            </period>
            <serviceProvider>
               <reference value="https://example.org/fhir/Organization/2.16.528.1.1007.3.3-00002727"/>
               <display value="Gezondheidscentrum Aesculaap"/>
            </serviceProvider>
         </Encounter>
      </resource>
      <search>
         <mode value="match"/>
      </search>
   </entry>
   <entry>
      <fullUrl value="https://example.org/fhir/Encounter/2.16.840.1.113883.2.4.3.111.19.1-MedMijHG-contactmoment04"/>
      <resource>
         <Encounter>
            <id value="2.16.840.1.113883.2.4.3.111.19.1-MedMijHG-contactmoment04"/>
            <meta>
               <profile value="http://nictiz.nl/fhir/StructureDefinition/gp-Encounter"/>
            </meta>
            <text>
               <status value="extensions"/>
               <div xmlns="http://www.w3.org/1999/xhtml">
                  <table>
                     <caption>Contact. Subject: J. XXX_Cevat. Id: MedMijHG-contactmoment04 (urn:oid:2.16.840.1.113883.2.4.3.111.19.1), Status: voltooid</caption>
                     <tbody>
                        <tr>
                           <th>Type contact</th>
                           <td>
                              <div>
                                 <span title="Ambulatory (AMB - v3/ActCode)">Ambulatory</span>
                              </div>
                              <span title="consult (03 - nhg-tabel-14-contactwijze)">consult</span>
                           </td>
                        </tr>
                        <tr>
                           <th>Periode</th>
                           <td>12:56:45 - 13:26:45 op 5 maart 2020</td>
                        </tr>
                        <tr>
                           <th>Participant</th>
                           <td>
                              <div>
                                 <span title="Performer (PRF - v3/ParticipationType)">Performer</span> - Huisarts 1 || Gezondheidscentrum Aesculaap</div>
                           </td>
                        </tr>
                        <tr>
                           <th>Zorgaanbieder</th>
                           <td>
                              <a href="https://example.org/fhir/Organization/2.16.528.1.1007.3.3-00002727">Gezondheidscentrum Aesculaap</a>
                           </td>
                        </tr>
                     </tbody>
                  </table>
               </div>
            </text>
            <identifier>
               <system value="urn:oid:2.16.840.1.113883.2.4.3.111.19.1"/>
               <value value="MedMijHG-contactmoment04"/>
            </identifier>
            <status value="finished"/>
            <class>
               <extension url="http://nictiz.nl/fhir/StructureDefinition/code-specification">
                  <valueCodeableConcept>
                     <coding>
                        <system value="https://referentiemodel.nhg.org/tabellen/nhg-tabel-14-contactwijze"/>
                        <version value="v3"/>
                        <code value="03"/>
                        <display value="consult"/>
                     </coding>
                  </valueCodeableConcept>
               </extension>
               <system value="http://hl7.org/fhir/v3/ActCode"/>
               <code value="AMB"/>
               <display value="Ambulatory"/>
            </class>
            <type>
               <coding>
                  <system value="https://referentiemodel.nhg.org/tabellen/nhg-tabel-14-contactwijze"/>
                  <version value="v3"/>
                  <code value="03"/>
                  <display value="consult"/>
               </coding>
            </type>
            <subject>
               <reference value="urn:uuid:7ec44200-a2da-11ef-1473-020000000000"/>
               <display value="J. XXX_Cevat"/>
            </subject>
            <episodeOfCare>
               <identifier>
                  <system value="urn:oid:2.16.840.1.113883.2.4.3.111.19.1"/>
                  <value value="MedMijHG-concern-L86.01"/>
               </identifier>
               <display value="Episode: MedMijHG-concern-L86.01 2.16.840.1.113883.2.4.3.111.19.1"/>
            </episodeOfCare>
            <participant>
               <type>
                  <coding>
                     <system value="http://hl7.org/fhir/v3/ParticipationType"/>
                     <code value="PRF"/>
                     <display value="Performer"/>
                  </coding>
               </type>
               <individual>
                  <extension url="http://nictiz.nl/fhir/StructureDefinition/practitionerrole-reference">
                     <valueReference>
                        <reference value="urn:uuid:7ec4422f-a2da-11ef-1473-020000000000"/>
                        <display value="Huisarts 1 || Gezondheidscentrum Aesculaap"/>
                     </valueReference>
                  </extension>
                  <reference value="https://example.org/fhir/Practitioner/2.16.528.1.1007.3.1-900016431"/>
                  <display value="Huisarts 1"/>
               </individual>
            </participant>
            <period>
               <start value="2020-03-05T12:56:45+01:00"/>
               <end value="2020-03-05T13:26:45+01:00"/>
            </period>
            <serviceProvider>
               <reference value="https://example.org/fhir/Organization/2.16.528.1.1007.3.3-00002727"/>
               <display value="Gezondheidscentrum Aesculaap"/>
            </serviceProvider>
         </Encounter>
      </resource>
      <search>
         <mode value="match"/>
      </search>
   </entry>
   <entry>
      <fullUrl value="https://example.org/fhir/Encounter/2.16.840.1.113883.2.4.3.111.19.1-MedMijHG-contactmoment06"/>
      <resource>
         <Encounter>
            <id value="2.16.840.1.113883.2.4.3.111.19.1-MedMijHG-contactmoment06"/>
            <meta>
               <profile value="http://nictiz.nl/fhir/StructureDefinition/gp-Encounter"/>
            </meta>
            <text>
               <status value="extensions"/>
               <div xmlns="http://www.w3.org/1999/xhtml">
                  <table>
                     <caption>Contact. Subject: J. XXX_Cevat. Id: MedMijHG-contactmoment06 (urn:oid:2.16.840.1.113883.2.4.3.111.19.1), Status: voltooid</caption>
                     <tbody>
                        <tr>
                           <th>Type contact</th>
                           <td>
                              <div>
                                 <span title="Ambulatory (AMB - v3/ActCode)">Ambulatory</span>
                              </div>
                              <span title="consult (03 - nhg-tabel-14-contactwijze)">consult</span>
                           </td>
                        </tr>
                        <tr>
                           <th>Periode</th>
                           <td>12:56:45 - 13:26:45 op 4 februari 2020</td>
                        </tr>
                        <tr>
                           <th>Participant</th>
                           <td>
                              <div>
                                 <span title="Performer (PRF - v3/ParticipationType)">Performer</span> - Huisarts 1 || Gezondheidscentrum Aesculaap</div>
                           </td>
                        </tr>
                        <tr>
                           <th>Zorgaanbieder</th>
                           <td>
                              <a href="https://example.org/fhir/Organization/2.16.528.1.1007.3.3-00002727">Gezondheidscentrum Aesculaap</a>
                           </td>
                        </tr>
                     </tbody>
                  </table>
               </div>
            </text>
            <identifier>
               <system value="urn:oid:2.16.840.1.113883.2.4.3.111.19.1"/>
               <value value="MedMijHG-contactmoment06"/>
            </identifier>
            <status value="finished"/>
            <class>
               <extension url="http://nictiz.nl/fhir/StructureDefinition/code-specification">
                  <valueCodeableConcept>
                     <coding>
                        <system value="https://referentiemodel.nhg.org/tabellen/nhg-tabel-14-contactwijze"/>
                        <version value="v3"/>
                        <code value="03"/>
                        <display value="consult"/>
                     </coding>
                  </valueCodeableConcept>
               </extension>
               <system value="http://hl7.org/fhir/v3/ActCode"/>
               <code value="AMB"/>
               <display value="Ambulatory"/>
            </class>
            <type>
               <coding>
                  <system value="https://referentiemodel.nhg.org/tabellen/nhg-tabel-14-contactwijze"/>
                  <version value="v3"/>
                  <code value="03"/>
                  <display value="consult"/>
               </coding>
            </type>
            <subject>
               <reference value="urn:uuid:7ec44200-a2da-11ef-1473-020000000000"/>
               <display value="J. XXX_Cevat"/>
            </subject>
            <episodeOfCare>
               <identifier>
                  <system value="urn:oid:2.16.840.1.113883.2.4.3.111.19.1"/>
                  <value value="MedMijHG-concern-R21.01"/>
               </identifier>
               <display value="Episode: MedMijHG-concern-R21.01 2.16.840.1.113883.2.4.3.111.19.1"/>
            </episodeOfCare>
            <participant>
               <type>
                  <coding>
                     <system value="http://hl7.org/fhir/v3/ParticipationType"/>
                     <code value="PRF"/>
                     <display value="Performer"/>
                  </coding>
               </type>
               <individual>
                  <extension url="http://nictiz.nl/fhir/StructureDefinition/practitionerrole-reference">
                     <valueReference>
                        <reference value="urn:uuid:7ec4422f-a2da-11ef-1473-020000000000"/>
                        <display value="Huisarts 1 || Gezondheidscentrum Aesculaap"/>
                     </valueReference>
                  </extension>
                  <reference value="https://example.org/fhir/Practitioner/2.16.528.1.1007.3.1-900016431"/>
                  <display value="Huisarts 1"/>
               </individual>
            </participant>
            <period>
               <start value="2020-02-04T12:56:45+01:00"/>
               <end value="2020-02-04T13:26:45+01:00"/>
            </period>
            <serviceProvider>
               <reference value="https://example.org/fhir/Organization/2.16.528.1.1007.3.3-00002727"/>
               <display value="Gezondheidscentrum Aesculaap"/>
            </serviceProvider>
         </Encounter>
      </resource>
      <search>
         <mode value="match"/>
      </search>
   </entry>
   <entry>
      <fullUrl value="https://example.org/fhir/Encounter/2.16.840.1.113883.2.4.3.111.19.1-MedMijHG-contactmomentMMK"/>
      <resource>
         <Encounter>
            <id value="2.16.840.1.113883.2.4.3.111.19.1-MedMijHG-contactmomentMMK"/>
            <meta>
               <profile value="http://nictiz.nl/fhir/StructureDefinition/gp-Encounter"/>
            </meta>
            <text>
               <status value="extensions"/>
               <div xmlns="http://www.w3.org/1999/xhtml">
                  <table>
                     <caption>Contact. Subject: J. XXX_Cevat. Id: MedMijHG-contactmomentMMK (urn:oid:2.16.840.1.113883.2.4.3.111.19.1), Status: voltooid</caption>
                     <tbody>
                        <tr>
                           <th>Type contact</th>
                           <td>
                              <div>
                                 <span title="Ambulatory (AMB - v3/ActCode)">Ambulatory</span>
                              </div>
                              <span title="consult (03 - nhg-tabel-14-contactwijze)">consult</span>
                           </td>
                        </tr>
                        <tr>
                           <th>Periode</th>
                           <td>12:56:45 - 13:26:45 op 25 januari 2020</td>
                        </tr>
                        <tr>
                           <th>Participant</th>
                           <td>
                              <div>
                                 <span title="Performer (PRF - v3/ParticipationType)">Performer</span> - Huisarts 1 || Gezondheidscentrum Aesculaap</div>
                           </td>
                        </tr>
                        <tr>
                           <th>Zorgaanbieder</th>
                           <td>
                              <a href="https://example.org/fhir/Organization/2.16.528.1.1007.3.3-00002727">Gezondheidscentrum Aesculaap</a>
                           </td>
                        </tr>
                     </tbody>
                  </table>
               </div>
            </text>
            <identifier>
               <system value="urn:oid:2.16.840.1.113883.2.4.3.111.19.1"/>
               <value value="MedMijHG-contactmomentMMK"/>
            </identifier>
            <status value="finished"/>
            <class>
               <extension url="http://nictiz.nl/fhir/StructureDefinition/code-specification">
                  <valueCodeableConcept>
                     <coding>
                        <system value="https://referentiemodel.nhg.org/tabellen/nhg-tabel-14-contactwijze"/>
                        <version value="v3"/>
                        <code value="03"/>
                        <display value="consult"/>
                     </coding>
                  </valueCodeableConcept>
               </extension>
               <system value="http://hl7.org/fhir/v3/ActCode"/>
               <code value="AMB"/>
               <display value="Ambulatory"/>
            </class>
            <type>
               <coding>
                  <system value="https://referentiemodel.nhg.org/tabellen/nhg-tabel-14-contactwijze"/>
                  <version value="v3"/>
                  <code value="03"/>
                  <display value="consult"/>
               </coding>
            </type>
            <subject>
               <reference value="urn:uuid:7ec44200-a2da-11ef-1473-020000000000"/>
               <display value="J. XXX_Cevat"/>
            </subject>
            <episodeOfCare>
               <identifier>
                  <system value="urn:oid:2.16.840.1.113883.2.4.3.111.19.1"/>
                  <value value="MedMijHG-concern-R96"/>
               </identifier>
               <display value="Episode: MedMijHG-concern-R96 2.16.840.1.113883.2.4.3.111.19.1"/>
            </episodeOfCare>
            <participant>
               <type>
                  <coding>
                     <system value="http://hl7.org/fhir/v3/ParticipationType"/>
                     <code value="PRF"/>
                     <display value="Performer"/>
                  </coding>
               </type>
               <individual>
                  <extension url="http://nictiz.nl/fhir/StructureDefinition/practitionerrole-reference">
                     <valueReference>
                        <reference value="urn:uuid:7ec4422f-a2da-11ef-1473-020000000000"/>
                        <display value="Huisarts 1 || Gezondheidscentrum Aesculaap"/>
                     </valueReference>
                  </extension>
                  <reference value="https://example.org/fhir/Practitioner/2.16.528.1.1007.3.1-900016431"/>
                  <display value="Huisarts 1"/>
               </individual>
            </participant>
            <period>
               <start value="2020-01-25T12:56:45+01:00"/>
               <end value="2020-01-25T13:26:45+01:00"/>
            </period>
            <serviceProvider>
               <reference value="https://example.org/fhir/Organization/2.16.528.1.1007.3.3-00002727"/>
               <display value="Gezondheidscentrum Aesculaap"/>
            </serviceProvider>
         </Encounter>
      </resource>
      <search>
         <mode value="match"/>
      </search>
   </entry>
   <entry>
      <fullUrl value="https://example.org/fhir/Encounter/2.16.840.1.113883.2.4.3.111.19.1-MedMijHG-contactmoment09"/>
      <resource>
         <Encounter>
            <id value="2.16.840.1.113883.2.4.3.111.19.1-MedMijHG-contactmoment09"/>
            <meta>
               <profile value="http://nictiz.nl/fhir/StructureDefinition/gp-Encounter"/>
            </meta>
            <text>
               <status value="extensions"/>
               <div xmlns="http://www.w3.org/1999/xhtml">
                  <table>
                     <caption>Contact. Subject: J. XXX_Cevat. Id: MedMijHG-contactmoment09 (urn:oid:2.16.840.1.113883.2.4.3.111.19.1), Status: voltooid</caption>
                     <tbody>
                        <tr>
                           <th>Type contact</th>
                           <td>
                              <div>
                                 <span title="Ambulatory (AMB - v3/ActCode)">Ambulatory</span>
                              </div>
                              <span title="consult (03 - nhg-tabel-14-contactwijze)">consult</span>
                           </td>
                        </tr>
                        <tr>
                           <th>Periode</th>
                           <td>12:56:45 - 13:26:45 op 15 januari 2020</td>
                        </tr>
                        <tr>
                           <th>Participant</th>
                           <td>
                              <div>
                                 <span title="Performer (PRF - v3/ParticipationType)">Performer</span> - Huisarts 1 || Gezondheidscentrum Aesculaap</div>
                           </td>
                        </tr>
                        <tr>
                           <th>Zorgaanbieder</th>
                           <td>
                              <a href="https://example.org/fhir/Organization/2.16.528.1.1007.3.3-00002727">Gezondheidscentrum Aesculaap</a>
                           </td>
                        </tr>
                     </tbody>
                  </table>
               </div>
            </text>
            <identifier>
               <system value="urn:oid:2.16.840.1.113883.2.4.3.111.19.1"/>
               <value value="MedMijHG-contactmoment09"/>
            </identifier>
            <status value="finished"/>
            <class>
               <extension url="http://nictiz.nl/fhir/StructureDefinition/code-specification">
                  <valueCodeableConcept>
                     <coding>
                        <system value="https://referentiemodel.nhg.org/tabellen/nhg-tabel-14-contactwijze"/>
                        <version value="v3"/>
                        <code value="03"/>
                        <display value="consult"/>
                     </coding>
                  </valueCodeableConcept>
               </extension>
               <system value="http://hl7.org/fhir/v3/ActCode"/>
               <code value="AMB"/>
               <display value="Ambulatory"/>
            </class>
            <type>
               <coding>
                  <system value="https://referentiemodel.nhg.org/tabellen/nhg-tabel-14-contactwijze"/>
                  <version value="v3"/>
                  <code value="03"/>
                  <display value="consult"/>
               </coding>
            </type>
            <subject>
               <reference value="urn:uuid:7ec44200-a2da-11ef-1473-020000000000"/>
               <display value="J. XXX_Cevat"/>
            </subject>
            <episodeOfCare>
               <identifier>
                  <system value="urn:oid:2.16.840.1.113883.2.4.3.111.19.1"/>
                  <value value="MedMijHG-concern-S74.01"/>
               </identifier>
               <display value="Episode: MedMijHG-concern-S74.01 2.16.840.1.113883.2.4.3.111.19.1"/>
            </episodeOfCare>
            <participant>
               <type>
                  <coding>
                     <system value="http://hl7.org/fhir/v3/ParticipationType"/>
                     <code value="PRF"/>
                     <display value="Performer"/>
                  </coding>
               </type>
               <individual>
                  <extension url="http://nictiz.nl/fhir/StructureDefinition/practitionerrole-reference">
                     <valueReference>
                        <reference value="urn:uuid:7ec4422f-a2da-11ef-1473-020000000000"/>
                        <display value="Huisarts 1 || Gezondheidscentrum Aesculaap"/>
                     </valueReference>
                  </extension>
                  <reference value="https://example.org/fhir/Practitioner/2.16.528.1.1007.3.1-900016431"/>
                  <display value="Huisarts 1"/>
               </individual>
            </participant>
            <period>
               <start value="2020-01-15T12:56:45+01:00"/>
               <end value="2020-01-15T13:26:45+01:00"/>
            </period>
            <serviceProvider>
               <reference value="https://example.org/fhir/Organization/2.16.528.1.1007.3.3-00002727"/>
               <display value="Gezondheidscentrum Aesculaap"/>
            </serviceProvider>
         </Encounter>
      </resource>
      <search>
         <mode value="match"/>
      </search>
   </entry>
   <entry>
      <fullUrl value="https://example.org/fhir/Encounter/2.16.840.1.113883.2.4.3.111.19.1-MedMijHG-contactmoment08"/>
      <resource>
         <Encounter>
            <id value="2.16.840.1.113883.2.4.3.111.19.1-MedMijHG-contactmoment08"/>
            <meta>
               <profile value="http://nictiz.nl/fhir/StructureDefinition/gp-Encounter"/>
            </meta>
            <text>
               <status value="extensions"/>
               <div xmlns="http://www.w3.org/1999/xhtml">
                  <table>
                     <caption>Contact. Subject: J. XXX_Cevat. Id: MedMijHG-contactmoment08 (urn:oid:2.16.840.1.113883.2.4.3.111.19.1), Status: voltooid</caption>
                     <tbody>
                        <tr>
                           <th>Type contact</th>
                           <td>
                              <div>
                                 <span title="Ambulatory (AMB - v3/ActCode)">Ambulatory</span>
                              </div>
                              <span title="consult (03 - nhg-tabel-14-contactwijze)">consult</span>
                           </td>
                        </tr>
                        <tr>
                           <th>Periode</th>
                           <td>12:56:45 - 13:26:45 op 10 januari 2020</td>
                        </tr>
                        <tr>
                           <th>Participant</th>
                           <td>
                              <div>
                                 <span title="Performer (PRF - v3/ParticipationType)">Performer</span> - Huisarts 1 || Gezondheidscentrum Aesculaap</div>
                           </td>
                        </tr>
                        <tr>
                           <th>Zorgaanbieder</th>
                           <td>
                              <a href="https://example.org/fhir/Organization/2.16.528.1.1007.3.3-00002727">Gezondheidscentrum Aesculaap</a>
                           </td>
                        </tr>
                     </tbody>
                  </table>
               </div>
            </text>
            <identifier>
               <system value="urn:oid:2.16.840.1.113883.2.4.3.111.19.1"/>
               <value value="MedMijHG-contactmoment08"/>
            </identifier>
            <status value="finished"/>
            <class>
               <extension url="http://nictiz.nl/fhir/StructureDefinition/code-specification">
                  <valueCodeableConcept>
                     <coding>
                        <system value="https://referentiemodel.nhg.org/tabellen/nhg-tabel-14-contactwijze"/>
                        <version value="v3"/>
                        <code value="03"/>
                        <display value="consult"/>
                     </coding>
                  </valueCodeableConcept>
               </extension>
               <system value="http://hl7.org/fhir/v3/ActCode"/>
               <code value="AMB"/>
               <display value="Ambulatory"/>
            </class>
            <type>
               <coding>
                  <system value="https://referentiemodel.nhg.org/tabellen/nhg-tabel-14-contactwijze"/>
                  <version value="v3"/>
                  <code value="03"/>
                  <display value="consult"/>
               </coding>
            </type>
            <subject>
               <reference value="urn:uuid:7ec44200-a2da-11ef-1473-020000000000"/>
               <display value="J. XXX_Cevat"/>
            </subject>
            <episodeOfCare>
               <identifier>
                  <system value="urn:oid:2.16.840.1.113883.2.4.3.111.19.1"/>
                  <value value="MedMijHG-concern-S04"/>
               </identifier>
               <display value="Episode: MedMijHG-concern-S04 2.16.840.1.113883.2.4.3.111.19.1"/>
            </episodeOfCare>
            <participant>
               <type>
                  <coding>
                     <system value="http://hl7.org/fhir/v3/ParticipationType"/>
                     <code value="PRF"/>
                     <display value="Performer"/>
                  </coding>
               </type>
               <individual>
                  <extension url="http://nictiz.nl/fhir/StructureDefinition/practitionerrole-reference">
                     <valueReference>
                        <reference value="urn:uuid:7ec4422f-a2da-11ef-1473-020000000000"/>
                        <display value="Huisarts 1 || Gezondheidscentrum Aesculaap"/>
                     </valueReference>
                  </extension>
                  <reference value="https://example.org/fhir/Practitioner/2.16.528.1.1007.3.1-900016431"/>
                  <display value="Huisarts 1"/>
               </individual>
            </participant>
            <period>
               <start value="2020-01-10T12:56:45+01:00"/>
               <end value="2020-01-10T13:26:45+01:00"/>
            </period>
            <serviceProvider>
               <reference value="https://example.org/fhir/Organization/2.16.528.1.1007.3.3-00002727"/>
               <display value="Gezondheidscentrum Aesculaap"/>
            </serviceProvider>
         </Encounter>
      </resource>
      <search>
         <mode value="match"/>
      </search>
   </entry>
   <entry>
      <fullUrl value="https://example.org/fhir/Encounter/2.16.840.1.113883.2.4.3.111.19.1-MedMijHG-contactmoment03"/>
      <resource>
         <Encounter>
            <id value="2.16.840.1.113883.2.4.3.111.19.1-MedMijHG-contactmoment03"/>
            <meta>
               <profile value="http://nictiz.nl/fhir/StructureDefinition/gp-Encounter"/>
            </meta>
            <text>
               <status value="extensions"/>
               <div xmlns="http://www.w3.org/1999/xhtml">
                  <table>
                     <caption>Contact. Subject: J. XXX_Cevat. Id: MedMijHG-contactmoment03 (urn:oid:2.16.840.1.113883.2.4.3.111.19.1), Status: voltooid</caption>
                     <tbody>
                        <tr>
                           <th>Type contact</th>
                           <td>
                              <div>
                                 <span title="Ambulatory (AMB - v3/ActCode)">Ambulatory</span>
                              </div>
                              <span title="consult (03 - nhg-tabel-14-contactwijze)">consult</span>
                           </td>
                        </tr>
                        <tr>
                           <th>Periode</th>
                           <td>13:56:45 - 14:26:45 op 9 juli 2019</td>
                        </tr>
                        <tr>
                           <th>Participant</th>
                           <td>
                              <div>
                                 <span title="Performer (PRF - v3/ParticipationType)">Performer</span> - Huisarts 1 || Gezondheidscentrum Aesculaap</div>
                           </td>
                        </tr>
                        <tr>
                           <th>Zorgaanbieder</th>
                           <td>
                              <a href="https://example.org/fhir/Organization/2.16.528.1.1007.3.3-00002727">Gezondheidscentrum Aesculaap</a>
                           </td>
                        </tr>
                     </tbody>
                  </table>
               </div>
            </text>
            <identifier>
               <system value="urn:oid:2.16.840.1.113883.2.4.3.111.19.1"/>
               <value value="MedMijHG-contactmoment03"/>
            </identifier>
            <status value="finished"/>
            <class>
               <extension url="http://nictiz.nl/fhir/StructureDefinition/code-specification">
                  <valueCodeableConcept>
                     <coding>
                        <system value="https://referentiemodel.nhg.org/tabellen/nhg-tabel-14-contactwijze"/>
                        <version value="v3"/>
                        <code value="03"/>
                        <display value="consult"/>
                     </coding>
                  </valueCodeableConcept>
               </extension>
               <system value="http://hl7.org/fhir/v3/ActCode"/>
               <code value="AMB"/>
               <display value="Ambulatory"/>
            </class>
            <type>
               <coding>
                  <system value="https://referentiemodel.nhg.org/tabellen/nhg-tabel-14-contactwijze"/>
                  <version value="v3"/>
                  <code value="03"/>
                  <display value="consult"/>
               </coding>
            </type>
            <subject>
               <reference value="urn:uuid:7ec44200-a2da-11ef-1473-020000000000"/>
               <display value="J. XXX_Cevat"/>
            </subject>
            <participant>
               <type>
                  <coding>
                     <system value="http://hl7.org/fhir/v3/ParticipationType"/>
                     <code value="PRF"/>
                     <display value="Performer"/>
                  </coding>
               </type>
               <individual>
                  <extension url="http://nictiz.nl/fhir/StructureDefinition/practitionerrole-reference">
                     <valueReference>
                        <reference value="urn:uuid:7ec4422f-a2da-11ef-1473-020000000000"/>
                        <display value="Huisarts 1 || Gezondheidscentrum Aesculaap"/>
                     </valueReference>
                  </extension>
                  <reference value="https://example.org/fhir/Practitioner/2.16.528.1.1007.3.1-900016431"/>
                  <display value="Huisarts 1"/>
               </individual>
            </participant>
            <period>
               <start value="2019-07-09T13:56:45+02:00"/>
               <end value="2019-07-09T14:26:45+02:00"/>
            </period>
            <serviceProvider>
               <reference value="https://example.org/fhir/Organization/2.16.528.1.1007.3.3-00002727"/>
               <display value="Gezondheidscentrum Aesculaap"/>
            </serviceProvider>
         </Encounter>
      </resource>
      <search>
         <mode value="match"/>
      </search>
   </entry>
   <entry>
      <fullUrl value="https://example.org/fhir/Encounter/2.16.840.1.113883.2.4.3.111.19.1-MedMijHG-contactmoment02"/>
      <resource>
         <Encounter>
            <id value="2.16.840.1.113883.2.4.3.111.19.1-MedMijHG-contactmoment02"/>
            <meta>
               <profile value="http://nictiz.nl/fhir/StructureDefinition/gp-Encounter"/>
            </meta>
            <text>
               <status value="extensions"/>
               <div xmlns="http://www.w3.org/1999/xhtml">
                  <table>
                     <caption>Contact. Subject: J. XXX_Cevat. Id: MedMijHG-contactmoment02 (urn:oid:2.16.840.1.113883.2.4.3.111.19.1), Status: voltooid</caption>
                     <tbody>
                        <tr>
                           <th>Type contact</th>
                           <td>
                              <div>
                                 <span title="Ambulatory (AMB - v3/ActCode)">Ambulatory</span>
                              </div>
                              <span title="consult (03 - nhg-tabel-14-contactwijze)">consult</span>
                           </td>
                        </tr>
                        <tr>
                           <th>Periode</th>
                           <td>13:56:45 - 14:26:45 op 19 juni 2019</td>
                        </tr>
                        <tr>
                           <th>Participant</th>
                           <td>
                              <div>
                                 <span title="Performer (PRF - v3/ParticipationType)">Performer</span> - Huisarts 1 || Gezondheidscentrum Aesculaap</div>
                           </td>
                        </tr>
                        <tr>
                           <th>Zorgaanbieder</th>
                           <td>
                              <a href="https://example.org/fhir/Organization/2.16.528.1.1007.3.3-00002727">Gezondheidscentrum Aesculaap</a>
                           </td>
                        </tr>
                     </tbody>
                  </table>
               </div>
            </text>
            <identifier>
               <system value="urn:oid:2.16.840.1.113883.2.4.3.111.19.1"/>
               <value value="MedMijHG-contactmoment02"/>
            </identifier>
            <status value="finished"/>
            <class>
               <extension url="http://nictiz.nl/fhir/StructureDefinition/code-specification">
                  <valueCodeableConcept>
                     <coding>
                        <system value="https://referentiemodel.nhg.org/tabellen/nhg-tabel-14-contactwijze"/>
                        <version value="v3"/>
                        <code value="03"/>
                        <display value="consult"/>
                     </coding>
                  </valueCodeableConcept>
               </extension>
               <system value="http://hl7.org/fhir/v3/ActCode"/>
               <code value="AMB"/>
               <display value="Ambulatory"/>
            </class>
            <type>
               <coding>
                  <system value="https://referentiemodel.nhg.org/tabellen/nhg-tabel-14-contactwijze"/>
                  <version value="v3"/>
                  <code value="03"/>
                  <display value="consult"/>
               </coding>
            </type>
            <subject>
               <reference value="urn:uuid:7ec44200-a2da-11ef-1473-020000000000"/>
               <display value="J. XXX_Cevat"/>
            </subject>
            <participant>
               <type>
                  <coding>
                     <system value="http://hl7.org/fhir/v3/ParticipationType"/>
                     <code value="PRF"/>
                     <display value="Performer"/>
                  </coding>
               </type>
               <individual>
                  <extension url="http://nictiz.nl/fhir/StructureDefinition/practitionerrole-reference">
                     <valueReference>
                        <reference value="urn:uuid:7ec4422f-a2da-11ef-1473-020000000000"/>
                        <display value="Huisarts 1 || Gezondheidscentrum Aesculaap"/>
                     </valueReference>
                  </extension>
                  <reference value="https://example.org/fhir/Practitioner/2.16.528.1.1007.3.1-900016431"/>
                  <display value="Huisarts 1"/>
               </individual>
            </participant>
            <period>
               <start value="2019-06-19T13:56:45+02:00"/>
               <end value="2019-06-19T14:26:45+02:00"/>
            </period>
            <serviceProvider>
               <reference value="https://example.org/fhir/Organization/2.16.528.1.1007.3.3-00002727"/>
               <display value="Gezondheidscentrum Aesculaap"/>
            </serviceProvider>
         </Encounter>
      </resource>
      <search>
         <mode value="match"/>
      </search>
   </entry>
   <entry>
      <fullUrl value="https://example.org/fhir/Encounter/2.16.840.1.113883.2.4.3.111.19.1-MedMijHG-contactmoment01"/>
      <resource>
         <Encounter>
            <id value="2.16.840.1.113883.2.4.3.111.19.1-MedMijHG-contactmoment01"/>
            <meta>
               <profile value="http://nictiz.nl/fhir/StructureDefinition/gp-Encounter"/>
            </meta>
            <text>
               <status value="extensions"/>
               <div xmlns="http://www.w3.org/1999/xhtml">
                  <table>
                     <caption>Contact. Subject: J. XXX_Cevat. Id: MedMijHG-contactmoment01 (urn:oid:2.16.840.1.113883.2.4.3.111.19.1), Status: voltooid</caption>
                     <tbody>
                        <tr>
                           <th>Type contact</th>
                           <td>
                              <div>
                                 <span title="Ambulatory (AMB - v3/ActCode)">Ambulatory</span>
                              </div>
                              <span title="consult (03 - nhg-tabel-14-contactwijze)">consult</span>
                           </td>
                        </tr>
                        <tr>
                           <th>Periode</th>
                           <td>13:56:45 - 14:26:45 op 30 mei 2019</td>
                        </tr>
                        <tr>
                           <th>Participant</th>
                           <td>
                              <div>
                                 <span title="Performer (PRF - v3/ParticipationType)">Performer</span> - Huisarts 1 || Gezondheidscentrum Aesculaap</div>
                           </td>
                        </tr>
                        <tr>
                           <th>Zorgaanbieder</th>
                           <td>
                              <a href="https://example.org/fhir/Organization/2.16.528.1.1007.3.3-00002727">Gezondheidscentrum Aesculaap</a>
                           </td>
                        </tr>
                     </tbody>
                  </table>
               </div>
            </text>
            <identifier>
               <system value="urn:oid:2.16.840.1.113883.2.4.3.111.19.1"/>
               <value value="MedMijHG-contactmoment01"/>
            </identifier>
            <status value="finished"/>
            <class>
               <extension url="http://nictiz.nl/fhir/StructureDefinition/code-specification">
                  <valueCodeableConcept>
                     <coding>
                        <system value="https://referentiemodel.nhg.org/tabellen/nhg-tabel-14-contactwijze"/>
                        <version value="v3"/>
                        <code value="03"/>
                        <display value="consult"/>
                     </coding>
                  </valueCodeableConcept>
               </extension>
               <system value="http://hl7.org/fhir/v3/ActCode"/>
               <code value="AMB"/>
               <display value="Ambulatory"/>
            </class>
            <type>
               <coding>
                  <system value="https://referentiemodel.nhg.org/tabellen/nhg-tabel-14-contactwijze"/>
                  <version value="v3"/>
                  <code value="03"/>
                  <display value="consult"/>
               </coding>
            </type>
            <subject>
               <reference value="urn:uuid:7ec44200-a2da-11ef-1473-020000000000"/>
               <display value="J. XXX_Cevat"/>
            </subject>
            <episodeOfCare>
               <identifier>
                  <system value="urn:oid:2.16.840.1.113883.2.4.3.111.19.1"/>
                  <value value="MedMijHG-concern-K78"/>
               </identifier>
               <display value="Episode: MedMijHG-concern-K78 2.16.840.1.113883.2.4.3.111.19.1"/>
            </episodeOfCare>
            <participant>
               <type>
                  <coding>
                     <system value="http://hl7.org/fhir/v3/ParticipationType"/>
                     <code value="PRF"/>
                     <display value="Performer"/>
                  </coding>
               </type>
               <individual>
                  <extension url="http://nictiz.nl/fhir/StructureDefinition/practitionerrole-reference">
                     <valueReference>
                        <reference value="urn:uuid:7ec4422f-a2da-11ef-1473-020000000000"/>
                        <display value="Huisarts 1 || Gezondheidscentrum Aesculaap"/>
                     </valueReference>
                  </extension>
                  <reference value="https://example.org/fhir/Practitioner/2.16.528.1.1007.3.1-900016431"/>
                  <display value="Huisarts 1"/>
               </individual>
            </participant>
            <period>
               <start value="2019-05-30T13:56:45+02:00"/>
               <end value="2019-05-30T14:26:45+02:00"/>
            </period>
            <serviceProvider>
               <reference value="https://example.org/fhir/Organization/2.16.528.1.1007.3.3-00002727"/>
               <display value="Gezondheidscentrum Aesculaap"/>
            </serviceProvider>
         </Encounter>
      </resource>
      <search>
         <mode value="match"/>
      </search>
   </entry>
   <entry>
      <fullUrl value="urn:uuid:7ec456be-a2da-11ef-1473-020000000000"/>
      <resource>
         <Encounter>
            <meta>
               <profile value="http://nictiz.nl/fhir/StructureDefinition/gp-Encounter"/>
            </meta>
            <text>
               <status value="extensions"/>
               <div xmlns="http://www.w3.org/1999/xhtml">
                  <table>
                     <caption>Contact. Subject: J. XXX_Cevat. Id: MedMijHG-contactmomentherhaalrecept (urn:oid:2.16.840.1.113883.2.4.3.111.19.1), Status: voltooid</caption>
                     <tbody>
                        <tr>
                           <th>Type contact</th>
                           <td>
                              <div/>
                              <span title="Herhaalrecept (10 - nhg-tabel-14-contactwijze)">Herhaalrecept</span>
                           </td>
                        </tr>
                        <tr>
                           <th>Periode</th>
                           <td>13:56:45 - 14:26:45 op 23 juni 2020</td>
                        </tr>
                        <tr>
                           <th>Participant</th>
                           <td>
                              <div>
                                 <span title="Performer (PRF - v3/ParticipationType)">Performer</span> - Huisarts 1 || Gezondheidscentrum Aesculaap</div>
                           </td>
                        </tr>
                        <tr>
                           <th>Zorgaanbieder</th>
                           <td>
                              <a href="https://example.org/fhir/Organization/2.16.528.1.1007.3.3-00002727">Gezondheidscentrum Aesculaap</a>
                           </td>
                        </tr>
                     </tbody>
                  </table>
               </div>
            </text>
            <identifier>
               <system value="urn:oid:2.16.840.1.113883.2.4.3.111.19.1"/>
               <value value="MedMijHG-contactmomentherhaalrecept"/>
            </identifier>
            <status value="finished"/>
            <class>
               <extension url="http://nictiz.nl/fhir/StructureDefinition/code-specification">
                  <valueCodeableConcept>
                     <coding>
                        <system value="https://referentiemodel.nhg.org/tabellen/nhg-tabel-14-contactwijze"/>
                        <version value="v3"/>
                        <code value="10"/>
                        <display value="Herhaalrecept"/>
                     </coding>
                  </valueCodeableConcept>
               </extension>
               <extension url="http://hl7.org/fhir/StructureDefinition/iso21090-nullFlavor">
                  <valueCode value="OTH"/>
               </extension>
            </class>
            <type>
               <coding>
                  <system value="https://referentiemodel.nhg.org/tabellen/nhg-tabel-14-contactwijze"/>
                  <version value="v3"/>
                  <code value="10"/>
                  <display value="Herhaalrecept"/>
               </coding>
            </type>
            <subject>
               <reference value="urn:uuid:7ec44200-a2da-11ef-1473-020000000000"/>
               <display value="J. XXX_Cevat"/>
            </subject>
            <episodeOfCare>
               <identifier>
                  <system value="urn:oid:2.16.840.1.113883.2.4.3.111.19.1"/>
                  <value value="MedMijHG-concern-R21.01"/>
               </identifier>
               <display value="Episode: MedMijHG-concern-R21.01 2.16.840.1.113883.2.4.3.111.19.1"/>
            </episodeOfCare>
            <participant>
               <type>
                  <coding>
                     <system value="http://hl7.org/fhir/v3/ParticipationType"/>
                     <code value="PRF"/>
                     <display value="Performer"/>
                  </coding>
               </type>
               <individual>
                  <extension url="http://nictiz.nl/fhir/StructureDefinition/practitionerrole-reference">
                     <valueReference>
                        <reference value="urn:uuid:7ec4422f-a2da-11ef-1473-020000000000"/>
                        <display value="Huisarts 1 || Gezondheidscentrum Aesculaap"/>
                     </valueReference>
                  </extension>
                  <reference value="https://example.org/fhir/Practitioner/2.16.528.1.1007.3.1-900016431"/>
                  <display value="Huisarts 1"/>
               </individual>
            </participant>
            <period>
               <start value="2020-06-23T13:56:45+02:00"/>
               <end value="2020-06-23T14:26:45+02:00"/>
            </period>
            <serviceProvider>
               <reference value="https://example.org/fhir/Organization/2.16.528.1.1007.3.3-00002727"/>
               <display value="Gezondheidscentrum Aesculaap"/>
            </serviceProvider>
         </Encounter>
      </resource>
      <search>
         <mode value="match"/>
      </search>
   </entry>
   <entry>
      <fullUrl value="urn:uuid:7ec44200-a2da-11ef-1473-020000000000"/>
      <resource>
         <Patient>
            <meta>
               <profile value="http://fhir.nl/fhir/StructureDefinition/nl-core-patient"/>
            </meta>
            <text>
               <status value="extensions"/>
               <div xmlns="http://www.w3.org/1999/xhtml">
                  <div>Id 
<i>afgeschermd (ontbrekend gegeven)</i> (BSN), 
<span title="Naamsamenstelling: Eigennaam">J. XXX_Cevat</span>, Man, 30 december 1985</div>
                  <div>Knolweg 1003, 9999ZA STITSWERD, NL</div>
               </div>
            </text>
            <identifier>
               <system value="http://fhir.nl/fhir/NamingSystem/bsn"/>
               <value>
                  <extension url="http://hl7.org/fhir/StructureDefinition/data-absent-reason">
                     <valueCode value="masked"/>
                  </extension>
               </value>
            </identifier>
            <name>
               <extension url="http://hl7.org/fhir/StructureDefinition/humanname-assembly-order">
                  <valueCode value="NL1"/>
               </extension>
               <family value="XXX_Cevat">
                  <extension url="http://hl7.org/fhir/StructureDefinition/humanname-own-name">
                     <valueString value="XXX_Cevat"/>
                  </extension>
               </family>
               <given value="J.">
                  <extension url="http://hl7.org/fhir/StructureDefinition/iso21090-EN-qualifier">
                     <valueCode value="IN"/>
                  </extension>
               </given>
            </name>
            <gender value="male">
               <extension url="http://nictiz.nl/fhir/StructureDefinition/code-specification">
                  <valueCodeableConcept>
                     <coding>
                        <system value="http://hl7.org/fhir/v3/AdministrativeGender"/>
                        <code value="M"/>
                        <display value="man"/>
                     </coding>
                  </valueCodeableConcept>
               </extension>
            </gender>
            <birthDate value="1985-12-30"/>
            <address>
               <line value="Knolweg 1003">
                  <extension url="http://hl7.org/fhir/StructureDefinition/iso21090-ADXP-streetName">
                     <valueString value="Knolweg"/>
                  </extension>
                  <extension url="http://hl7.org/fhir/StructureDefinition/iso21090-ADXP-houseNumber">
                     <valueString value="1003"/>
                  </extension>
               </line>
               <city value="STITSWERD"/>
               <postalCode value="9999ZA"/>
               <country value="NL">
                  <extension url="http://nictiz.nl/fhir/StructureDefinition/code-specification">
                     <valueCodeableConcept>
                        <coding>
                           <system value="urn:iso:std:iso:3166"/>
                           <code value="NL"/>
                           <display value="Nederland"/>
                        </coding>
                     </valueCodeableConcept>
                  </extension>
               </country>
            </address>
         </Patient>
      </resource>
      <search>
         <mode value="include"/>
      </search>
   </entry>
   <entry>
      <fullUrl value="https://example.org/fhir/Practitioner/2.16.528.1.1007.3.1-900016431"/>
      <resource>
         <Practitioner>
            <id value="2.16.528.1.1007.3.1-900016431"/>
            <meta>
               <profile value="http://fhir.nl/fhir/StructureDefinition/nl-core-practitioner"/>
            </meta>
            <text>
               <status value="extensions"/>
               <div xmlns="http://www.w3.org/1999/xhtml">
                  <div>Id 900016431 (UZI-NR-PERS), 
<span title="Naamsamenstelling: Eigennaam">Huisarts 1</span>
                  </div>
               </div>
            </text>
            <identifier>
               <system value="http://fhir.nl/fhir/NamingSystem/uzi-nr-pers"/>
               <value value="900016431"/>
            </identifier>
            <name>
               <extension url="http://hl7.org/fhir/StructureDefinition/humanname-assembly-order">
                  <valueCode value="NL1"/>
               </extension>
               <family value="Huisarts 1">
                  <extension url="http://hl7.org/fhir/StructureDefinition/humanname-own-name">
                     <valueString value="Huisarts 1"/>
                  </extension>
               </family>
            </name>
         </Practitioner>
      </resource>
      <search>
         <mode value="include"/>
      </search>
   </entry>
   <entry>
      <fullUrl value="https://example.org/fhir/Organization/2.16.528.1.1007.3.3-00002727"/>
      <resource>
         <Organization>
            <id value="2.16.528.1.1007.3.3-00002727"/>
            <meta>
               <profile value="http://fhir.nl/fhir/StructureDefinition/nl-core-organization"/>
            </meta>
            <text>
               <status value="extensions"/>
               <div xmlns="http://www.w3.org/1999/xhtml">
                  <table>
                     <caption>Organisatie. Id: 00002727 (URA)</caption>
                     <tbody>
                        <tr>
                           <th>Naam</th>
                           <td>Gezondheidscentrum Aesculaap</td>
                        </tr>
                     </tbody>
                  </table>
               </div>
            </text>
            <identifier>
               <system value="http://fhir.nl/fhir/NamingSystem/ura"/>
               <value value="00002727"/>
            </identifier>
            <name value="Gezondheidscentrum Aesculaap"/>
         </Organization>
      </resource>
      <search>
         <mode value="include"/>
      </search>
   </entry>
   <entry>
      <fullUrl value="urn:uuid:7ec4422f-a2da-11ef-1473-020000000000"/>
      <resource>
         <PractitionerRole>
            <meta>
               <profile value="http://fhir.nl/fhir/StructureDefinition/nl-core-practitionerrole"/>
            </meta>
            <text>
               <status value="extensions"/>
               <div xmlns="http://www.w3.org/1999/xhtml">
                  <table>
                     <caption>Zorgverlenerrol. </caption>
                     <tbody>
                        <tr>
                           <th>Zorgverlener</th>
                           <td>
                              <div>
                                 <a href="https://example.org/fhir/Practitioner/2.16.528.1.1007.3.1-900016431">Huisarts 1</a>
                              </div>
                              <div>
                                 <a href="https://example.org/fhir/Organization/2.16.528.1.1007.3.3-00002727">Gezondheidscentrum Aesculaap</a>
                              </div>
                           </td>
                        </tr>
                        <tr>
                           <th>Specialisme</th>
                           <td>
                              <span title="Huisarts (01.015 - http://fhir.nl/fhir/NamingSystem/uzi-rolcode)">Huisarts</span>
                           </td>
                        </tr>
                     </tbody>
                  </table>
               </div>
            </text>
            <practitioner>
               <reference value="https://example.org/fhir/Practitioner/2.16.528.1.1007.3.1-900016431"/>
               <display value="Huisarts 1"/>
            </practitioner>
            <organization>
               <reference value="https://example.org/fhir/Organization/2.16.528.1.1007.3.3-00002727"/>
               <display value="Gezondheidscentrum Aesculaap"/>
            </organization>
            <specialty>
               <coding>
                  <system value="http://fhir.nl/fhir/NamingSystem/uzi-rolcode"/>
                  <code value="01.015"/>
                  <display value="Huisarts"/>
               </coding>
            </specialty>
         </PractitionerRole>
      </resource>
      <search>
         <mode value="include"/>
      </search>
   </entry>
</Bundle>