<?xml-model href="http://hl7.org/fhir/STU3/bundle.sch" type="application/xml" schematypens="http://purl.oclc.org/dsdl/schematron"?><Bundle xmlns="http://hl7.org/fhir"
        xmlns:xsi="http://www.w3.org/2001/XMLSchema-instance"
        xsi:schemaLocation="http://hl7.org/fhir http://hl7.org/fhir/STU3/fhir-all.xsd">
   <type value="searchset"/>
   <total value="18"/>
   <entry>
      <fullUrl value="urn:uuid:fe36b824-e619-11ea-2095-020000000000"/>
      <resource>
         <Encounter>
            <meta>
               <profile value="http://nictiz.nl/fhir/StructureDefinition/gp-Encounter"/>
            </meta>
            <text>
               <status value="extensions"/>
               <div xmlns="http://www.w3.org/1999/xhtml">
                  <table>
                     <caption>Contact. Subject: J. XXX_Cevat. Id: MedMijHG_contactmoment13 (urn:oid:2.16.840.1.113883.2.4.3.111.19.1), Status: voltooid</caption>
                     <tbody>
                        <tr>
                           <th>Type contact</th>
                           <td>
                              <div>
                                 <span title="Ambulatory (AMB - v3/ActCode)">Ambulatory</span>
                              </div>
                              <span title="consult (03 - nhg-tabel-14-contactwijze)">consult</span>
                           </td>
                        </tr>
                        <tr>
                           <th>Periode</th>
                           <td>13:56:45 - 14:26:45 op 23 juni 2020</td>
                        </tr>
                        <tr>
                           <th>Participant</th>
                           <td>
                              <div>
                                 <span title="Performer (PRF - v3/ParticipationType)">Performer</span> - Huisarts 1 || Gezondheidscentrum Aesculaap</div>
                           </td>
                        </tr>
                        <tr>
                           <th>Zorgaanbieder</th>
                           <td>Gezondheidscentrum Aesculaap</td>
                        </tr>
                     </tbody>
                  </table>
               </div>
            </text>
            <identifier>
               <system value="urn:oid:2.16.840.1.113883.2.4.3.111.19.1"/>
               <value value="MedMijHG_contactmoment13"/>
            </identifier>
            <status value="finished"/>
            <class>
               <system value="http://hl7.org/fhir/v3/ActCode"/>
               <code value="AMB"/>
               <display value="Ambulatory"/>
            </class>
            <type>
               <coding>
                  <system value="https://referentiemodel.nhg.org/tabellen/nhg-tabel-14-contactwijze"/>
                  <version value="v3"/>
                  <code value="03"/>
                  <display value="consult"/>
               </coding>
            </type>
            <subject>
               <reference value="urn:uuid:fe36b7fc-e619-11ea-2095-020000000000"/>
               <display value="J. XXX_Cevat"/>
            </subject>
            <episodeOfCare>
               <identifier>
                  <system value="urn:oid:2.16.840.1.113883.2.4.3.111.19.1"/>
                  <value value="MedMijHG_concern_R21.01"/>
               </identifier>
               <display value="Episode: MedMijHG_concern_R21.01 2.16.840.1.113883.2.4.3.111.19.1"/>
            </episodeOfCare>
            <participant>
               <type>
                  <coding>
                     <system value="http://hl7.org/fhir/v3/ParticipationType"/>
                     <code value="PRF"/>
                     <display value="Performer"/>
                  </coding>
               </type>
               <individual>
                  <extension url="http://nictiz.nl/fhir/StructureDefinition/practitionerrole-reference">
                     <valueReference>
                        <reference value="urn:uuid:fe36b829-e619-11ea-2095-020000000000"/>
                        <display value="Huisarts 1 || Gezondheidscentrum Aesculaap"/>
                     </valueReference>
                  </extension>
                  <reference value="urn:oid:2.16.528.1.1007.3.1.900016431"/>
                  <display value="Huisarts 1"/>
               </individual>
            </participant>
            <period>
               <start value="2020-06-23T13:56:45+02:00"/>
               <end value="2020-06-23T14:26:45+02:00"/>
            </period>
            <serviceProvider>
               <reference value="urn:oid:2.16.528.1.1007.3.3.2727"/>
               <display value="Gezondheidscentrum Aesculaap"/>
            </serviceProvider>
         </Encounter>
      </resource>
      <search>
         <mode value="match"/>
      </search>
   </entry>
   <entry>
      <fullUrl value="urn:uuid:fe36bb75-e619-11ea-2095-020000000000"/>
      <resource>
         <Encounter>
            <meta>
               <profile value="http://nictiz.nl/fhir/StructureDefinition/gp-Encounter"/>
            </meta>
            <text>
               <status value="extensions"/>
               <div xmlns="http://www.w3.org/1999/xhtml">
                  <table>
                     <caption>Contact. Subject: J. XXX_Cevat. Id: MedMijHG_contactmoment17 (urn:oid:2.16.840.1.113883.2.4.3.111.19.1), Status: voltooid</caption>
                     <tbody>
                        <tr>
                           <th>Type contact</th>
                           <td>
                              <div>
                                 <span title="Ambulatory (AMB - v3/ActCode)">Ambulatory</span>
                              </div>
                              <span title="consult (03 - nhg-tabel-14-contactwijze)">consult</span>
                           </td>
                        </tr>
                        <tr>
                           <th>Periode</th>
                           <td>13:56:45 - 14:26:45 op 18 juni 2020</td>
                        </tr>
                        <tr>
                           <th>Participant</th>
                           <td>
                              <div>
                                 <span title="Performer (PRF - v3/ParticipationType)">Performer</span> - Huisarts 1 || Gezondheidscentrum Aesculaap</div>
                           </td>
                        </tr>
                        <tr>
                           <th>Zorgaanbieder</th>
                           <td>Gezondheidscentrum Aesculaap</td>
                        </tr>
                     </tbody>
                  </table>
               </div>
            </text>
            <identifier>
               <system value="urn:oid:2.16.840.1.113883.2.4.3.111.19.1"/>
               <value value="MedMijHG_contactmoment17"/>
            </identifier>
            <status value="finished"/>
            <class>
               <system value="http://hl7.org/fhir/v3/ActCode"/>
               <code value="AMB"/>
               <display value="Ambulatory"/>
            </class>
            <type>
               <coding>
                  <system value="https://referentiemodel.nhg.org/tabellen/nhg-tabel-14-contactwijze"/>
                  <version value="v3"/>
                  <code value="03"/>
                  <display value="consult"/>
               </coding>
            </type>
            <subject>
               <reference value="urn:uuid:fe36b7fc-e619-11ea-2095-020000000000"/>
               <display value="J. XXX_Cevat"/>
            </subject>
            <episodeOfCare>
               <identifier>
                  <system value="urn:oid:2.16.840.1.113883.2.4.3.111.19.1"/>
                  <value value="MedMijHG_concern_L86.01"/>
               </identifier>
               <display value="Episode: MedMijHG_concern_L86.01 2.16.840.1.113883.2.4.3.111.19.1"/>
            </episodeOfCare>
            <participant>
               <type>
                  <coding>
                     <system value="http://hl7.org/fhir/v3/ParticipationType"/>
                     <code value="PRF"/>
                     <display value="Performer"/>
                  </coding>
               </type>
               <individual>
                  <extension url="http://nictiz.nl/fhir/StructureDefinition/practitionerrole-reference">
                     <valueReference>
                        <reference value="urn:uuid:fe36b829-e619-11ea-2095-020000000000"/>
                        <display value="Huisarts 1 || Gezondheidscentrum Aesculaap"/>
                     </valueReference>
                  </extension>
                  <reference value="urn:oid:2.16.528.1.1007.3.1.900016431"/>
                  <display value="Huisarts 1"/>
               </individual>
            </participant>
            <period>
               <start value="2020-06-18T13:56:45+02:00"/>
               <end value="2020-06-18T14:26:45+02:00"/>
            </period>
            <serviceProvider>
               <reference value="urn:oid:2.16.528.1.1007.3.3.2727"/>
               <display value="Gezondheidscentrum Aesculaap"/>
            </serviceProvider>
         </Encounter>
      </resource>
      <search>
         <mode value="match"/>
      </search>
   </entry>
   <entry>
      <fullUrl value="urn:uuid:fe36bba6-e619-11ea-2095-020000000000"/>
      <resource>
         <Encounter>
            <meta>
               <profile value="http://nictiz.nl/fhir/StructureDefinition/gp-Encounter"/>
            </meta>
            <text>
               <status value="extensions"/>
               <div xmlns="http://www.w3.org/1999/xhtml">
                  <table>
                     <caption>Contact. Subject: J. XXX_Cevat. Id: MedMijHG_contactmoment12 (urn:oid:2.16.840.1.113883.2.4.3.111.19.1), Status: voltooid</caption>
                     <tbody>
                        <tr>
                           <th>Type contact</th>
                           <td>
                              <div>
                                 <span title="Ambulatory (AMB - v3/ActCode)">Ambulatory</span>
                              </div>
                              <span title="consult (03 - nhg-tabel-14-contactwijze)">consult</span>
                           </td>
                        </tr>
                        <tr>
                           <th>Periode</th>
                           <td>13:56:45 - 14:26:45 op 14 mei 2020</td>
                        </tr>
                        <tr>
                           <th>Participant</th>
                           <td>
                              <div>
                                 <span title="Performer (PRF - v3/ParticipationType)">Performer</span> - Huisarts 1 || Gezondheidscentrum Aesculaap</div>
                           </td>
                        </tr>
                        <tr>
                           <th>Zorgaanbieder</th>
                           <td>Gezondheidscentrum Aesculaap</td>
                        </tr>
                     </tbody>
                  </table>
               </div>
            </text>
            <identifier>
               <system value="urn:oid:2.16.840.1.113883.2.4.3.111.19.1"/>
               <value value="MedMijHG_contactmoment12"/>
            </identifier>
            <status value="finished"/>
            <class>
               <system value="http://hl7.org/fhir/v3/ActCode"/>
               <code value="AMB"/>
               <display value="Ambulatory"/>
            </class>
            <type>
               <coding>
                  <system value="https://referentiemodel.nhg.org/tabellen/nhg-tabel-14-contactwijze"/>
                  <version value="v3"/>
                  <code value="03"/>
                  <display value="consult"/>
               </coding>
            </type>
            <subject>
               <reference value="urn:uuid:fe36b7fc-e619-11ea-2095-020000000000"/>
               <display value="J. XXX_Cevat"/>
            </subject>
            <episodeOfCare>
               <identifier>
                  <system value="urn:oid:2.16.840.1.113883.2.4.3.111.19.1"/>
                  <value value="MedMijHG_concern_R21.01"/>
               </identifier>
               <display value="Episode: MedMijHG_concern_R21.01 2.16.840.1.113883.2.4.3.111.19.1"/>
            </episodeOfCare>
            <participant>
               <type>
                  <coding>
                     <system value="http://hl7.org/fhir/v3/ParticipationType"/>
                     <code value="PRF"/>
                     <display value="Performer"/>
                  </coding>
               </type>
               <individual>
                  <extension url="http://nictiz.nl/fhir/StructureDefinition/practitionerrole-reference">
                     <valueReference>
                        <reference value="urn:uuid:fe36b829-e619-11ea-2095-020000000000"/>
                        <display value="Huisarts 1 || Gezondheidscentrum Aesculaap"/>
                     </valueReference>
                  </extension>
                  <reference value="urn:oid:2.16.528.1.1007.3.1.900016431"/>
                  <display value="Huisarts 1"/>
               </individual>
            </participant>
            <period>
               <start value="2020-05-14T13:56:45+02:00"/>
               <end value="2020-05-14T14:26:45+02:00"/>
            </period>
            <serviceProvider>
               <reference value="urn:oid:2.16.528.1.1007.3.3.2727"/>
               <display value="Gezondheidscentrum Aesculaap"/>
            </serviceProvider>
         </Encounter>
      </resource>
      <search>
         <mode value="match"/>
      </search>
   </entry>
   <entry>
      <fullUrl value="urn:uuid:fe36bbd7-e619-11ea-2095-020000000000"/>
      <resource>
         <Encounter>
            <meta>
               <profile value="http://nictiz.nl/fhir/StructureDefinition/gp-Encounter"/>
            </meta>
            <text>
               <status value="extensions"/>
               <div xmlns="http://www.w3.org/1999/xhtml">
                  <table>
                     <caption>Contact. Subject: J. XXX_Cevat. Id: MedMijHG_contactmoment16 (urn:oid:2.16.840.1.113883.2.4.3.111.19.1), Status: voltooid</caption>
                     <tbody>
                        <tr>
                           <th>Type contact</th>
                           <td>
                              <div>
                                 <span title="Ambulatory (AMB - v3/ActCode)">Ambulatory</span>
                              </div>
                              <span title="consult (03 - nhg-tabel-14-contactwijze)">consult</span>
                           </td>
                        </tr>
                        <tr>
                           <th>Periode</th>
                           <td>13:56:45 - 14:26:45 op 9 mei 2020</td>
                        </tr>
                        <tr>
                           <th>Participant</th>
                           <td>
                              <div>
                                 <span title="Performer (PRF - v3/ParticipationType)">Performer</span> - Huisarts 1 || Gezondheidscentrum Aesculaap</div>
                           </td>
                        </tr>
                        <tr>
                           <th>Zorgaanbieder</th>
                           <td>Gezondheidscentrum Aesculaap</td>
                        </tr>
                     </tbody>
                  </table>
               </div>
            </text>
            <identifier>
               <system value="urn:oid:2.16.840.1.113883.2.4.3.111.19.1"/>
               <value value="MedMijHG_contactmoment16"/>
            </identifier>
            <status value="finished"/>
            <class>
               <system value="http://hl7.org/fhir/v3/ActCode"/>
               <code value="AMB"/>
               <display value="Ambulatory"/>
            </class>
            <type>
               <coding>
                  <system value="https://referentiemodel.nhg.org/tabellen/nhg-tabel-14-contactwijze"/>
                  <version value="v3"/>
                  <code value="03"/>
                  <display value="consult"/>
               </coding>
            </type>
            <subject>
               <reference value="urn:uuid:fe36b7fc-e619-11ea-2095-020000000000"/>
               <display value="J. XXX_Cevat"/>
            </subject>
            <episodeOfCare>
               <identifier>
                  <system value="urn:oid:2.16.840.1.113883.2.4.3.111.19.1"/>
                  <value value="MedMijHG_concern_L86.01"/>
               </identifier>
               <display value="Episode: MedMijHG_concern_L86.01 2.16.840.1.113883.2.4.3.111.19.1"/>
            </episodeOfCare>
            <participant>
               <type>
                  <coding>
                     <system value="http://hl7.org/fhir/v3/ParticipationType"/>
                     <code value="PRF"/>
                     <display value="Performer"/>
                  </coding>
               </type>
               <individual>
                  <extension url="http://nictiz.nl/fhir/StructureDefinition/practitionerrole-reference">
                     <valueReference>
                        <reference value="urn:uuid:fe36b829-e619-11ea-2095-020000000000"/>
                        <display value="Huisarts 1 || Gezondheidscentrum Aesculaap"/>
                     </valueReference>
                  </extension>
                  <reference value="urn:oid:2.16.528.1.1007.3.1.900016431"/>
                  <display value="Huisarts 1"/>
               </individual>
            </participant>
            <period>
               <start value="2020-05-09T13:56:45+02:00"/>
               <end value="2020-05-09T14:26:45+02:00"/>
            </period>
            <serviceProvider>
               <reference value="urn:oid:2.16.528.1.1007.3.3.2727"/>
               <display value="Gezondheidscentrum Aesculaap"/>
            </serviceProvider>
         </Encounter>
      </resource>
      <search>
         <mode value="match"/>
      </search>
   </entry>
   <entry>
      <fullUrl value="urn:uuid:fe36bc09-e619-11ea-2095-020000000000"/>
      <resource>
         <Encounter>
            <meta>
               <profile value="http://nictiz.nl/fhir/StructureDefinition/gp-Encounter"/>
            </meta>
            <text>
               <status value="extensions"/>
               <div xmlns="http://www.w3.org/1999/xhtml">
                  <table>
                     <caption>Contact. Subject: J. XXX_Cevat. Id: MedMijHG_contactmoment15 (urn:oid:2.16.840.1.113883.2.4.3.111.19.1), Status: voltooid</caption>
                     <tbody>
                        <tr>
                           <th>Type contact</th>
                           <td>
                              <div>
                                 <span title="Ambulatory (AMB - v3/ActCode)">Ambulatory</span>
                              </div>
                              <span title="consult (03 - nhg-tabel-14-contactwijze)">consult</span>
                           </td>
                        </tr>
                        <tr>
                           <th>Periode</th>
                           <td>13:56:45 - 14:26:45 op 4 mei 2020</td>
                        </tr>
                        <tr>
                           <th>Participant</th>
                           <td>
                              <div>
                                 <span title="Performer (PRF - v3/ParticipationType)">Performer</span> - Huisarts 1 || Gezondheidscentrum Aesculaap</div>
                           </td>
                        </tr>
                        <tr>
                           <th>Zorgaanbieder</th>
                           <td>Gezondheidscentrum Aesculaap</td>
                        </tr>
                     </tbody>
                  </table>
               </div>
            </text>
            <identifier>
               <system value="urn:oid:2.16.840.1.113883.2.4.3.111.19.1"/>
               <value value="MedMijHG_contactmoment15"/>
            </identifier>
            <status value="finished"/>
            <class>
               <system value="http://hl7.org/fhir/v3/ActCode"/>
               <code value="AMB"/>
               <display value="Ambulatory"/>
            </class>
            <type>
               <coding>
                  <system value="https://referentiemodel.nhg.org/tabellen/nhg-tabel-14-contactwijze"/>
                  <version value="v3"/>
                  <code value="03"/>
                  <display value="consult"/>
               </coding>
            </type>
            <subject>
               <reference value="urn:uuid:fe36b7fc-e619-11ea-2095-020000000000"/>
               <display value="J. XXX_Cevat"/>
            </subject>
            <episodeOfCare>
               <identifier>
                  <system value="urn:oid:2.16.840.1.113883.2.4.3.111.19.1"/>
                  <value value="MedMijHG_concern_L86.01"/>
               </identifier>
               <display value="Episode: MedMijHG_concern_L86.01 2.16.840.1.113883.2.4.3.111.19.1"/>
            </episodeOfCare>
            <participant>
               <type>
                  <coding>
                     <system value="http://hl7.org/fhir/v3/ParticipationType"/>
                     <code value="PRF"/>
                     <display value="Performer"/>
                  </coding>
               </type>
               <individual>
                  <extension url="http://nictiz.nl/fhir/StructureDefinition/practitionerrole-reference">
                     <valueReference>
                        <reference value="urn:uuid:fe36b829-e619-11ea-2095-020000000000"/>
                        <display value="Huisarts 1 || Gezondheidscentrum Aesculaap"/>
                     </valueReference>
                  </extension>
                  <reference value="urn:oid:2.16.528.1.1007.3.1.900016431"/>
                  <display value="Huisarts 1"/>
               </individual>
            </participant>
            <period>
               <start value="2020-05-04T13:56:45+02:00"/>
               <end value="2020-05-04T14:26:45+02:00"/>
            </period>
            <serviceProvider>
               <reference value="urn:oid:2.16.528.1.1007.3.3.2727"/>
               <display value="Gezondheidscentrum Aesculaap"/>
            </serviceProvider>
         </Encounter>
      </resource>
      <search>
         <mode value="match"/>
      </search>
   </entry>
   <entry>
      <fullUrl value="urn:uuid:fe36bc3a-e619-11ea-2095-020000000000"/>
      <resource>
         <Encounter>
            <meta>
               <profile value="http://nictiz.nl/fhir/StructureDefinition/gp-Encounter"/>
            </meta>
            <text>
               <status value="extensions"/>
               <div xmlns="http://www.w3.org/1999/xhtml">
                  <table>
                     <caption>Contact. Subject: J. XXX_Cevat. Id: MedMijHG_contactmoment14 (urn:oid:2.16.840.1.113883.2.4.3.111.19.1), Status: voltooid</caption>
                     <tbody>
                        <tr>
                           <th>Type contact</th>
                           <td>
                              <div>
                                 <span title="Ambulatory (AMB - v3/ActCode)">Ambulatory</span>
                              </div>
                              <span title="consult (03 - nhg-tabel-14-contactwijze)">consult</span>
                           </td>
                        </tr>
                        <tr>
                           <th>Periode</th>
                           <td>13:56:45 - 14:26:45 op 14 april 2020</td>
                        </tr>
                        <tr>
                           <th>Participant</th>
                           <td>
                              <div>
                                 <span title="Performer (PRF - v3/ParticipationType)">Performer</span> - Huisarts 1 || Gezondheidscentrum Aesculaap</div>
                           </td>
                        </tr>
                        <tr>
                           <th>Zorgaanbieder</th>
                           <td>Gezondheidscentrum Aesculaap</td>
                        </tr>
                     </tbody>
                  </table>
               </div>
            </text>
            <identifier>
               <system value="urn:oid:2.16.840.1.113883.2.4.3.111.19.1"/>
               <value value="MedMijHG_contactmoment14"/>
            </identifier>
            <status value="finished"/>
            <class>
               <system value="http://hl7.org/fhir/v3/ActCode"/>
               <code value="AMB"/>
               <display value="Ambulatory"/>
            </class>
            <type>
               <coding>
                  <system value="https://referentiemodel.nhg.org/tabellen/nhg-tabel-14-contactwijze"/>
                  <version value="v3"/>
                  <code value="03"/>
                  <display value="consult"/>
               </coding>
            </type>
            <subject>
               <reference value="urn:uuid:fe36b7fc-e619-11ea-2095-020000000000"/>
               <display value="J. XXX_Cevat"/>
            </subject>
            <episodeOfCare>
               <identifier>
                  <system value="urn:oid:2.16.840.1.113883.2.4.3.111.19.1"/>
                  <value value="MedMijHG_concern_L86.01"/>
               </identifier>
               <display value="Episode: MedMijHG_concern_L86.01 2.16.840.1.113883.2.4.3.111.19.1"/>
            </episodeOfCare>
            <participant>
               <type>
                  <coding>
                     <system value="http://hl7.org/fhir/v3/ParticipationType"/>
                     <code value="PRF"/>
                     <display value="Performer"/>
                  </coding>
               </type>
               <individual>
                  <extension url="http://nictiz.nl/fhir/StructureDefinition/practitionerrole-reference">
                     <valueReference>
                        <reference value="urn:uuid:fe36b829-e619-11ea-2095-020000000000"/>
                        <display value="Huisarts 1 || Gezondheidscentrum Aesculaap"/>
                     </valueReference>
                  </extension>
                  <reference value="urn:oid:2.16.528.1.1007.3.1.900016431"/>
                  <display value="Huisarts 1"/>
               </individual>
            </participant>
            <period>
               <start value="2020-04-14T13:56:45+02:00"/>
               <end value="2020-04-14T14:26:45+02:00"/>
            </period>
            <serviceProvider>
               <reference value="urn:oid:2.16.528.1.1007.3.3.2727"/>
               <display value="Gezondheidscentrum Aesculaap"/>
            </serviceProvider>
         </Encounter>
      </resource>
      <search>
         <mode value="match"/>
      </search>
   </entry>
   <entry>
      <fullUrl value="urn:uuid:fe36bc6b-e619-11ea-2095-020000000000"/>
      <resource>
         <Encounter>
            <meta>
               <profile value="http://nictiz.nl/fhir/StructureDefinition/gp-Encounter"/>
            </meta>
            <text>
               <status value="extensions"/>
               <div xmlns="http://www.w3.org/1999/xhtml">
                  <table>
                     <caption>Contact. Subject: J. XXX_Cevat. Id: MedMijHG_contactmoment11 (urn:oid:2.16.840.1.113883.2.4.3.111.19.1), Status: voltooid</caption>
                     <tbody>
                        <tr>
                           <th>Type contact</th>
                           <td>
                              <div>
                                 <span title="Ambulatory (AMB - v3/ActCode)">Ambulatory</span>
                              </div>
                              <span title="consult (03 - nhg-tabel-14-contactwijze)">consult</span>
                           </td>
                        </tr>
                        <tr>
                           <th>Periode</th>
                           <td>13:56:45 - 14:26:45 op 4 april 2020</td>
                        </tr>
                        <tr>
                           <th>Participant</th>
                           <td>
                              <div>
                                 <span title="Performer (PRF - v3/ParticipationType)">Performer</span> - Huisarts 1 || Gezondheidscentrum Aesculaap</div>
                           </td>
                        </tr>
                        <tr>
                           <th>Zorgaanbieder</th>
                           <td>Gezondheidscentrum Aesculaap</td>
                        </tr>
                     </tbody>
                  </table>
               </div>
            </text>
            <identifier>
               <system value="urn:oid:2.16.840.1.113883.2.4.3.111.19.1"/>
               <value value="MedMijHG_contactmoment11"/>
            </identifier>
            <status value="finished"/>
            <class>
               <system value="http://hl7.org/fhir/v3/ActCode"/>
               <code value="AMB"/>
               <display value="Ambulatory"/>
            </class>
            <type>
               <coding>
                  <system value="https://referentiemodel.nhg.org/tabellen/nhg-tabel-14-contactwijze"/>
                  <version value="v3"/>
                  <code value="03"/>
                  <display value="consult"/>
               </coding>
            </type>
            <subject>
               <reference value="urn:uuid:fe36b7fc-e619-11ea-2095-020000000000"/>
               <display value="J. XXX_Cevat"/>
            </subject>
            <episodeOfCare>
               <identifier>
                  <system value="urn:oid:2.16.840.1.113883.2.4.3.111.19.1"/>
                  <value value="MedMijHG_concern_R21.01"/>
               </identifier>
               <display value="Episode: MedMijHG_concern_R21.01 2.16.840.1.113883.2.4.3.111.19.1"/>
            </episodeOfCare>
            <participant>
               <type>
                  <coding>
                     <system value="http://hl7.org/fhir/v3/ParticipationType"/>
                     <code value="PRF"/>
                     <display value="Performer"/>
                  </coding>
               </type>
               <individual>
                  <extension url="http://nictiz.nl/fhir/StructureDefinition/practitionerrole-reference">
                     <valueReference>
                        <reference value="urn:uuid:fe36b829-e619-11ea-2095-020000000000"/>
                        <display value="Huisarts 1 || Gezondheidscentrum Aesculaap"/>
                     </valueReference>
                  </extension>
                  <reference value="urn:oid:2.16.528.1.1007.3.1.900016431"/>
                  <display value="Huisarts 1"/>
               </individual>
            </participant>
            <period>
               <start value="2020-04-04T13:56:45+02:00"/>
               <end value="2020-04-04T14:26:45+02:00"/>
            </period>
            <serviceProvider>
               <reference value="urn:oid:2.16.528.1.1007.3.3.2727"/>
               <display value="Gezondheidscentrum Aesculaap"/>
            </serviceProvider>
         </Encounter>
      </resource>
      <search>
         <mode value="match"/>
      </search>
   </entry>
   <entry>
      <fullUrl value="urn:uuid:fe36bc9c-e619-11ea-2095-020000000000"/>
      <resource>
         <Encounter>
            <meta>
               <profile value="http://nictiz.nl/fhir/StructureDefinition/gp-Encounter"/>
            </meta>
            <text>
               <status value="extensions"/>
               <div xmlns="http://www.w3.org/1999/xhtml">
                  <table>
                     <caption>Contact. Subject: J. XXX_Cevat. Id: MedMijHG_contactmoment07 (urn:oid:2.16.840.1.113883.2.4.3.111.19.1), Status: voltooid</caption>
                     <tbody>
                        <tr>
                           <th>Type contact</th>
                           <td>
                              <div>
                                 <span title="Ambulatory (AMB - v3/ActCode)">Ambulatory</span>
                              </div>
                              <span title="consult (03 - nhg-tabel-14-contactwijze)">consult</span>
                           </td>
                        </tr>
                        <tr>
                           <th>Periode</th>
                           <td>13:56:45 - 14:26:45 op 30 maart 2020</td>
                        </tr>
                        <tr>
                           <th>Participant</th>
                           <td>
                              <div>
                                 <span title="Performer (PRF - v3/ParticipationType)">Performer</span> - Huisarts 1 || Gezondheidscentrum Aesculaap</div>
                           </td>
                        </tr>
                        <tr>
                           <th>Zorgaanbieder</th>
                           <td>Gezondheidscentrum Aesculaap</td>
                        </tr>
                     </tbody>
                  </table>
               </div>
            </text>
            <identifier>
               <system value="urn:oid:2.16.840.1.113883.2.4.3.111.19.1"/>
               <value value="MedMijHG_contactmoment07"/>
            </identifier>
            <status value="finished"/>
            <class>
               <system value="http://hl7.org/fhir/v3/ActCode"/>
               <code value="AMB"/>
               <display value="Ambulatory"/>
            </class>
            <type>
               <coding>
                  <system value="https://referentiemodel.nhg.org/tabellen/nhg-tabel-14-contactwijze"/>
                  <version value="v3"/>
                  <code value="03"/>
                  <display value="consult"/>
               </coding>
            </type>
            <subject>
               <reference value="urn:uuid:fe36b7fc-e619-11ea-2095-020000000000"/>
               <display value="J. XXX_Cevat"/>
            </subject>
            <episodeOfCare>
               <identifier>
                  <system value="urn:oid:2.16.840.1.113883.2.4.3.111.19.1"/>
                  <value value="MedMijHG_concern_D02"/>
               </identifier>
               <display value="Episode: MedMijHG_concern_D02 2.16.840.1.113883.2.4.3.111.19.1"/>
            </episodeOfCare>
            <participant>
               <type>
                  <coding>
                     <system value="http://hl7.org/fhir/v3/ParticipationType"/>
                     <code value="PRF"/>
                     <display value="Performer"/>
                  </coding>
               </type>
               <individual>
                  <extension url="http://nictiz.nl/fhir/StructureDefinition/practitionerrole-reference">
                     <valueReference>
                        <reference value="urn:uuid:fe36b829-e619-11ea-2095-020000000000"/>
                        <display value="Huisarts 1 || Gezondheidscentrum Aesculaap"/>
                     </valueReference>
                  </extension>
                  <reference value="urn:oid:2.16.528.1.1007.3.1.900016431"/>
                  <display value="Huisarts 1"/>
               </individual>
            </participant>
            <period>
               <start value="2020-03-30T13:56:45+02:00"/>
               <end value="2020-03-30T14:26:45+02:00"/>
            </period>
            <serviceProvider>
               <reference value="urn:oid:2.16.528.1.1007.3.3.2727"/>
               <display value="Gezondheidscentrum Aesculaap"/>
            </serviceProvider>
         </Encounter>
      </resource>
      <search>
         <mode value="match"/>
      </search>
   </entry>
   <entry>
      <fullUrl value="urn:uuid:fe36bccd-e619-11ea-2095-020000000000"/>
      <resource>
         <Encounter>
            <meta>
               <profile value="http://nictiz.nl/fhir/StructureDefinition/gp-Encounter"/>
            </meta>
            <text>
               <status value="extensions"/>
               <div xmlns="http://www.w3.org/1999/xhtml">
                  <table>
                     <caption>Contact. Subject: J. XXX_Cevat. Id: MedMijHG_contactmoment05 (urn:oid:2.16.840.1.113883.2.4.3.111.19.1), Status: voltooid</caption>
                     <tbody>
                        <tr>
                           <th>Type contact</th>
                           <td>
                              <div>
                                 <span title="Ambulatory (AMB - v3/ActCode)">Ambulatory</span>
                              </div>
                              <span title="consult (03 - nhg-tabel-14-contactwijze)">consult</span>
                           </td>
                        </tr>
                        <tr>
                           <th>Periode</th>
                           <td>12:56:45 - 13:26:45 op 25 maart 2020</td>
                        </tr>
                        <tr>
                           <th>Participant</th>
                           <td>
                              <div>
                                 <span title="Performer (PRF - v3/ParticipationType)">Performer</span> - Huisarts 1 || Gezondheidscentrum Aesculaap</div>
                           </td>
                        </tr>
                        <tr>
                           <th>Zorgaanbieder</th>
                           <td>Gezondheidscentrum Aesculaap</td>
                        </tr>
                     </tbody>
                  </table>
               </div>
            </text>
            <identifier>
               <system value="urn:oid:2.16.840.1.113883.2.4.3.111.19.1"/>
               <value value="MedMijHG_contactmoment05"/>
            </identifier>
            <status value="finished"/>
            <class>
               <system value="http://hl7.org/fhir/v3/ActCode"/>
               <code value="AMB"/>
               <display value="Ambulatory"/>
            </class>
            <type>
               <coding>
                  <system value="https://referentiemodel.nhg.org/tabellen/nhg-tabel-14-contactwijze"/>
                  <version value="v3"/>
                  <code value="03"/>
                  <display value="consult"/>
               </coding>
            </type>
            <subject>
               <reference value="urn:uuid:fe36b7fc-e619-11ea-2095-020000000000"/>
               <display value="J. XXX_Cevat"/>
            </subject>
            <episodeOfCare>
               <identifier>
                  <system value="urn:oid:2.16.840.1.113883.2.4.3.111.19.1"/>
                  <value value="MedMijHG_concern_L86.01"/>
               </identifier>
               <display value="Episode: MedMijHG_concern_L86.01 2.16.840.1.113883.2.4.3.111.19.1"/>
            </episodeOfCare>
            <participant>
               <type>
                  <coding>
                     <system value="http://hl7.org/fhir/v3/ParticipationType"/>
                     <code value="PRF"/>
                     <display value="Performer"/>
                  </coding>
               </type>
               <individual>
                  <extension url="http://nictiz.nl/fhir/StructureDefinition/practitionerrole-reference">
                     <valueReference>
                        <reference value="urn:uuid:fe36b829-e619-11ea-2095-020000000000"/>
                        <display value="Huisarts 1 || Gezondheidscentrum Aesculaap"/>
                     </valueReference>
                  </extension>
                  <reference value="urn:oid:2.16.528.1.1007.3.1.900016431"/>
                  <display value="Huisarts 1"/>
               </individual>
            </participant>
            <period>
               <start value="2020-03-25T12:56:45+01:00"/>
               <end value="2020-03-25T13:26:45+01:00"/>
            </period>
            <serviceProvider>
               <reference value="urn:oid:2.16.528.1.1007.3.3.2727"/>
               <display value="Gezondheidscentrum Aesculaap"/>
            </serviceProvider>
         </Encounter>
      </resource>
      <search>
         <mode value="match"/>
      </search>
   </entry>
   <entry>
      <fullUrl value="urn:uuid:fe36bcfe-e619-11ea-2095-020000000000"/>
      <resource>
         <Encounter>
            <meta>
               <profile value="http://nictiz.nl/fhir/StructureDefinition/gp-Encounter"/>
            </meta>
            <text>
               <status value="extensions"/>
               <div xmlns="http://www.w3.org/1999/xhtml">
                  <table>
                     <caption>Contact. Subject: J. XXX_Cevat. Id: MedMijHG_contactmoment10 (urn:oid:2.16.840.1.113883.2.4.3.111.19.1), Status: voltooid</caption>
                     <tbody>
                        <tr>
                           <th>Type contact</th>
                           <td>
                              <div>
                                 <span title="Ambulatory (AMB - v3/ActCode)">Ambulatory</span>
                              </div>
                              <span title="consult (03 - nhg-tabel-14-contactwijze)">consult</span>
                           </td>
                        </tr>
                        <tr>
                           <th>Periode</th>
                           <td>12:56:45 - 13:26:45 op 10 maart 2020</td>
                        </tr>
                        <tr>
                           <th>Participant</th>
                           <td>
                              <div>
                                 <span title="Performer (PRF - v3/ParticipationType)">Performer</span> - Huisarts 1 || Gezondheidscentrum Aesculaap</div>
                           </td>
                        </tr>
                        <tr>
                           <th>Zorgaanbieder</th>
                           <td>Gezondheidscentrum Aesculaap</td>
                        </tr>
                     </tbody>
                  </table>
               </div>
            </text>
            <identifier>
               <system value="urn:oid:2.16.840.1.113883.2.4.3.111.19.1"/>
               <value value="MedMijHG_contactmoment10"/>
            </identifier>
            <status value="finished"/>
            <class>
               <system value="http://hl7.org/fhir/v3/ActCode"/>
               <code value="AMB"/>
               <display value="Ambulatory"/>
            </class>
            <type>
               <coding>
                  <system value="https://referentiemodel.nhg.org/tabellen/nhg-tabel-14-contactwijze"/>
                  <version value="v3"/>
                  <code value="03"/>
                  <display value="consult"/>
               </coding>
            </type>
            <subject>
               <reference value="urn:uuid:fe36b7fc-e619-11ea-2095-020000000000"/>
               <display value="J. XXX_Cevat"/>
            </subject>
            <episodeOfCare>
               <identifier>
                  <system value="urn:oid:2.16.840.1.113883.2.4.3.111.19.1"/>
                  <value value="MedMijHG_concern_R21.01"/>
               </identifier>
               <display value="Episode: MedMijHG_concern_R21.01 2.16.840.1.113883.2.4.3.111.19.1"/>
            </episodeOfCare>
            <participant>
               <type>
                  <coding>
                     <system value="http://hl7.org/fhir/v3/ParticipationType"/>
                     <code value="PRF"/>
                     <display value="Performer"/>
                  </coding>
               </type>
               <individual>
                  <extension url="http://nictiz.nl/fhir/StructureDefinition/practitionerrole-reference">
                     <valueReference>
                        <reference value="urn:uuid:fe36b829-e619-11ea-2095-020000000000"/>
                        <display value="Huisarts 1 || Gezondheidscentrum Aesculaap"/>
                     </valueReference>
                  </extension>
                  <reference value="urn:oid:2.16.528.1.1007.3.1.900016431"/>
                  <display value="Huisarts 1"/>
               </individual>
            </participant>
            <period>
               <start value="2020-03-10T12:56:45+01:00"/>
               <end value="2020-03-10T13:26:45+01:00"/>
            </period>
            <serviceProvider>
               <reference value="urn:oid:2.16.528.1.1007.3.3.2727"/>
               <display value="Gezondheidscentrum Aesculaap"/>
            </serviceProvider>
         </Encounter>
      </resource>
      <search>
         <mode value="match"/>
      </search>
   </entry>
   <entry>
      <fullUrl value="urn:uuid:fe36bd30-e619-11ea-2095-020000000000"/>
      <resource>
         <Encounter>
            <meta>
               <profile value="http://nictiz.nl/fhir/StructureDefinition/gp-Encounter"/>
            </meta>
            <text>
               <status value="extensions"/>
               <div xmlns="http://www.w3.org/1999/xhtml">
                  <table>
                     <caption>Contact. Subject: J. XXX_Cevat. Id: MedMijHG_contactmoment04 (urn:oid:2.16.840.1.113883.2.4.3.111.19.1), Status: voltooid</caption>
                     <tbody>
                        <tr>
                           <th>Type contact</th>
                           <td>
                              <div>
                                 <span title="Ambulatory (AMB - v3/ActCode)">Ambulatory</span>
                              </div>
                              <span title="consult (03 - nhg-tabel-14-contactwijze)">consult</span>
                           </td>
                        </tr>
                        <tr>
                           <th>Periode</th>
                           <td>12:56:45 - 13:26:45 op 5 maart 2020</td>
                        </tr>
                        <tr>
                           <th>Participant</th>
                           <td>
                              <div>
                                 <span title="Performer (PRF - v3/ParticipationType)">Performer</span> - Huisarts 1 || Gezondheidscentrum Aesculaap</div>
                           </td>
                        </tr>
                        <tr>
                           <th>Zorgaanbieder</th>
                           <td>Gezondheidscentrum Aesculaap</td>
                        </tr>
                     </tbody>
                  </table>
               </div>
            </text>
            <identifier>
               <system value="urn:oid:2.16.840.1.113883.2.4.3.111.19.1"/>
               <value value="MedMijHG_contactmoment04"/>
            </identifier>
            <status value="finished"/>
            <class>
               <system value="http://hl7.org/fhir/v3/ActCode"/>
               <code value="AMB"/>
               <display value="Ambulatory"/>
            </class>
            <type>
               <coding>
                  <system value="https://referentiemodel.nhg.org/tabellen/nhg-tabel-14-contactwijze"/>
                  <version value="v3"/>
                  <code value="03"/>
                  <display value="consult"/>
               </coding>
            </type>
            <subject>
               <reference value="urn:uuid:fe36b7fc-e619-11ea-2095-020000000000"/>
               <display value="J. XXX_Cevat"/>
            </subject>
            <episodeOfCare>
               <identifier>
                  <system value="urn:oid:2.16.840.1.113883.2.4.3.111.19.1"/>
                  <value value="MedMijHG_concern_L86.01"/>
               </identifier>
               <display value="Episode: MedMijHG_concern_L86.01 2.16.840.1.113883.2.4.3.111.19.1"/>
            </episodeOfCare>
            <participant>
               <type>
                  <coding>
                     <system value="http://hl7.org/fhir/v3/ParticipationType"/>
                     <code value="PRF"/>
                     <display value="Performer"/>
                  </coding>
               </type>
               <individual>
                  <extension url="http://nictiz.nl/fhir/StructureDefinition/practitionerrole-reference">
                     <valueReference>
                        <reference value="urn:uuid:fe36b829-e619-11ea-2095-020000000000"/>
                        <display value="Huisarts 1 || Gezondheidscentrum Aesculaap"/>
                     </valueReference>
                  </extension>
                  <reference value="urn:oid:2.16.528.1.1007.3.1.900016431"/>
                  <display value="Huisarts 1"/>
               </individual>
            </participant>
            <period>
               <start value="2020-03-05T12:56:45+01:00"/>
               <end value="2020-03-05T13:26:45+01:00"/>
            </period>
            <serviceProvider>
               <reference value="urn:oid:2.16.528.1.1007.3.3.2727"/>
               <display value="Gezondheidscentrum Aesculaap"/>
            </serviceProvider>
         </Encounter>
      </resource>
      <search>
         <mode value="match"/>
      </search>
   </entry>
   <entry>
      <fullUrl value="urn:uuid:fe36bd61-e619-11ea-2095-020000000000"/>
      <resource>
         <Encounter>
            <meta>
               <profile value="http://nictiz.nl/fhir/StructureDefinition/gp-Encounter"/>
            </meta>
            <text>
               <status value="extensions"/>
               <div xmlns="http://www.w3.org/1999/xhtml">
                  <table>
                     <caption>Contact. Subject: J. XXX_Cevat. Id: MedMijHG_contactmoment06 (urn:oid:2.16.840.1.113883.2.4.3.111.19.1), Status: voltooid</caption>
                     <tbody>
                        <tr>
                           <th>Type contact</th>
                           <td>
                              <div>
                                 <span title="Ambulatory (AMB - v3/ActCode)">Ambulatory</span>
                              </div>
                              <span title="consult (03 - nhg-tabel-14-contactwijze)">consult</span>
                           </td>
                        </tr>
                        <tr>
                           <th>Periode</th>
                           <td>12:56:45 - 13:26:45 op 4 februari 2020</td>
                        </tr>
                        <tr>
                           <th>Participant</th>
                           <td>
                              <div>
                                 <span title="Performer (PRF - v3/ParticipationType)">Performer</span> - Huisarts 1 || Gezondheidscentrum Aesculaap</div>
                           </td>
                        </tr>
                        <tr>
                           <th>Zorgaanbieder</th>
                           <td>Gezondheidscentrum Aesculaap</td>
                        </tr>
                     </tbody>
                  </table>
               </div>
            </text>
            <identifier>
               <system value="urn:oid:2.16.840.1.113883.2.4.3.111.19.1"/>
               <value value="MedMijHG_contactmoment06"/>
            </identifier>
            <status value="finished"/>
            <class>
               <system value="http://hl7.org/fhir/v3/ActCode"/>
               <code value="AMB"/>
               <display value="Ambulatory"/>
            </class>
            <type>
               <coding>
                  <system value="https://referentiemodel.nhg.org/tabellen/nhg-tabel-14-contactwijze"/>
                  <version value="v3"/>
                  <code value="03"/>
                  <display value="consult"/>
               </coding>
            </type>
            <subject>
               <reference value="urn:uuid:fe36b7fc-e619-11ea-2095-020000000000"/>
               <display value="J. XXX_Cevat"/>
            </subject>
            <episodeOfCare>
               <identifier>
                  <system value="urn:oid:2.16.840.1.113883.2.4.3.111.19.1"/>
                  <value value="MedMijHG_concern_R21.01"/>
               </identifier>
               <display value="Episode: MedMijHG_concern_R21.01 2.16.840.1.113883.2.4.3.111.19.1"/>
            </episodeOfCare>
            <participant>
               <type>
                  <coding>
                     <system value="http://hl7.org/fhir/v3/ParticipationType"/>
                     <code value="PRF"/>
                     <display value="Performer"/>
                  </coding>
               </type>
               <individual>
                  <extension url="http://nictiz.nl/fhir/StructureDefinition/practitionerrole-reference">
                     <valueReference>
                        <reference value="urn:uuid:fe36b829-e619-11ea-2095-020000000000"/>
                        <display value="Huisarts 1 || Gezondheidscentrum Aesculaap"/>
                     </valueReference>
                  </extension>
                  <reference value="urn:oid:2.16.528.1.1007.3.1.900016431"/>
                  <display value="Huisarts 1"/>
               </individual>
            </participant>
            <period>
               <start value="2020-02-04T12:56:45+01:00"/>
               <end value="2020-02-04T13:26:45+01:00"/>
            </period>
            <serviceProvider>
               <reference value="urn:oid:2.16.528.1.1007.3.3.2727"/>
               <display value="Gezondheidscentrum Aesculaap"/>
            </serviceProvider>
         </Encounter>
      </resource>
      <search>
         <mode value="match"/>
      </search>
   </entry>
   <entry>
      <fullUrl value="urn:uuid:fe36bd92-e619-11ea-2095-020000000000"/>
      <resource>
         <Encounter>
            <meta>
               <profile value="http://nictiz.nl/fhir/StructureDefinition/gp-Encounter"/>
            </meta>
            <text>
               <status value="extensions"/>
               <div xmlns="http://www.w3.org/1999/xhtml">
                  <table>
                     <caption>Contact. Subject: J. XXX_Cevat. Id: MedMijHG_contactmomentMMK (urn:oid:2.16.840.1.113883.2.4.3.111.19.1), Status: voltooid</caption>
                     <tbody>
                        <tr>
                           <th>Type contact</th>
                           <td>
                              <div>
                                 <span title="Ambulatory (AMB - v3/ActCode)">Ambulatory</span>
                              </div>
                              <span title="consult (03 - nhg-tabel-14-contactwijze)">consult</span>
                           </td>
                        </tr>
                        <tr>
                           <th>Periode</th>
                           <td>12:56:45 - 13:26:45 op 25 januari 2020</td>
                        </tr>
                        <tr>
                           <th>Participant</th>
                           <td>
                              <div>
                                 <span title="Performer (PRF - v3/ParticipationType)">Performer</span> - Huisarts 1 || Gezondheidscentrum Aesculaap</div>
                           </td>
                        </tr>
                        <tr>
                           <th>Zorgaanbieder</th>
                           <td>Gezondheidscentrum Aesculaap</td>
                        </tr>
                     </tbody>
                  </table>
               </div>
            </text>
            <identifier>
               <system value="urn:oid:2.16.840.1.113883.2.4.3.111.19.1"/>
               <value value="MedMijHG_contactmomentMMK"/>
            </identifier>
            <status value="finished"/>
            <class>
               <system value="http://hl7.org/fhir/v3/ActCode"/>
               <code value="AMB"/>
               <display value="Ambulatory"/>
            </class>
            <type>
               <coding>
                  <system value="https://referentiemodel.nhg.org/tabellen/nhg-tabel-14-contactwijze"/>
                  <version value="v3"/>
                  <code value="03"/>
                  <display value="consult"/>
               </coding>
            </type>
            <subject>
               <reference value="urn:uuid:fe36b7fc-e619-11ea-2095-020000000000"/>
               <display value="J. XXX_Cevat"/>
            </subject>
            <episodeOfCare>
               <identifier>
                  <system value="urn:oid:2.16.840.1.113883.2.4.3.111.19.1"/>
                  <value value="MedMijHG_concern_R96"/>
               </identifier>
               <display value="Episode: MedMijHG_concern_R96 2.16.840.1.113883.2.4.3.111.19.1"/>
            </episodeOfCare>
            <participant>
               <type>
                  <coding>
                     <system value="http://hl7.org/fhir/v3/ParticipationType"/>
                     <code value="PRF"/>
                     <display value="Performer"/>
                  </coding>
               </type>
               <individual>
                  <extension url="http://nictiz.nl/fhir/StructureDefinition/practitionerrole-reference">
                     <valueReference>
                        <reference value="urn:uuid:fe36b829-e619-11ea-2095-020000000000"/>
                        <display value="Huisarts 1 || Gezondheidscentrum Aesculaap"/>
                     </valueReference>
                  </extension>
                  <reference value="urn:oid:2.16.528.1.1007.3.1.900016431"/>
                  <display value="Huisarts 1"/>
               </individual>
            </participant>
            <period>
               <start value="2020-01-25T12:56:45+01:00"/>
               <end value="2020-01-25T13:26:45+01:00"/>
            </period>
            <serviceProvider>
               <reference value="urn:oid:2.16.528.1.1007.3.3.2727"/>
               <display value="Gezondheidscentrum Aesculaap"/>
            </serviceProvider>
         </Encounter>
      </resource>
      <search>
         <mode value="match"/>
      </search>
   </entry>
   <entry>
      <fullUrl value="urn:uuid:fe36bdc3-e619-11ea-2095-020000000000"/>
      <resource>
         <Encounter>
            <meta>
               <profile value="http://nictiz.nl/fhir/StructureDefinition/gp-Encounter"/>
            </meta>
            <text>
               <status value="extensions"/>
               <div xmlns="http://www.w3.org/1999/xhtml">
                  <table>
                     <caption>Contact. Subject: J. XXX_Cevat. Id: MedMijHG_contactmoment09 (urn:oid:2.16.840.1.113883.2.4.3.111.19.1), Status: voltooid</caption>
                     <tbody>
                        <tr>
                           <th>Type contact</th>
                           <td>
                              <div>
                                 <span title="Ambulatory (AMB - v3/ActCode)">Ambulatory</span>
                              </div>
                              <span title="consult (03 - nhg-tabel-14-contactwijze)">consult</span>
                           </td>
                        </tr>
                        <tr>
                           <th>Periode</th>
                           <td>12:56:45 - 13:26:45 op 15 januari 2020</td>
                        </tr>
                        <tr>
                           <th>Participant</th>
                           <td>
                              <div>
                                 <span title="Performer (PRF - v3/ParticipationType)">Performer</span> - Huisarts 1 || Gezondheidscentrum Aesculaap</div>
                           </td>
                        </tr>
                        <tr>
                           <th>Zorgaanbieder</th>
                           <td>Gezondheidscentrum Aesculaap</td>
                        </tr>
                     </tbody>
                  </table>
               </div>
            </text>
            <identifier>
               <system value="urn:oid:2.16.840.1.113883.2.4.3.111.19.1"/>
               <value value="MedMijHG_contactmoment09"/>
            </identifier>
            <status value="finished"/>
            <class>
               <system value="http://hl7.org/fhir/v3/ActCode"/>
               <code value="AMB"/>
               <display value="Ambulatory"/>
            </class>
            <type>
               <coding>
                  <system value="https://referentiemodel.nhg.org/tabellen/nhg-tabel-14-contactwijze"/>
                  <version value="v3"/>
                  <code value="03"/>
                  <display value="consult"/>
               </coding>
            </type>
            <subject>
               <reference value="urn:uuid:fe36b7fc-e619-11ea-2095-020000000000"/>
               <display value="J. XXX_Cevat"/>
            </subject>
            <episodeOfCare>
               <identifier>
                  <system value="urn:oid:2.16.840.1.113883.2.4.3.111.19.1"/>
                  <value value="MedMijHG_concern_S74.01"/>
               </identifier>
               <display value="Episode: MedMijHG_concern_S74.01 2.16.840.1.113883.2.4.3.111.19.1"/>
            </episodeOfCare>
            <participant>
               <type>
                  <coding>
                     <system value="http://hl7.org/fhir/v3/ParticipationType"/>
                     <code value="PRF"/>
                     <display value="Performer"/>
                  </coding>
               </type>
               <individual>
                  <extension url="http://nictiz.nl/fhir/StructureDefinition/practitionerrole-reference">
                     <valueReference>
                        <reference value="urn:uuid:fe36b829-e619-11ea-2095-020000000000"/>
                        <display value="Huisarts 1 || Gezondheidscentrum Aesculaap"/>
                     </valueReference>
                  </extension>
                  <reference value="urn:oid:2.16.528.1.1007.3.1.900016431"/>
                  <display value="Huisarts 1"/>
               </individual>
            </participant>
            <period>
               <start value="2020-01-15T12:56:45+01:00"/>
               <end value="2020-01-15T13:26:45+01:00"/>
            </period>
            <serviceProvider>
               <reference value="urn:oid:2.16.528.1.1007.3.3.2727"/>
               <display value="Gezondheidscentrum Aesculaap"/>
            </serviceProvider>
         </Encounter>
      </resource>
      <search>
         <mode value="match"/>
      </search>
   </entry>
   <entry>
      <fullUrl value="urn:uuid:fe36bdf4-e619-11ea-2095-020000000000"/>
      <resource>
         <Encounter>
            <meta>
               <profile value="http://nictiz.nl/fhir/StructureDefinition/gp-Encounter"/>
            </meta>
            <text>
               <status value="extensions"/>
               <div xmlns="http://www.w3.org/1999/xhtml">
                  <table>
                     <caption>Contact. Subject: J. XXX_Cevat. Id: MedMijHG_contactmoment08 (urn:oid:2.16.840.1.113883.2.4.3.111.19.1), Status: voltooid</caption>
                     <tbody>
                        <tr>
                           <th>Type contact</th>
                           <td>
                              <div>
                                 <span title="Ambulatory (AMB - v3/ActCode)">Ambulatory</span>
                              </div>
                              <span title="consult (03 - nhg-tabel-14-contactwijze)">consult</span>
                           </td>
                        </tr>
                        <tr>
                           <th>Periode</th>
                           <td>12:56:45 - 13:26:45 op 10 januari 2020</td>
                        </tr>
                        <tr>
                           <th>Participant</th>
                           <td>
                              <div>
                                 <span title="Performer (PRF - v3/ParticipationType)">Performer</span> - Huisarts 1 || Gezondheidscentrum Aesculaap</div>
                           </td>
                        </tr>
                        <tr>
                           <th>Zorgaanbieder</th>
                           <td>Gezondheidscentrum Aesculaap</td>
                        </tr>
                     </tbody>
                  </table>
               </div>
            </text>
            <identifier>
               <system value="urn:oid:2.16.840.1.113883.2.4.3.111.19.1"/>
               <value value="MedMijHG_contactmoment08"/>
            </identifier>
            <status value="finished"/>
            <class>
               <system value="http://hl7.org/fhir/v3/ActCode"/>
               <code value="AMB"/>
               <display value="Ambulatory"/>
            </class>
            <type>
               <coding>
                  <system value="https://referentiemodel.nhg.org/tabellen/nhg-tabel-14-contactwijze"/>
                  <version value="v3"/>
                  <code value="03"/>
                  <display value="consult"/>
               </coding>
            </type>
            <subject>
               <reference value="urn:uuid:fe36b7fc-e619-11ea-2095-020000000000"/>
               <display value="J. XXX_Cevat"/>
            </subject>
            <episodeOfCare>
               <identifier>
                  <system value="urn:oid:2.16.840.1.113883.2.4.3.111.19.1"/>
                  <value value="MedMijHG_concern_S04"/>
               </identifier>
               <display value="Episode: MedMijHG_concern_S04 2.16.840.1.113883.2.4.3.111.19.1"/>
            </episodeOfCare>
            <participant>
               <type>
                  <coding>
                     <system value="http://hl7.org/fhir/v3/ParticipationType"/>
                     <code value="PRF"/>
                     <display value="Performer"/>
                  </coding>
               </type>
               <individual>
                  <extension url="http://nictiz.nl/fhir/StructureDefinition/practitionerrole-reference">
                     <valueReference>
                        <reference value="urn:uuid:fe36b829-e619-11ea-2095-020000000000"/>
                        <display value="Huisarts 1 || Gezondheidscentrum Aesculaap"/>
                     </valueReference>
                  </extension>
                  <reference value="urn:oid:2.16.528.1.1007.3.1.900016431"/>
                  <display value="Huisarts 1"/>
               </individual>
            </participant>
            <period>
               <start value="2020-01-10T12:56:45+01:00"/>
               <end value="2020-01-10T13:26:45+01:00"/>
            </period>
            <serviceProvider>
               <reference value="urn:oid:2.16.528.1.1007.3.3.2727"/>
               <display value="Gezondheidscentrum Aesculaap"/>
            </serviceProvider>
         </Encounter>
      </resource>
      <search>
         <mode value="match"/>
      </search>
   </entry>
   <entry>
      <fullUrl value="urn:uuid:fe36be25-e619-11ea-2095-020000000000"/>
      <resource>
         <Encounter>
            <meta>
               <profile value="http://nictiz.nl/fhir/StructureDefinition/gp-Encounter"/>
            </meta>
            <text>
               <status value="extensions"/>
               <div xmlns="http://www.w3.org/1999/xhtml">
                  <table>
                     <caption>Contact. Subject: J. XXX_Cevat. Id: MedMijHG_contactmoment03 (urn:oid:2.16.840.1.113883.2.4.3.111.19.1), Status: voltooid</caption>
                     <tbody>
                        <tr>
                           <th>Type contact</th>
                           <td>
                              <div>
                                 <span title="Ambulatory (AMB - v3/ActCode)">Ambulatory</span>
                              </div>
                              <span title="consult (03 - nhg-tabel-14-contactwijze)">consult</span>
                           </td>
                        </tr>
                        <tr>
                           <th>Periode</th>
                           <td>13:56:45 - 14:26:45 op 9 juli 2019</td>
                        </tr>
                        <tr>
                           <th>Participant</th>
                           <td>
                              <div>
                                 <span title="Performer (PRF - v3/ParticipationType)">Performer</span> - Huisarts 1 || Gezondheidscentrum Aesculaap</div>
                           </td>
                        </tr>
                        <tr>
                           <th>Zorgaanbieder</th>
                           <td>Gezondheidscentrum Aesculaap</td>
                        </tr>
                     </tbody>
                  </table>
               </div>
            </text>
            <identifier>
               <system value="urn:oid:2.16.840.1.113883.2.4.3.111.19.1"/>
               <value value="MedMijHG_contactmoment03"/>
            </identifier>
            <status value="finished"/>
            <class>
               <system value="http://hl7.org/fhir/v3/ActCode"/>
               <code value="AMB"/>
               <display value="Ambulatory"/>
            </class>
            <type>
               <coding>
                  <system value="https://referentiemodel.nhg.org/tabellen/nhg-tabel-14-contactwijze"/>
                  <version value="v3"/>
                  <code value="03"/>
                  <display value="consult"/>
               </coding>
            </type>
            <subject>
               <reference value="urn:uuid:fe36b7fc-e619-11ea-2095-020000000000"/>
               <display value="J. XXX_Cevat"/>
            </subject>
            <participant>
               <type>
                  <coding>
                     <system value="http://hl7.org/fhir/v3/ParticipationType"/>
                     <code value="PRF"/>
                     <display value="Performer"/>
                  </coding>
               </type>
               <individual>
                  <extension url="http://nictiz.nl/fhir/StructureDefinition/practitionerrole-reference">
                     <valueReference>
                        <reference value="urn:uuid:fe36b829-e619-11ea-2095-020000000000"/>
                        <display value="Huisarts 1 || Gezondheidscentrum Aesculaap"/>
                     </valueReference>
                  </extension>
                  <reference value="urn:oid:2.16.528.1.1007.3.1.900016431"/>
                  <display value="Huisarts 1"/>
               </individual>
            </participant>
            <period>
               <start value="2019-07-09T13:56:45+02:00"/>
               <end value="2019-07-09T14:26:45+02:00"/>
            </period>
            <serviceProvider>
               <reference value="urn:oid:2.16.528.1.1007.3.3.2727"/>
               <display value="Gezondheidscentrum Aesculaap"/>
            </serviceProvider>
         </Encounter>
      </resource>
      <search>
         <mode value="match"/>
      </search>
   </entry>
   <entry>
      <fullUrl value="urn:uuid:fe36be51-e619-11ea-2095-020000000000"/>
      <resource>
         <Encounter>
            <meta>
               <profile value="http://nictiz.nl/fhir/StructureDefinition/gp-Encounter"/>
            </meta>
            <text>
               <status value="extensions"/>
               <div xmlns="http://www.w3.org/1999/xhtml">
                  <table>
                     <caption>Contact. Subject: J. XXX_Cevat. Id: MedMijHG_contactmoment02 (urn:oid:2.16.840.1.113883.2.4.3.111.19.1), Status: voltooid</caption>
                     <tbody>
                        <tr>
                           <th>Type contact</th>
                           <td>
                              <div>
                                 <span title="Ambulatory (AMB - v3/ActCode)">Ambulatory</span>
                              </div>
                              <span title="consult (03 - nhg-tabel-14-contactwijze)">consult</span>
                           </td>
                        </tr>
                        <tr>
                           <th>Periode</th>
                           <td>13:56:45 - 14:26:45 op 19 juni 2019</td>
                        </tr>
                        <tr>
                           <th>Participant</th>
                           <td>
                              <div>
                                 <span title="Performer (PRF - v3/ParticipationType)">Performer</span> - Huisarts 1 || Gezondheidscentrum Aesculaap</div>
                           </td>
                        </tr>
                        <tr>
                           <th>Zorgaanbieder</th>
                           <td>Gezondheidscentrum Aesculaap</td>
                        </tr>
                     </tbody>
                  </table>
               </div>
            </text>
            <identifier>
               <system value="urn:oid:2.16.840.1.113883.2.4.3.111.19.1"/>
               <value value="MedMijHG_contactmoment02"/>
            </identifier>
            <status value="finished"/>
            <class>
               <system value="http://hl7.org/fhir/v3/ActCode"/>
               <code value="AMB"/>
               <display value="Ambulatory"/>
            </class>
            <type>
               <coding>
                  <system value="https://referentiemodel.nhg.org/tabellen/nhg-tabel-14-contactwijze"/>
                  <version value="v3"/>
                  <code value="03"/>
                  <display value="consult"/>
               </coding>
            </type>
            <subject>
               <reference value="urn:uuid:fe36b7fc-e619-11ea-2095-020000000000"/>
               <display value="J. XXX_Cevat"/>
            </subject>
            <participant>
               <type>
                  <coding>
                     <system value="http://hl7.org/fhir/v3/ParticipationType"/>
                     <code value="PRF"/>
                     <display value="Performer"/>
                  </coding>
               </type>
               <individual>
                  <extension url="http://nictiz.nl/fhir/StructureDefinition/practitionerrole-reference">
                     <valueReference>
                        <reference value="urn:uuid:fe36b829-e619-11ea-2095-020000000000"/>
                        <display value="Huisarts 1 || Gezondheidscentrum Aesculaap"/>
                     </valueReference>
                  </extension>
                  <reference value="urn:oid:2.16.528.1.1007.3.1.900016431"/>
                  <display value="Huisarts 1"/>
               </individual>
            </participant>
            <period>
               <start value="2019-06-19T13:56:45+02:00"/>
               <end value="2019-06-19T14:26:45+02:00"/>
            </period>
            <serviceProvider>
               <reference value="urn:oid:2.16.528.1.1007.3.3.2727"/>
               <display value="Gezondheidscentrum Aesculaap"/>
            </serviceProvider>
         </Encounter>
      </resource>
      <search>
         <mode value="match"/>
      </search>
   </entry>
   <entry>
      <fullUrl value="urn:uuid:fe36be7c-e619-11ea-2095-020000000000"/>
      <resource>
         <Encounter>
            <meta>
               <profile value="http://nictiz.nl/fhir/StructureDefinition/gp-Encounter"/>
            </meta>
            <text>
               <status value="extensions"/>
               <div xmlns="http://www.w3.org/1999/xhtml">
                  <table>
                     <caption>Contact. Subject: J. XXX_Cevat. Id: MedMijHG_contactmoment01 (urn:oid:2.16.840.1.113883.2.4.3.111.19.1), Status: voltooid</caption>
                     <tbody>
                        <tr>
                           <th>Type contact</th>
                           <td>
                              <div>
                                 <span title="Ambulatory (AMB - v3/ActCode)">Ambulatory</span>
                              </div>
                              <span title="consult (03 - nhg-tabel-14-contactwijze)">consult</span>
                           </td>
                        </tr>
                        <tr>
                           <th>Periode</th>
                           <td>13:56:45 - 14:26:45 op 30 mei 2019</td>
                        </tr>
                        <tr>
                           <th>Participant</th>
                           <td>
                              <div>
                                 <span title="Performer (PRF - v3/ParticipationType)">Performer</span> - Huisarts 1 || Gezondheidscentrum Aesculaap</div>
                           </td>
                        </tr>
                        <tr>
                           <th>Zorgaanbieder</th>
                           <td>Gezondheidscentrum Aesculaap</td>
                        </tr>
                     </tbody>
                  </table>
               </div>
            </text>
            <identifier>
               <system value="urn:oid:2.16.840.1.113883.2.4.3.111.19.1"/>
               <value value="MedMijHG_contactmoment01"/>
            </identifier>
            <status value="finished"/>
            <class>
               <system value="http://hl7.org/fhir/v3/ActCode"/>
               <code value="AMB"/>
               <display value="Ambulatory"/>
            </class>
            <type>
               <coding>
                  <system value="https://referentiemodel.nhg.org/tabellen/nhg-tabel-14-contactwijze"/>
                  <version value="v3"/>
                  <code value="03"/>
                  <display value="consult"/>
               </coding>
            </type>
            <subject>
               <reference value="urn:uuid:fe36b7fc-e619-11ea-2095-020000000000"/>
               <display value="J. XXX_Cevat"/>
            </subject>
            <episodeOfCare>
               <identifier>
                  <system value="urn:oid:2.16.840.1.113883.2.4.3.111.19.1"/>
                  <value value="MedMijHG_concern_K78"/>
               </identifier>
               <display value="Episode: MedMijHG_concern_K78 2.16.840.1.113883.2.4.3.111.19.1"/>
            </episodeOfCare>
            <participant>
               <type>
                  <coding>
                     <system value="http://hl7.org/fhir/v3/ParticipationType"/>
                     <code value="PRF"/>
                     <display value="Performer"/>
                  </coding>
               </type>
               <individual>
                  <extension url="http://nictiz.nl/fhir/StructureDefinition/practitionerrole-reference">
                     <valueReference>
                        <reference value="urn:uuid:fe36b829-e619-11ea-2095-020000000000"/>
                        <display value="Huisarts 1 || Gezondheidscentrum Aesculaap"/>
                     </valueReference>
                  </extension>
                  <reference value="urn:oid:2.16.528.1.1007.3.1.900016431"/>
                  <display value="Huisarts 1"/>
               </individual>
            </participant>
            <period>
               <start value="2019-05-30T13:56:45+02:00"/>
               <end value="2019-05-30T14:26:45+02:00"/>
            </period>
            <serviceProvider>
               <reference value="urn:oid:2.16.528.1.1007.3.3.2727"/>
               <display value="Gezondheidscentrum Aesculaap"/>
            </serviceProvider>
         </Encounter>
      </resource>
      <search>
         <mode value="match"/>
      </search>
   </entry>
   <entry>
      <fullUrl value="urn:uuid:fe36b7fc-e619-11ea-2095-020000000000"/>
      <resource>
         <Patient>
            <meta>
               <profile value="http://fhir.nl/fhir/StructureDefinition/nl-core-patient"/>
            </meta>
            <text>
               <status value="extensions"/>
               <div xmlns="http://www.w3.org/1999/xhtml">
                  <div>Id <i>afgeschermd (ontbrekend gegeven)</i> (BSN), J. XXX_Cevat, Man, 30 december 1985</div>
                  <div>Knolweg 1003, 9999ZA STITSWERD, Nederland</div>
               </div>
            </text>
            <identifier>
               <system value="http://fhir.nl/fhir/NamingSystem/bsn"/>
               <value>
                  <extension url="http://hl7.org/fhir/StructureDefinition/data-absent-reason">
                     <valueCode value="masked"/>
                  </extension>
               </value>
            </identifier>
            <name>
               <extension url="http://hl7.org/fhir/StructureDefinition/humanname-assembly-order">
                  <valueCode value="NL1"/>
               </extension>
               <family value="XXX_Cevat">
                  <extension url="http://hl7.org/fhir/StructureDefinition/humanname-own-name">
                     <valueString value="XXX_Cevat"/>
                  </extension>
               </family>
               <given value="J.">
                  <extension url="http://hl7.org/fhir/StructureDefinition/iso21090-EN-qualifier">
                     <valueCode value="IN"/>
                  </extension>
               </given>
            </name>
            <gender value="male"/>
            <birthDate value="1985-12-30"/>
            <address>
               <line value="Knolweg 1003">
                  <extension url="http://hl7.org/fhir/StructureDefinition/iso21090-ADXP-streetName">
                     <valueString value="Knolweg"/>
                  </extension>
                  <extension url="http://hl7.org/fhir/StructureDefinition/iso21090-ADXP-houseNumber">
                     <valueString value="1003"/>
                  </extension>
               </line>
               <city value="STITSWERD"/>
               <postalCode value="9999ZA"/>
               <country value="Nederland"/>
            </address>
         </Patient>
      </resource>
      <search>
         <mode value="include"/>
      </search>
   </entry>
   <entry>
      <fullUrl value="urn:oid:2.16.528.1.1007.3.1.900016431"/>
      <resource>
         <Practitioner>
            <meta>
               <profile value="http://fhir.nl/fhir/StructureDefinition/nl-core-practitioner"/>
            </meta>
            <text>
               <status value="extensions"/>
               <div xmlns="http://www.w3.org/1999/xhtml">
                  <div>Id 900016431 (UZI-NR-PERS), Huisarts 1</div>
               </div>
            </text>
            <identifier>
               <system value="http://fhir.nl/fhir/NamingSystem/uzi-nr-pers"/>
               <value value="900016431"/>
            </identifier>
            <name>
               <extension url="http://hl7.org/fhir/StructureDefinition/humanname-assembly-order">
                  <valueCode value="NL1"/>
               </extension>
               <family value="Huisarts 1">
                  <extension url="http://hl7.org/fhir/StructureDefinition/humanname-own-name">
                     <valueString value="Huisarts 1"/>
                  </extension>
               </family>
            </name>
         </Practitioner>
      </resource>
      <search>
         <mode value="include"/>
      </search>
   </entry>
   <entry>
      <fullUrl value="urn:oid:2.16.528.1.1007.3.3.2727"/>
      <resource>
         <Organization>
            <meta>
               <profile value="http://fhir.nl/fhir/StructureDefinition/nl-core-organization"/>
            </meta>
            <text>
               <status value="extensions"/>
               <div xmlns="http://www.w3.org/1999/xhtml">
                  <table>
                     <caption>Organisatie. Id: 00002727 (URA)</caption>
                     <tbody>
                        <tr>
                           <th>Naam</th>
                           <td>Gezondheidscentrum Aesculaap</td>
                        </tr>
                     </tbody>
                  </table>
               </div>
            </text>
            <identifier>
               <system value="http://fhir.nl/fhir/NamingSystem/ura"/>
               <value value="00002727"/>
            </identifier>
            <name value="Gezondheidscentrum Aesculaap"/>
         </Organization>
      </resource>
      <search>
         <mode value="include"/>
      </search>
   </entry>
   <entry>
      <fullUrl value="urn:uuid:fe36b829-e619-11ea-2095-020000000000"/>
      <resource>
         <PractitionerRole>
            <meta>
               <profile value="http://fhir.nl/fhir/StructureDefinition/nl-core-practitionerrole"/>
            </meta>
            <text>
               <status value="extensions"/>
               <div xmlns="http://www.w3.org/1999/xhtml">
                  <table>
                     <caption>Zorgverlenerrol. </caption>
                     <tbody>
                        <tr>
                           <th>Zorgverlener</th>
                           <td>
                              <div>Huisarts 1</div>
                              <div>Gezondheidscentrum Aesculaap</div>
                           </td>
                        </tr>
                        <tr>
                           <th>Specialisme</th>
                           <td>01.015 (http://fhir.nl/fhir/NamingSystem/uzi-rolcode)</td>
                        </tr>
                     </tbody>
                  </table>
               </div>
            </text>
            <practitioner>
               <reference value="urn:oid:2.16.528.1.1007.3.1.900016431"/>
               <display value="Huisarts 1"/>
            </practitioner>
            <organization>
               <reference value="urn:oid:2.16.528.1.1007.3.3.2727"/>
               <display value="Gezondheidscentrum Aesculaap"/>
            </organization>
            <specialty>
               <coding>
                  <system value="http://fhir.nl/fhir/NamingSystem/uzi-rolcode"/>
                  <code value="01.015"/>
               </coding>
            </specialty>
         </PractitionerRole>
      </resource>
      <search>
         <mode value="include"/>
      </search>
   </entry>
</Bundle>