<?xml-model href="http://hl7.org/fhir/STU3/bundle.sch" type="application/xml" schematypens="http://purl.oclc.org/dsdl/schematron"?><Bundle xmlns="http://hl7.org/fhir"
        xmlns:xsi="http://www.w3.org/2001/XMLSchema-instance"
        xsi:schemaLocation="http://hl7.org/fhir http://hl7.org/fhir/STU3/fhir-all.xsd">
   <type value="searchset"/>
   <total value="2"/>
   <entry>
      <fullUrl value="urn:oid:2.16.840.1.113883.2.4.6.6.90000258.4.1.996625"/>
      <resource>
         <Composition>
            <meta>
               <profile value="http://nictiz.nl/fhir/StructureDefinition/gp-EncounterReport"/>
            </meta>
            <status value="final"/>
            <type>
               <coding>
                  <system value="http://loinc.org"/>
                  <code value="67781-5"/>
               </coding>
            </type>
            <subject>
               <reference value="urn:uuid:3f9958f2-f4c8-11e9-1041-28f10e481d92"/>
               <display value="E. XXX_Zegers"/>
            </subject>
            <encounter>
               <identifier>
                  <system value="urn:oid:2.16.840.1.113883.2.4.6.6.90000258.4.10"/>
                  <value value="996625"/>
               </identifier>
               <display value="Contact ID: 996625 2.16.840.1.113883.2.4.6.6.90000258.4.10"/>
            </encounter>
            <date value="2019-01-30T16:45:00"/>
            <author>
               <reference value="urn:oid:2.16.528.1.1007.3.1.900014718"/>
               <display value="Responsible Party"/>
            </author>
            <title value="Contactverslag E. XXX_Zegers"/>
         </Composition>
      </resource>
      <search>
         <mode value="match"/>
      </search>
   </entry>
   <entry>
      <fullUrl value="urn:oid:2.16.840.1.113883.2.4.6.6.90000258.4.1.996626"/>
      <resource>
         <Composition>
            <meta>
               <profile value="http://nictiz.nl/fhir/StructureDefinition/gp-EncounterReport"/>
            </meta>
            <status value="final"/>
            <type>
               <coding>
                  <system value="http://loinc.org"/>
                  <code value="67781-5"/>
               </coding>
            </type>
            <subject>
               <reference value="urn:uuid:3f9958f2-f4c8-11e9-1041-28f10e481d92"/>
               <display value="E. XXX_Zegers"/>
            </subject>
            <encounter>
               <identifier>
                  <system value="urn:oid:2.16.840.1.113883.2.4.6.6.90000258.4.10"/>
                  <value value="996626"/>
               </identifier>
               <display value="Contact ID: 996626 2.16.840.1.113883.2.4.6.6.90000258.4.10"/>
            </encounter>
            <date value="2019-02-02T17:03:00"/>
            <author>
               <reference value="urn:oid:2.16.528.1.1007.3.1.900014718"/>
               <display value="Responsible Party"/>
            </author>
            <title value="Contactverslag E. XXX_Zegers"/>
         </Composition>
      </resource>
      <search>
         <mode value="match"/>
      </search>
   </entry>
   <entry>
      <fullUrl value="urn:uuid:3f9958f2-f4c8-11e9-1041-28f10e481d92"/>
      <resource>
         <Patient>
            <meta>
               <profile value="http://fhir.nl/fhir/StructureDefinition/nl-core-patient"/>
            </meta>
            <identifier>
               <system value="http://fhir.nl/fhir/NamingSystem/bsn"/>
               <value>
                  <extension url="http://hl7.org/fhir/StructureDefinition/data-absent-reason">
                     <valueCode value="masked"/>
                  </extension>
               </value>
            </identifier>
            <name>
               <extension url="http://hl7.org/fhir/StructureDefinition/humanname-assembly-order">
                  <valueCode value="NL1"/>
               </extension>
               <family value="XXX_Zegers">
                  <extension url="http://hl7.org/fhir/StructureDefinition/humanname-own-name">
                     <valueString value="XXX_Zegers"/>
                  </extension>
               </family>
               <given value="E.">
                  <extension url="http://hl7.org/fhir/StructureDefinition/iso21090-EN-qualifier">
                     <valueCode value="IN"/>
                  </extension>
               </given>
            </name>
            <gender value="female"/>
            <birthDate value="1964-08-02"/>
            <address>
               <extension url="http://fhir.nl/fhir/StructureDefinition/nl-core-address-official">
                  <valueCode value="true"/>
               </extension>
               <use value="home">
                  <extension url="http://hl7.org/fhir/StructureDefinition/iso21090-AD-use">
                     <valueCode value="HP"/>
                  </extension>
               </use>
               <type value="physical"/>
               <line value="Knolweg 1001">
                  <extension url="http://hl7.org/fhir/StructureDefinition/iso21090-ADXP-streetName">
                     <valueString value="Knolweg"/>
                  </extension>
                  <extension url="http://hl7.org/fhir/StructureDefinition/iso21090-ADXP-houseNumber">
                     <valueString value="1001"/>
                  </extension>
               </line>
               <city value="STITSWERD"/>
               <postalCode value="9999 XX"/>
               <country value="Nederland"/>
            </address>
         </Patient>
      </resource>
      <search>
         <mode value="include"/>
      </search>
   </entry>
   <entry>
      <fullUrl value="urn:oid:2.16.528.1.1007.3.1.900014718"/>
      <resource>
         <Practitioner>
            <meta>
               <profile value="http://fhir.nl/fhir/StructureDefinition/nl-core-practitioner"/>
            </meta>
            <identifier>
               <system value="http://fhir.nl/fhir/NamingSystem/uzi-nr-pers"/>
               <value value="900014718"/>
            </identifier>
         </Practitioner>
      </resource>
      <search>
         <mode value="include"/>
      </search>
   </entry>
   <entry>
      <fullUrl value="urn:oid:2.16.528.1.1007.3.3.90000381"/>
      <resource>
         <Organization>
            <meta>
               <profile value="http://fhir.nl/fhir/StructureDefinition/nl-core-organization"/>
            </meta>
            <identifier>
               <system value="http://fhir.nl/fhir/NamingSystem/ura"/>
               <value value="90000381"/>
            </identifier>
            <name value="Tést Zorginstelling 04"/>
         </Organization>
      </resource>
      <search>
         <mode value="include"/>
      </search>
   </entry>
   <entry>
      <fullUrl value="urn:uuid:3f995905-f4c8-11e9-1041-28f10e481d92"/>
      <resource>
         <PractitionerRole>
            <meta>
               <profile value="http://fhir.nl/fhir/StructureDefinition/nl-core-practitionerrole"/>
            </meta>
            <practitioner>
               <reference value="urn:oid:2.16.528.1.1007.3.1.900014718"/>
               <display value="Responsible Party"/>
            </practitioner>
         </PractitionerRole>
      </resource>
      <search>
         <mode value="include"/>
      </search>
   </entry>
   <entry>
      <fullUrl value="urn:uuid:3f99590c-f4c8-11e9-1041-28f10e481d92"/>
      <resource>
         <Observation>
            <status value="final"/>
            <code>
               <coding>
                  <system value="http://fhir.nl/fhir/NamingSystem/journaalregeltypen"/>
                  <code value="S"/>
                  <display value="Subjectief"/>
               </coding>
            </code>
            <context>
               <identifier>
                  <system value="urn:oid:2.16.840.1.113883.2.4.6.6.90000258.4.10"/>
                  <value value="996625"/>
               </identifier>
               <display value="Contact ID: 996625 2.16.840.1.113883.2.4.6.6.90000258.4.10"/>
            </context>
            <valueString value="Gaat beter, nog wel af en toe benauwd/hoesten. Geen koorts, weinig slijm en geen PoB."/>
         </Observation>
      </resource>
      <search>
         <mode value="include"/>
      </search>
   </entry>
   <entry>
      <fullUrl value="urn:uuid:3f99590f-f4c8-11e9-1041-28f10e481d92"/>
      <resource>
         <Observation>
            <status value="final"/>
            <code>
               <coding>
                  <system value="http://fhir.nl/fhir/NamingSystem/journaalregeltypen"/>
                  <code value="O"/>
                  <display value="Objectief"/>
               </coding>
            </code>
            <context>
               <identifier>
                  <system value="urn:oid:2.16.840.1.113883.2.4.6.6.90000258.4.10"/>
                  <value value="996625"/>
               </identifier>
               <display value="Contact ID: 996625 2.16.840.1.113883.2.4.6.6.90000258.4.10"/>
            </context>
            <valueString value="Longen VAG geen crep, piep, wel wat rhonchi. Percussie gb."/>
         </Observation>
      </resource>
      <search>
         <mode value="include"/>
      </search>
   </entry>
   <entry>
      <fullUrl value="urn:uuid:3f995912-f4c8-11e9-1041-28f10e481d92"/>
      <resource>
         <Observation>
            <status value="final"/>
            <code>
               <coding>
                  <system value="http://fhir.nl/fhir/NamingSystem/journaalregeltypen"/>
                  <code value="E"/>
                  <display value="Evaluatie"/>
               </coding>
            </code>
            <context>
               <identifier>
                  <system value="urn:oid:2.16.840.1.113883.2.4.6.6.90000258.4.10"/>
                  <value value="996625"/>
               </identifier>
               <display value="Contact ID: 996625 2.16.840.1.113883.2.4.6.6.90000258.4.10"/>
            </context>
            <valueString value="COPD, beterend"/>
            <component>
               <code>
                  <coding>
                     <system value="http://hl7.org/fhir/v3/ActCode"/>
                     <code value="DISDX"/>
                     <display value="discharge diagnosis"/>
                  </coding>
               </code>
               <valueCodeableConcept>
                  <coding>
                     <system value="http://hl7.org/fhir/sid/icpc-1-nl"/>
                     <code value="R95"/>
                     <display value="Emfyseem/COPD"/>
                  </coding>
               </valueCodeableConcept>
            </component>
         </Observation>
      </resource>
      <search>
         <mode value="include"/>
      </search>
   </entry>
   <entry>
      <fullUrl value="urn:uuid:3f99591c-f4c8-11e9-1041-28f10e481d92"/>
      <resource>
         <Observation>
            <status value="final"/>
            <code>
               <coding>
                  <system value="http://fhir.nl/fhir/NamingSystem/journaalregeltypen"/>
                  <code value="P"/>
                  <display value="Plan"/>
               </coding>
            </code>
            <context>
               <identifier>
                  <system value="urn:oid:2.16.840.1.113883.2.4.6.6.90000258.4.10"/>
                  <value value="996625"/>
               </identifier>
               <display value="Contact ID: 996625 2.16.840.1.113883.2.4.6.6.90000258.4.10"/>
            </context>
            <valueString value="Controle afspreken POH voor ketenzorg en blaastest, continueren flixotide, zn ventolin."/>
         </Observation>
      </resource>
      <search>
         <mode value="include"/>
      </search>
   </entry>
   <entry>
      <fullUrl value="urn:uuid:3f995929-f4c8-11e9-1041-28f10e481d92"/>
      <resource>
         <Observation>
            <status value="final"/>
            <code>
               <coding>
                  <system value="http://fhir.nl/fhir/NamingSystem/journaalregeltypen"/>
                  <code value="S"/>
                  <display value="Subjectief"/>
               </coding>
            </code>
            <context>
               <identifier>
                  <system value="urn:oid:2.16.840.1.113883.2.4.6.6.90000258.4.10"/>
                  <value value="996626"/>
               </identifier>
               <display value="Contact ID: 996626 2.16.840.1.113883.2.4.6.6.90000258.4.10"/>
            </context>
            <valueString value="Gaat slechter. Medicatie slaat niet aan aldus pat. Koorts-. Hoest+++. Slijm geel. "/>
         </Observation>
      </resource>
      <search>
         <mode value="include"/>
      </search>
   </entry>
   <entry>
      <fullUrl value="urn:uuid:3f99592c-f4c8-11e9-1041-28f10e481d92"/>
      <resource>
         <Observation>
            <status value="final"/>
            <code>
               <coding>
                  <system value="http://fhir.nl/fhir/NamingSystem/journaalregeltypen"/>
                  <code value="O"/>
                  <display value="Objectief"/>
               </coding>
            </code>
            <context>
               <identifier>
                  <system value="urn:oid:2.16.840.1.113883.2.4.6.6.90000258.4.10"/>
                  <value value="996626"/>
               </identifier>
               <display value="Contact ID: 996626 2.16.840.1.113883.2.4.6.6.90000258.4.10"/>
            </context>
            <valueString value="Longen VAG crep+, piep iets, rhonchi+.  Percussie gb. "/>
         </Observation>
      </resource>
      <search>
         <mode value="include"/>
      </search>
   </entry>
   <entry>
      <fullUrl value="urn:uuid:3f99592f-f4c8-11e9-1041-28f10e481d92"/>
      <resource>
         <Observation>
            <status value="final"/>
            <code>
               <coding>
                  <system value="http://fhir.nl/fhir/NamingSystem/journaalregeltypen"/>
                  <code value="E"/>
                  <display value="Evaluatie"/>
               </coding>
            </code>
            <context>
               <identifier>
                  <system value="urn:oid:2.16.840.1.113883.2.4.6.6.90000258.4.10"/>
                  <value value="996626"/>
               </identifier>
               <display value="Contact ID: 996626 2.16.840.1.113883.2.4.6.6.90000258.4.10"/>
            </context>
            <valueString value="COPD, exacerbatie"/>
            <component>
               <code>
                  <coding>
                     <system value="http://hl7.org/fhir/v3/ActCode"/>
                     <code value="DISDX"/>
                     <display value="discharge diagnosis"/>
                  </coding>
               </code>
               <valueCodeableConcept>
                  <coding>
                     <system value="http://hl7.org/fhir/sid/icpc-1-nl"/>
                     <code value="R95"/>
                     <display value="Emfyseem/COPD"/>
                  </coding>
               </valueCodeableConcept>
            </component>
         </Observation>
      </resource>
      <search>
         <mode value="include"/>
      </search>
   </entry>
   <entry>
      <fullUrl value="urn:uuid:3f995939-f4c8-11e9-1041-28f10e481d92"/>
      <resource>
         <Observation>
            <status value="final"/>
            <code>
               <coding>
                  <system value="http://fhir.nl/fhir/NamingSystem/journaalregeltypen"/>
                  <code value="P"/>
                  <display value="Plan"/>
               </coding>
            </code>
            <context>
               <identifier>
                  <system value="urn:oid:2.16.840.1.113883.2.4.6.6.90000258.4.10"/>
                  <value value="996626"/>
               </identifier>
               <display value="Contact ID: 996626 2.16.840.1.113883.2.4.6.6.90000258.4.10"/>
            </context>
            <valueString value="AB starten, ventolin 3-4 dgs."/>
         </Observation>
      </resource>
      <search>
         <mode value="include"/>
      </search>
   </entry>
</Bundle>