<?xml-model href="http://hl7.org/fhir/STU3/bundle.sch" type="application/xml" schematypens="http://purl.oclc.org/dsdl/schematron"?><Bundle xmlns="http://hl7.org/fhir"
        xmlns:xsi="http://www.w3.org/2001/XMLSchema-instance"
        xsi:schemaLocation="http://hl7.org/fhir http://hl7.org/fhir/STU3/fhir-all.xsd">
   <type value="searchset"/>
   <total value="18"/>
   <entry>
      <fullUrl value="urn:uuid:bc32b4b7-54b4-11eb-4949-020000000000"/>
      <resource>
         <Composition>
            <meta>
               <profile value="http://nictiz.nl/fhir/StructureDefinition/gp-EncounterReport"/>
            </meta>
            <text>
               <status value="extensions"/>
               <div xmlns="http://www.w3.org/1999/xhtml">
                  <b>Tinea Pedis</b>
                  <table>
                     <caption>Samengestelde informatie. Subject: H. XXX_Mulders. Status: definitief<span style="display: block;">Auteur: Huisarts 1</span>
                     </caption>
                     <tbody>
                        <tr>
                           <th>Type</th>
                           <td>
                              <span title="Summarization of encounter note Narrative (67781-5 - LOINC)">Summarization of encounter note Narrative</span>
                           </td>
                        </tr>
                        <tr>
                           <th>Gemaakt</th>
                           <td>15:41:54, 8 oktober 2019</td>
                        </tr>
                        <tr>
                           <th>Contact</th>
                           <td>Contactmoment: MedMijHG_contactmoment09 2.16.840.1.113883.2.4.3.111.19.1 (Id: MedMijHG_contactmoment09 (urn:oid:2.16.840.1.113883.2.4.3.111.19.1))</td>
                        </tr>
                        <tr>
                           <th>Gebeurtenis</th>
                           <td>Episode: MedMijHG_concern_S74.01 2.16.840.1.113883.2.4.3.111.19.1 (Id: MedMijHG_concern_S74.01 (urn:oid:2.16.840.1.113883.2.4.3.111.19.1))</td>
                        </tr>
                     </tbody>
                  </table>
               </div>
            </text>
            <status value="final"/>
            <type>
               <coding>
                  <system value="http://loinc.org"/>
                  <code value="67781-5"/>
                  <display value="Summarization of encounter note Narrative"/>
               </coding>
            </type>
            <subject>
               <reference value="urn:uuid:bc32b4a6-54b4-11eb-4949-020000000000"/>
               <display value="H. XXX_Mulders"/>
            </subject>
            <encounter>
               <identifier>
                  <system value="urn:oid:2.16.840.1.113883.2.4.3.111.19.1"/>
                  <value value="MedMijHG_contactmoment09"/>
               </identifier>
               <display value="Contactmoment: MedMijHG_contactmoment09 2.16.840.1.113883.2.4.3.111.19.1"/>
            </encounter>
            <date value="2019-10-08T15:41:54+02:00"/>
            <author>
               <reference value="urn:oid:2.16.528.1.1007.3.1.900016431"/>
               <display value="Huisarts 1"/>
            </author>
            <title value="Tinea Pedis"/>
            <event>
               <detail>
                  <identifier>
                     <system value="urn:oid:2.16.840.1.113883.2.4.3.111.19.1"/>
                     <value value="MedMijHG_concern_S74.01"/>
                  </identifier>
                  <display value="Episode: MedMijHG_concern_S74.01 2.16.840.1.113883.2.4.3.111.19.1"/>
               </detail>
            </event>
            <section>
               <extension url="http://nictiz.nl/fhir/StructureDefinition/code-icpc-1-nl">
                  <valueCodeableConcept>
                     <coding>
                        <system value="http://hl7.org/fhir/sid/icpc-1-nl"/>
                        <code value="S74.01"/>
                        <display value="Tinea Pedis"/>
                     </coding>
                  </valueCodeableConcept>
               </extension>
               <code>
                  <coding>
                     <system value="http://fhir.nl/fhir/NamingSystem/journaalregeltypen"/>
                     <code value="E"/>
                     <display value="Evaluatie"/>
                  </coding>
               </code>
               <text>
                  <status value="generated"/>
                  <div xmlns="http://www.w3.org/1999/xhtml">Mycose</div>
               </text>
               <entry>
                  <reference value="urn:uuid:bc32b4c7-54b4-11eb-4949-020000000000"/>
                  <display value="E: Evaluatie - Mycose"/>
               </entry>
               <entry>
                  <identifier>
                     <system value="urn:oid:2.16.840.1.113883.2.4.3.111.19.1"/>
                     <value value="MedMijHG_concern_S74.01"/>
                  </identifier>
                  <display value="Episode: MedMijHG_concern_S74.01 2.16.840.1.113883.2.4.3.111.19.1"/>
               </entry>
            </section>
            <section>
               <code>
                  <coding>
                     <system value="http://fhir.nl/fhir/NamingSystem/journaalregeltypen"/>
                     <code value="P"/>
                     <display value="Plan"/>
                  </coding>
               </code>
               <text>
                  <status value="generated"/>
                  <div xmlns="http://www.w3.org/1999/xhtml">Heeft nog canesten via drogist; 2x daags gebruiken.</div>
               </text>
               <entry>
                  <reference value="urn:uuid:bc32b4d1-54b4-11eb-4949-020000000000"/>
                  <display value="P: Plan - Heeft nog canesten via drogist; 2x daags gebruiken."/>
               </entry>
               <entry>
                  <identifier>
                     <system value="urn:oid:2.16.840.1.113883.2.4.3.111.19.1"/>
                     <value value="MedMijHG_concern_S74.01"/>
                  </identifier>
                  <display value="Episode: MedMijHG_concern_S74.01 2.16.840.1.113883.2.4.3.111.19.1"/>
               </entry>
            </section>
         </Composition>
      </resource>
      <search>
         <mode value="match"/>
      </search>
   </entry>
   <entry>
      <fullUrl value="urn:uuid:bc32b4d6-54b4-11eb-4949-020000000000"/>
      <resource>
         <Composition>
            <meta>
               <profile value="http://nictiz.nl/fhir/StructureDefinition/gp-EncounterReport"/>
            </meta>
            <text>
               <status value="extensions"/>
               <div xmlns="http://www.w3.org/1999/xhtml">
                  <b>HNP (thoracaal/lumbaal)</b>
                  <table>
                     <caption>Samengestelde informatie. Subject: H. XXX_Mulders. Status: definitief<span style="display: block;">Auteur: Huisarts 1</span>
                     </caption>
                     <tbody>
                        <tr>
                           <th>Type</th>
                           <td>
                              <span title="Summarization of encounter note Narrative (67781-5 - LOINC)">Summarization of encounter note Narrative</span>
                           </td>
                        </tr>
                        <tr>
                           <th>Gemaakt</th>
                           <td>14:41:54, 31 januari 2020</td>
                        </tr>
                        <tr>
                           <th>Contact</th>
                           <td>Contactmoment: MedMijHG_contactmoment16 2.16.840.1.113883.2.4.3.111.19.1 (Id: MedMijHG_contactmoment16 (urn:oid:2.16.840.1.113883.2.4.3.111.19.1))</td>
                        </tr>
                        <tr>
                           <th>Gebeurtenis</th>
                           <td>Episode: MedMijHG_concern_L86.01 2.16.840.1.113883.2.4.3.111.19.1 (Id: MedMijHG_concern_L86.01 (urn:oid:2.16.840.1.113883.2.4.3.111.19.1))</td>
                        </tr>
                     </tbody>
                  </table>
               </div>
            </text>
            <status value="final"/>
            <type>
               <coding>
                  <system value="http://loinc.org"/>
                  <code value="67781-5"/>
                  <display value="Summarization of encounter note Narrative"/>
               </coding>
            </type>
            <subject>
               <reference value="urn:uuid:bc32b4a6-54b4-11eb-4949-020000000000"/>
               <display value="H. XXX_Mulders"/>
            </subject>
            <encounter>
               <identifier>
                  <system value="urn:oid:2.16.840.1.113883.2.4.3.111.19.1"/>
                  <value value="MedMijHG_contactmoment16"/>
               </identifier>
               <display value="Contactmoment: MedMijHG_contactmoment16 2.16.840.1.113883.2.4.3.111.19.1"/>
            </encounter>
            <date value="2020-01-31T14:41:54+01:00"/>
            <author>
               <reference value="urn:oid:2.16.528.1.1007.3.1.900016431"/>
               <display value="Huisarts 1"/>
            </author>
            <title value="HNP (thoracaal/lumbaal)"/>
            <event>
               <detail>
                  <identifier>
                     <system value="urn:oid:2.16.840.1.113883.2.4.3.111.19.1"/>
                     <value value="MedMijHG_concern_L86.01"/>
                  </identifier>
                  <display value="Episode: MedMijHG_concern_L86.01 2.16.840.1.113883.2.4.3.111.19.1"/>
               </detail>
            </event>
            <section>
               <extension url="http://nictiz.nl/fhir/StructureDefinition/code-icpc-1-nl">
                  <valueCodeableConcept>
                     <coding>
                        <system value="http://hl7.org/fhir/sid/icpc-1-nl"/>
                        <code value="L86.01"/>
                        <display value="HNP (thoracaal/lumbaal)"/>
                     </coding>
                  </valueCodeableConcept>
               </extension>
               <code>
                  <coding>
                     <system value="http://fhir.nl/fhir/NamingSystem/journaalregeltypen"/>
                     <code value="E"/>
                     <display value="Evaluatie"/>
                  </coding>
               </code>
               <text>
                  <status value="generated"/>
                  <div xmlns="http://www.w3.org/1999/xhtml">HNP</div>
               </text>
               <entry>
                  <reference value="urn:uuid:bc32b4e6-54b4-11eb-4949-020000000000"/>
                  <display value="E: Evaluatie - HNP"/>
               </entry>
               <entry>
                  <identifier>
                     <system value="urn:oid:2.16.840.1.113883.2.4.3.111.19.1"/>
                     <value value="MedMijHG_concern_L86.01"/>
                  </identifier>
                  <display value="Episode: MedMijHG_concern_L86.01 2.16.840.1.113883.2.4.3.111.19.1"/>
               </entry>
            </section>
            <section>
               <code>
                  <coding>
                     <system value="http://fhir.nl/fhir/NamingSystem/journaalregeltypen"/>
                     <code value="P"/>
                     <display value="Plan"/>
                  </coding>
               </code>
               <text>
                  <status value="generated"/>
                  <div xmlns="http://www.w3.org/1999/xhtml">Patiënt geïnformeerd, ziet het nog even aan.</div>
               </text>
               <entry>
                  <reference value="urn:uuid:bc32b4f0-54b4-11eb-4949-020000000000"/>
                  <display value="P: Plan - Patiënt geïnformeerd, ziet het nog even aan."/>
               </entry>
               <entry>
                  <identifier>
                     <system value="urn:oid:2.16.840.1.113883.2.4.3.111.19.1"/>
                     <value value="MedMijHG_concern_L86.01"/>
                  </identifier>
                  <display value="Episode: MedMijHG_concern_L86.01 2.16.840.1.113883.2.4.3.111.19.1"/>
               </entry>
            </section>
         </Composition>
      </resource>
      <search>
         <mode value="match"/>
      </search>
   </entry>
   <entry>
      <fullUrl value="urn:uuid:bc32b4f5-54b4-11eb-4949-020000000000"/>
      <resource>
         <Composition>
            <meta>
               <profile value="http://nictiz.nl/fhir/StructureDefinition/gp-EncounterReport"/>
            </meta>
            <text>
               <status value="extensions"/>
               <div xmlns="http://www.w3.org/1999/xhtml">
                  <b>Keelpijn</b>
                  <table>
                     <caption>Samengestelde informatie. Subject: H. XXX_Mulders. Status: definitief<span style="display: block;">Auteur: Huisarts 1</span>
                     </caption>
                     <tbody>
                        <tr>
                           <th>Type</th>
                           <td>
                              <span title="Summarization of encounter note Narrative (67781-5 - LOINC)">Summarization of encounter note Narrative</span>
                           </td>
                        </tr>
                        <tr>
                           <th>Gemaakt</th>
                           <td>14:41:54, 16 maart 2020</td>
                        </tr>
                        <tr>
                           <th>Contact</th>
                           <td>Contactmoment: MedMijHG_contactmoment13 2.16.840.1.113883.2.4.3.111.19.1 (Id: MedMijHG_contactmoment13 (urn:oid:2.16.840.1.113883.2.4.3.111.19.1))</td>
                        </tr>
                        <tr>
                           <th>Gebeurtenis</th>
                           <td>Episode: MedMijHG_concern_R21.01 2.16.840.1.113883.2.4.3.111.19.1 (Id: MedMijHG_concern_R21.01 (urn:oid:2.16.840.1.113883.2.4.3.111.19.1))</td>
                        </tr>
                     </tbody>
                  </table>
               </div>
            </text>
            <status value="final"/>
            <type>
               <coding>
                  <system value="http://loinc.org"/>
                  <code value="67781-5"/>
                  <display value="Summarization of encounter note Narrative"/>
               </coding>
            </type>
            <subject>
               <reference value="urn:uuid:bc32b4a6-54b4-11eb-4949-020000000000"/>
               <display value="H. XXX_Mulders"/>
            </subject>
            <encounter>
               <identifier>
                  <system value="urn:oid:2.16.840.1.113883.2.4.3.111.19.1"/>
                  <value value="MedMijHG_contactmoment13"/>
               </identifier>
               <display value="Contactmoment: MedMijHG_contactmoment13 2.16.840.1.113883.2.4.3.111.19.1"/>
            </encounter>
            <date value="2020-03-16T14:41:54+01:00"/>
            <author>
               <reference value="urn:oid:2.16.528.1.1007.3.1.900016431"/>
               <display value="Huisarts 1"/>
            </author>
            <title value="Keelpijn"/>
            <event>
               <detail>
                  <identifier>
                     <system value="urn:oid:2.16.840.1.113883.2.4.3.111.19.1"/>
                     <value value="MedMijHG_concern_R21.01"/>
                  </identifier>
                  <display value="Episode: MedMijHG_concern_R21.01 2.16.840.1.113883.2.4.3.111.19.1"/>
               </detail>
            </event>
            <section>
               <extension url="http://nictiz.nl/fhir/StructureDefinition/code-icpc-1-nl">
                  <valueCodeableConcept>
                     <coding>
                        <system value="http://hl7.org/fhir/sid/icpc-1-nl"/>
                        <code value="R21.01"/>
                        <display value="Keelpijn"/>
                     </coding>
                  </valueCodeableConcept>
               </extension>
               <code>
                  <coding>
                     <system value="http://fhir.nl/fhir/NamingSystem/journaalregeltypen"/>
                     <code value="E"/>
                     <display value="Evaluatie"/>
                  </coding>
               </code>
               <text>
                  <status value="generated"/>
                  <div xmlns="http://www.w3.org/1999/xhtml">Keelpijn eci.</div>
               </text>
               <entry>
                  <reference value="urn:uuid:bc329ccd-54b4-11eb-4949-020000000000"/>
                  <display value="E: Evaluatie - Keelpijn eci."/>
               </entry>
               <entry>
                  <identifier>
                     <system value="urn:oid:2.16.840.1.113883.2.4.3.111.19.1"/>
                     <value value="MedMijHG_concern_R21.01"/>
                  </identifier>
                  <display value="Episode: MedMijHG_concern_R21.01 2.16.840.1.113883.2.4.3.111.19.1"/>
               </entry>
            </section>
         </Composition>
      </resource>
      <search>
         <mode value="match"/>
      </search>
   </entry>
   <entry>
      <fullUrl value="urn:uuid:bc329cda-54b4-11eb-4949-020000000000"/>
      <resource>
         <Composition>
            <meta>
               <profile value="http://nictiz.nl/fhir/StructureDefinition/gp-EncounterReport"/>
            </meta>
            <text>
               <status value="extensions"/>
               <div xmlns="http://www.w3.org/1999/xhtml">
                  <b>HNP (thoracaal/lumbaal)</b>
                  <table>
                     <caption>Samengestelde informatie. Subject: H. XXX_Mulders. Status: definitief<span style="display: block;">Auteur: Huisarts 1</span>
                     </caption>
                     <tbody>
                        <tr>
                           <th>Type</th>
                           <td>
                              <span title="Summarization of encounter note Narrative (67781-5 - LOINC)">Summarization of encounter note Narrative</span>
                           </td>
                        </tr>
                        <tr>
                           <th>Gemaakt</th>
                           <td>14:41:54, 11 maart 2020</td>
                        </tr>
                        <tr>
                           <th>Contact</th>
                           <td>Contactmoment: MedMijHG_contactmoment17 2.16.840.1.113883.2.4.3.111.19.1 (Id: MedMijHG_contactmoment17 (urn:oid:2.16.840.1.113883.2.4.3.111.19.1))</td>
                        </tr>
                        <tr>
                           <th>Gebeurtenis</th>
                           <td>Episode: MedMijHG_concern_L86.01 2.16.840.1.113883.2.4.3.111.19.1 (Id: MedMijHG_concern_L86.01 (urn:oid:2.16.840.1.113883.2.4.3.111.19.1))</td>
                        </tr>
                     </tbody>
                  </table>
               </div>
            </text>
            <status value="final"/>
            <type>
               <coding>
                  <system value="http://loinc.org"/>
                  <code value="67781-5"/>
                  <display value="Summarization of encounter note Narrative"/>
               </coding>
            </type>
            <subject>
               <reference value="urn:uuid:bc32b4a6-54b4-11eb-4949-020000000000"/>
               <display value="H. XXX_Mulders"/>
            </subject>
            <encounter>
               <identifier>
                  <system value="urn:oid:2.16.840.1.113883.2.4.3.111.19.1"/>
                  <value value="MedMijHG_contactmoment17"/>
               </identifier>
               <display value="Contactmoment: MedMijHG_contactmoment17 2.16.840.1.113883.2.4.3.111.19.1"/>
            </encounter>
            <date value="2020-03-11T14:41:54+01:00"/>
            <author>
               <reference value="urn:oid:2.16.528.1.1007.3.1.900016431"/>
               <display value="Huisarts 1"/>
            </author>
            <title value="HNP (thoracaal/lumbaal)"/>
            <event>
               <detail>
                  <identifier>
                     <system value="urn:oid:2.16.840.1.113883.2.4.3.111.19.1"/>
                     <value value="MedMijHG_concern_L86.01"/>
                  </identifier>
                  <display value="Episode: MedMijHG_concern_L86.01 2.16.840.1.113883.2.4.3.111.19.1"/>
               </detail>
            </event>
            <section>
               <extension url="http://nictiz.nl/fhir/StructureDefinition/code-icpc-1-nl">
                  <valueCodeableConcept>
                     <coding>
                        <system value="http://hl7.org/fhir/sid/icpc-1-nl"/>
                        <code value="L86.01"/>
                        <display value="HNP (thoracaal/lumbaal)"/>
                     </coding>
                  </valueCodeableConcept>
               </extension>
               <code>
                  <coding>
                     <system value="http://fhir.nl/fhir/NamingSystem/journaalregeltypen"/>
                     <code value="E"/>
                     <display value="Evaluatie"/>
                  </coding>
               </code>
               <text>
                  <status value="generated"/>
                  <div xmlns="http://www.w3.org/1999/xhtml">HNP</div>
               </text>
               <entry>
                  <reference value="urn:uuid:bc329cea-54b4-11eb-4949-020000000000"/>
                  <display value="E: Evaluatie - HNP"/>
               </entry>
               <entry>
                  <identifier>
                     <system value="urn:oid:2.16.840.1.113883.2.4.3.111.19.1"/>
                     <value value="MedMijHG_concern_L86.01"/>
                  </identifier>
                  <display value="Episode: MedMijHG_concern_L86.01 2.16.840.1.113883.2.4.3.111.19.1"/>
               </entry>
            </section>
            <section>
               <code>
                  <coding>
                     <system value="http://fhir.nl/fhir/NamingSystem/journaalregeltypen"/>
                     <code value="P"/>
                     <display value="Plan"/>
                  </coding>
               </code>
               <text>
                  <status value="generated"/>
                  <div xmlns="http://www.w3.org/1999/xhtml">Nogmaals verwijzing Cesar</div>
               </text>
               <entry>
                  <reference value="urn:uuid:bc329cf4-54b4-11eb-4949-020000000000"/>
                  <display value="P: Plan - Nogmaals verwijzing Cesar"/>
               </entry>
               <entry>
                  <identifier>
                     <system value="urn:oid:2.16.840.1.113883.2.4.3.111.19.1"/>
                     <value value="MedMijHG_concern_L86.01"/>
                  </identifier>
                  <display value="Episode: MedMijHG_concern_L86.01 2.16.840.1.113883.2.4.3.111.19.1"/>
               </entry>
            </section>
         </Composition>
      </resource>
      <search>
         <mode value="match"/>
      </search>
   </entry>
   <entry>
      <fullUrl value="urn:uuid:bc329cf9-54b4-11eb-4949-020000000000"/>
      <resource>
         <Composition>
            <meta>
               <profile value="http://nictiz.nl/fhir/StructureDefinition/gp-EncounterReport"/>
            </meta>
            <text>
               <status value="extensions"/>
               <div xmlns="http://www.w3.org/1999/xhtml">
                  <b>Keelpijn</b>
                  <table>
                     <caption>Samengestelde informatie. Subject: H. XXX_Mulders. Status: definitief<span style="display: block;">Auteur: Huisarts 1</span>
                     </caption>
                     <tbody>
                        <tr>
                           <th>Type</th>
                           <td>
                              <span title="Summarization of encounter note Narrative (67781-5 - LOINC)">Summarization of encounter note Narrative</span>
                           </td>
                        </tr>
                        <tr>
                           <th>Gemaakt</th>
                           <td>14:41:54, 5 februari 2020</td>
                        </tr>
                        <tr>
                           <th>Contact</th>
                           <td>Contactmoment: MedMijHG_contactmoment12 2.16.840.1.113883.2.4.3.111.19.1 (Id: MedMijHG_contactmoment12 (urn:oid:2.16.840.1.113883.2.4.3.111.19.1))</td>
                        </tr>
                        <tr>
                           <th>Gebeurtenis</th>
                           <td>Episode: MedMijHG_concern_R21.01 2.16.840.1.113883.2.4.3.111.19.1 (Id: MedMijHG_concern_R21.01 (urn:oid:2.16.840.1.113883.2.4.3.111.19.1))</td>
                        </tr>
                     </tbody>
                  </table>
               </div>
            </text>
            <status value="final"/>
            <type>
               <coding>
                  <system value="http://loinc.org"/>
                  <code value="67781-5"/>
                  <display value="Summarization of encounter note Narrative"/>
               </coding>
            </type>
            <subject>
               <reference value="urn:uuid:bc32b4a6-54b4-11eb-4949-020000000000"/>
               <display value="H. XXX_Mulders"/>
            </subject>
            <encounter>
               <identifier>
                  <system value="urn:oid:2.16.840.1.113883.2.4.3.111.19.1"/>
                  <value value="MedMijHG_contactmoment12"/>
               </identifier>
               <display value="Contactmoment: MedMijHG_contactmoment12 2.16.840.1.113883.2.4.3.111.19.1"/>
            </encounter>
            <date value="2020-02-05T14:41:54+01:00"/>
            <author>
               <reference value="urn:oid:2.16.528.1.1007.3.1.900016431"/>
               <display value="Huisarts 1"/>
            </author>
            <title value="Keelpijn"/>
            <event>
               <detail>
                  <identifier>
                     <system value="urn:oid:2.16.840.1.113883.2.4.3.111.19.1"/>
                     <value value="MedMijHG_concern_R21.01"/>
                  </identifier>
                  <display value="Episode: MedMijHG_concern_R21.01 2.16.840.1.113883.2.4.3.111.19.1"/>
               </detail>
            </event>
            <section>
               <extension url="http://nictiz.nl/fhir/StructureDefinition/code-icpc-1-nl">
                  <valueCodeableConcept>
                     <coding>
                        <system value="http://hl7.org/fhir/sid/icpc-1-nl"/>
                        <code value="R21.01"/>
                        <display value="Keelpijn"/>
                     </coding>
                  </valueCodeableConcept>
               </extension>
               <code>
                  <coding>
                     <system value="http://fhir.nl/fhir/NamingSystem/journaalregeltypen"/>
                     <code value="E"/>
                     <display value="Evaluatie"/>
                  </coding>
               </code>
               <text>
                  <status value="generated"/>
                  <div xmlns="http://www.w3.org/1999/xhtml">Keelpijn eci.</div>
               </text>
               <entry>
                  <reference value="urn:uuid:bc329d09-54b4-11eb-4949-020000000000"/>
                  <display value="E: Evaluatie - Keelpijn eci."/>
               </entry>
               <entry>
                  <identifier>
                     <system value="urn:oid:2.16.840.1.113883.2.4.3.111.19.1"/>
                     <value value="MedMijHG_concern_R21.01"/>
                  </identifier>
                  <display value="Episode: MedMijHG_concern_R21.01 2.16.840.1.113883.2.4.3.111.19.1"/>
               </entry>
            </section>
            <section>
               <code>
                  <coding>
                     <system value="http://fhir.nl/fhir/NamingSystem/journaalregeltypen"/>
                     <code value="P"/>
                     <display value="Plan"/>
                  </coding>
               </code>
               <text>
                  <status value="generated"/>
                  <div xmlns="http://www.w3.org/1999/xhtml">Bezoek brengen aan de tandarts, wellicht zit er daar iets.</div>
               </text>
               <entry>
                  <reference value="urn:uuid:bc329d13-54b4-11eb-4949-020000000000"/>
                  <display value="P: Plan - Bezoek brengen aan de tandarts, wellicht zit er daar iets."/>
               </entry>
               <entry>
                  <identifier>
                     <system value="urn:oid:2.16.840.1.113883.2.4.3.111.19.1"/>
                     <value value="MedMijHG_concern_R21.01"/>
                  </identifier>
                  <display value="Episode: MedMijHG_concern_R21.01 2.16.840.1.113883.2.4.3.111.19.1"/>
               </entry>
            </section>
         </Composition>
      </resource>
      <search>
         <mode value="match"/>
      </search>
   </entry>
   <entry>
      <fullUrl value="urn:uuid:bc329d18-54b4-11eb-4949-020000000000"/>
      <resource>
         <Composition>
            <meta>
               <profile value="http://nictiz.nl/fhir/StructureDefinition/gp-EncounterReport"/>
            </meta>
            <text>
               <status value="extensions"/>
               <div xmlns="http://www.w3.org/1999/xhtml">
                  <b>HNP (thoracaal/lumbaal)</b>
                  <table>
                     <caption>Samengestelde informatie. Subject: H. XXX_Mulders. Status: definitief<span style="display: block;">Auteur: Huisarts 1</span>
                     </caption>
                     <tbody>
                        <tr>
                           <th>Type</th>
                           <td>
                              <span title="Summarization of encounter note Narrative (67781-5 - LOINC)">Summarization of encounter note Narrative</span>
                           </td>
                        </tr>
                        <tr>
                           <th>Gemaakt</th>
                           <td>14:41:54, 26 januari 2020</td>
                        </tr>
                        <tr>
                           <th>Contact</th>
                           <td>Contactmoment: MedMijHG_contactmoment15 2.16.840.1.113883.2.4.3.111.19.1 (Id: MedMijHG_contactmoment15 (urn:oid:2.16.840.1.113883.2.4.3.111.19.1))</td>
                        </tr>
                        <tr>
                           <th>Gebeurtenis</th>
                           <td>Episode: MedMijHG_concern_L86.01 2.16.840.1.113883.2.4.3.111.19.1 (Id: MedMijHG_concern_L86.01 (urn:oid:2.16.840.1.113883.2.4.3.111.19.1))</td>
                        </tr>
                     </tbody>
                  </table>
               </div>
            </text>
            <status value="final"/>
            <type>
               <coding>
                  <system value="http://loinc.org"/>
                  <code value="67781-5"/>
                  <display value="Summarization of encounter note Narrative"/>
               </coding>
            </type>
            <subject>
               <reference value="urn:uuid:bc32b4a6-54b4-11eb-4949-020000000000"/>
               <display value="H. XXX_Mulders"/>
            </subject>
            <encounter>
               <identifier>
                  <system value="urn:oid:2.16.840.1.113883.2.4.3.111.19.1"/>
                  <value value="MedMijHG_contactmoment15"/>
               </identifier>
               <display value="Contactmoment: MedMijHG_contactmoment15 2.16.840.1.113883.2.4.3.111.19.1"/>
            </encounter>
            <date value="2020-01-26T14:41:54+01:00"/>
            <author>
               <reference value="urn:oid:2.16.528.1.1007.3.1.900016431"/>
               <display value="Huisarts 1"/>
            </author>
            <title value="HNP (thoracaal/lumbaal)"/>
            <event>
               <detail>
                  <identifier>
                     <system value="urn:oid:2.16.840.1.113883.2.4.3.111.19.1"/>
                     <value value="MedMijHG_concern_L86.01"/>
                  </identifier>
                  <display value="Episode: MedMijHG_concern_L86.01 2.16.840.1.113883.2.4.3.111.19.1"/>
               </detail>
            </event>
            <section>
               <extension url="http://nictiz.nl/fhir/StructureDefinition/code-icpc-1-nl">
                  <valueCodeableConcept>
                     <coding>
                        <system value="http://hl7.org/fhir/sid/icpc-1-nl"/>
                        <code value="L86.01"/>
                        <display value="HNP (thoracaal/lumbaal)"/>
                     </coding>
                  </valueCodeableConcept>
               </extension>
               <code>
                  <coding>
                     <system value="http://fhir.nl/fhir/NamingSystem/journaalregeltypen"/>
                     <code value="E"/>
                     <display value="Evaluatie"/>
                  </coding>
               </code>
               <text>
                  <status value="generated"/>
                  <div xmlns="http://www.w3.org/1999/xhtml">HNP</div>
               </text>
               <entry>
                  <reference value="urn:uuid:bc329d28-54b4-11eb-4949-020000000000"/>
                  <display value="E: Evaluatie - HNP"/>
               </entry>
               <entry>
                  <identifier>
                     <system value="urn:oid:2.16.840.1.113883.2.4.3.111.19.1"/>
                     <value value="MedMijHG_concern_L86.01"/>
                  </identifier>
                  <display value="Episode: MedMijHG_concern_L86.01 2.16.840.1.113883.2.4.3.111.19.1"/>
               </entry>
            </section>
            <section>
               <code>
                  <coding>
                     <system value="http://fhir.nl/fhir/NamingSystem/journaalregeltypen"/>
                     <code value="P"/>
                     <display value="Plan"/>
                  </coding>
               </code>
               <text>
                  <status value="generated"/>
                  <div xmlns="http://www.w3.org/1999/xhtml">Scan laten maken, afspraak gepland.</div>
               </text>
               <entry>
                  <reference value="urn:uuid:bc329d32-54b4-11eb-4949-020000000000"/>
                  <display value="P: Plan - Scan laten maken, afspraak gepland."/>
               </entry>
               <entry>
                  <identifier>
                     <system value="urn:oid:2.16.840.1.113883.2.4.3.111.19.1"/>
                     <value value="MedMijHG_concern_L86.01"/>
                  </identifier>
                  <display value="Episode: MedMijHG_concern_L86.01 2.16.840.1.113883.2.4.3.111.19.1"/>
               </entry>
            </section>
         </Composition>
      </resource>
      <search>
         <mode value="match"/>
      </search>
   </entry>
   <entry>
      <fullUrl value="urn:uuid:bc329d37-54b4-11eb-4949-020000000000"/>
      <resource>
         <Composition>
            <meta>
               <profile value="http://nictiz.nl/fhir/StructureDefinition/gp-EncounterReport"/>
            </meta>
            <text>
               <status value="extensions"/>
               <div xmlns="http://www.w3.org/1999/xhtml">
                  <b>lage rugpijn</b>
                  <table>
                     <caption>Samengestelde informatie. Subject: H. XXX_Mulders. Status: definitief<span style="display: block;">Auteur: Huisarts 1</span>
                     </caption>
                     <tbody>
                        <tr>
                           <th>Type</th>
                           <td>
                              <span title="Summarization of encounter note Narrative (67781-5 - LOINC)">Summarization of encounter note Narrative</span>
                           </td>
                        </tr>
                        <tr>
                           <th>Gemaakt</th>
                           <td>14:41:54, 6 januari 2020</td>
                        </tr>
                        <tr>
                           <th>Contact</th>
                           <td>Contactmoment: MedMijHG_contactmoment14 2.16.840.1.113883.2.4.3.111.19.1 (Id: MedMijHG_contactmoment14 (urn:oid:2.16.840.1.113883.2.4.3.111.19.1))</td>
                        </tr>
                        <tr>
                           <th>Gebeurtenis</th>
                           <td>Episode: MedMijHG_concern_L86.01 2.16.840.1.113883.2.4.3.111.19.1 (Id: MedMijHG_concern_L86.01 (urn:oid:2.16.840.1.113883.2.4.3.111.19.1))</td>
                        </tr>
                     </tbody>
                  </table>
               </div>
            </text>
            <status value="final"/>
            <type>
               <coding>
                  <system value="http://loinc.org"/>
                  <code value="67781-5"/>
                  <display value="Summarization of encounter note Narrative"/>
               </coding>
            </type>
            <subject>
               <reference value="urn:uuid:bc32b4a6-54b4-11eb-4949-020000000000"/>
               <display value="H. XXX_Mulders"/>
            </subject>
            <encounter>
               <identifier>
                  <system value="urn:oid:2.16.840.1.113883.2.4.3.111.19.1"/>
                  <value value="MedMijHG_contactmoment14"/>
               </identifier>
               <display value="Contactmoment: MedMijHG_contactmoment14 2.16.840.1.113883.2.4.3.111.19.1"/>
            </encounter>
            <date value="2020-01-06T14:41:54+01:00"/>
            <author>
               <reference value="urn:oid:2.16.528.1.1007.3.1.900016431"/>
               <display value="Huisarts 1"/>
            </author>
            <title value="lage rugpijn"/>
            <event>
               <detail>
                  <identifier>
                     <system value="urn:oid:2.16.840.1.113883.2.4.3.111.19.1"/>
                     <value value="MedMijHG_concern_L86.01"/>
                  </identifier>
                  <display value="Episode: MedMijHG_concern_L86.01 2.16.840.1.113883.2.4.3.111.19.1"/>
               </detail>
            </event>
            <section>
               <extension url="http://nictiz.nl/fhir/StructureDefinition/code-icpc-1-nl">
                  <valueCodeableConcept>
                     <coding>
                        <system value="http://hl7.org/fhir/sid/icpc-1-nl"/>
                        <code value="L03"/>
                        <display value="lage rugpijn"/>
                     </coding>
                  </valueCodeableConcept>
               </extension>
               <code>
                  <coding>
                     <system value="http://fhir.nl/fhir/NamingSystem/journaalregeltypen"/>
                     <code value="E"/>
                     <display value="Evaluatie"/>
                  </coding>
               </code>
               <text>
                  <status value="generated"/>
                  <div xmlns="http://www.w3.org/1999/xhtml">Lage rugpijn</div>
               </text>
               <entry>
                  <reference value="urn:uuid:bc329d47-54b4-11eb-4949-020000000000"/>
                  <display value="E: Evaluatie - Lage rugpijn"/>
               </entry>
               <entry>
                  <identifier>
                     <system value="urn:oid:2.16.840.1.113883.2.4.3.111.19.1"/>
                     <value value="MedMijHG_concern_L86.01"/>
                  </identifier>
                  <display value="Episode: MedMijHG_concern_L86.01 2.16.840.1.113883.2.4.3.111.19.1"/>
               </entry>
            </section>
            <section>
               <code>
                  <coding>
                     <system value="http://fhir.nl/fhir/NamingSystem/journaalregeltypen"/>
                     <code value="P"/>
                     <display value="Plan"/>
                  </coding>
               </code>
               <text>
                  <status value="generated"/>
                  <div xmlns="http://www.w3.org/1999/xhtml">Cesar of Mensendieck. Verwijzing aangemaakt</div>
               </text>
               <entry>
                  <reference value="urn:uuid:bc329d51-54b4-11eb-4949-020000000000"/>
                  <display value="P: Plan - Cesar of Mensendieck. Verwijzing aangemaakt"/>
               </entry>
               <entry>
                  <identifier>
                     <system value="urn:oid:2.16.840.1.113883.2.4.3.111.19.1"/>
                     <value value="MedMijHG_concern_L86.01"/>
                  </identifier>
                  <display value="Episode: MedMijHG_concern_L86.01 2.16.840.1.113883.2.4.3.111.19.1"/>
               </entry>
            </section>
         </Composition>
      </resource>
      <search>
         <mode value="match"/>
      </search>
   </entry>
   <entry>
      <fullUrl value="urn:uuid:bc329d56-54b4-11eb-4949-020000000000"/>
      <resource>
         <Composition>
            <meta>
               <profile value="http://nictiz.nl/fhir/StructureDefinition/gp-EncounterReport"/>
            </meta>
            <text>
               <status value="extensions"/>
               <div xmlns="http://www.w3.org/1999/xhtml">
                  <b>Maagpijn</b>
                  <table>
                     <caption>Samengestelde informatie. Subject: H. XXX_Mulders. Status: definitief<span style="display: block;">Auteur: Huisarts 1</span>
                     </caption>
                     <tbody>
                        <tr>
                           <th>Type</th>
                           <td>
                              <span title="Summarization of encounter note Narrative (67781-5 - LOINC)">Summarization of encounter note Narrative</span>
                           </td>
                        </tr>
                        <tr>
                           <th>Gemaakt</th>
                           <td>14:41:54, 22 december 2019</td>
                        </tr>
                        <tr>
                           <th>Contact</th>
                           <td>Contactmoment: MedMijHG_contactmoment07 2.16.840.1.113883.2.4.3.111.19.1 (Id: MedMijHG_contactmoment07 (urn:oid:2.16.840.1.113883.2.4.3.111.19.1))</td>
                        </tr>
                        <tr>
                           <th>Gebeurtenis</th>
                           <td>Episode: MedMijHG_concern_D02 2.16.840.1.113883.2.4.3.111.19.1 (Id: MedMijHG_concern_D02 (urn:oid:2.16.840.1.113883.2.4.3.111.19.1))</td>
                        </tr>
                     </tbody>
                  </table>
               </div>
            </text>
            <status value="final"/>
            <type>
               <coding>
                  <system value="http://loinc.org"/>
                  <code value="67781-5"/>
                  <display value="Summarization of encounter note Narrative"/>
               </coding>
            </type>
            <subject>
               <reference value="urn:uuid:bc32b4a6-54b4-11eb-4949-020000000000"/>
               <display value="H. XXX_Mulders"/>
            </subject>
            <encounter>
               <identifier>
                  <system value="urn:oid:2.16.840.1.113883.2.4.3.111.19.1"/>
                  <value value="MedMijHG_contactmoment07"/>
               </identifier>
               <display value="Contactmoment: MedMijHG_contactmoment07 2.16.840.1.113883.2.4.3.111.19.1"/>
            </encounter>
            <date value="2019-12-22T14:41:54+01:00"/>
            <author>
               <reference value="urn:oid:2.16.528.1.1007.3.1.900016431"/>
               <display value="Huisarts 1"/>
            </author>
            <title value="Maagpijn"/>
            <event>
               <detail>
                  <identifier>
                     <system value="urn:oid:2.16.840.1.113883.2.4.3.111.19.1"/>
                     <value value="MedMijHG_concern_D02"/>
                  </identifier>
                  <display value="Episode: MedMijHG_concern_D02 2.16.840.1.113883.2.4.3.111.19.1"/>
               </detail>
            </event>
            <section>
               <extension url="http://nictiz.nl/fhir/StructureDefinition/code-icpc-1-nl">
                  <valueCodeableConcept>
                     <coding>
                        <system value="http://hl7.org/fhir/sid/icpc-1-nl"/>
                        <code value="D02"/>
                        <display value="Maagpijn"/>
                     </coding>
                  </valueCodeableConcept>
               </extension>
               <code>
                  <coding>
                     <system value="http://fhir.nl/fhir/NamingSystem/journaalregeltypen"/>
                     <code value="E"/>
                     <display value="Evaluatie"/>
                  </coding>
               </code>
               <text>
                  <status value="generated"/>
                  <div xmlns="http://www.w3.org/1999/xhtml">Maag/duodenum problemen?</div>
               </text>
               <entry>
                  <reference value="urn:uuid:bc329d66-54b4-11eb-4949-020000000000"/>
                  <display value="E: Evaluatie - Maag/duodenum problemen?"/>
               </entry>
               <entry>
                  <identifier>
                     <system value="urn:oid:2.16.840.1.113883.2.4.3.111.19.1"/>
                     <value value="MedMijHG_concern_D02"/>
                  </identifier>
                  <display value="Episode: MedMijHG_concern_D02 2.16.840.1.113883.2.4.3.111.19.1"/>
               </entry>
            </section>
         </Composition>
      </resource>
      <search>
         <mode value="match"/>
      </search>
   </entry>
   <entry>
      <fullUrl value="urn:uuid:bc329d73-54b4-11eb-4949-020000000000"/>
      <resource>
         <Composition>
            <meta>
               <profile value="http://nictiz.nl/fhir/StructureDefinition/gp-EncounterReport"/>
            </meta>
            <text>
               <status value="extensions"/>
               <div xmlns="http://www.w3.org/1999/xhtml">
                  <b>Keelpijn</b>
                  <table>
                     <caption>Samengestelde informatie. Subject: H. XXX_Mulders. Status: definitief<span style="display: block;">Auteur: Huisarts 1</span>
                     </caption>
                     <tbody>
                        <tr>
                           <th>Type</th>
                           <td>
                              <span title="Summarization of encounter note Narrative (67781-5 - LOINC)">Summarization of encounter note Narrative</span>
                           </td>
                        </tr>
                        <tr>
                           <th>Gemaakt</th>
                           <td>14:41:54, 2 december 2019</td>
                        </tr>
                        <tr>
                           <th>Contact</th>
                           <td>Contactmoment: MedMijHG_contactmoment10 2.16.840.1.113883.2.4.3.111.19.1 (Id: MedMijHG_contactmoment10 (urn:oid:2.16.840.1.113883.2.4.3.111.19.1))</td>
                        </tr>
                        <tr>
                           <th>Gebeurtenis</th>
                           <td>Episode: MedMijHG_concern_R21.01 2.16.840.1.113883.2.4.3.111.19.1 (Id: MedMijHG_concern_R21.01 (urn:oid:2.16.840.1.113883.2.4.3.111.19.1))</td>
                        </tr>
                     </tbody>
                  </table>
               </div>
            </text>
            <status value="final"/>
            <type>
               <coding>
                  <system value="http://loinc.org"/>
                  <code value="67781-5"/>
                  <display value="Summarization of encounter note Narrative"/>
               </coding>
            </type>
            <subject>
               <reference value="urn:uuid:bc32b4a6-54b4-11eb-4949-020000000000"/>
               <display value="H. XXX_Mulders"/>
            </subject>
            <encounter>
               <identifier>
                  <system value="urn:oid:2.16.840.1.113883.2.4.3.111.19.1"/>
                  <value value="MedMijHG_contactmoment10"/>
               </identifier>
               <display value="Contactmoment: MedMijHG_contactmoment10 2.16.840.1.113883.2.4.3.111.19.1"/>
            </encounter>
            <date value="2019-12-02T14:41:54+01:00"/>
            <author>
               <reference value="urn:oid:2.16.528.1.1007.3.1.900016431"/>
               <display value="Huisarts 1"/>
            </author>
            <title value="Keelpijn"/>
            <event>
               <detail>
                  <identifier>
                     <system value="urn:oid:2.16.840.1.113883.2.4.3.111.19.1"/>
                     <value value="MedMijHG_concern_R21.01"/>
                  </identifier>
                  <display value="Episode: MedMijHG_concern_R21.01 2.16.840.1.113883.2.4.3.111.19.1"/>
               </detail>
            </event>
            <section>
               <extension url="http://nictiz.nl/fhir/StructureDefinition/code-icpc-1-nl">
                  <valueCodeableConcept>
                     <coding>
                        <system value="http://hl7.org/fhir/sid/icpc-1-nl"/>
                        <code value="R21.01"/>
                        <display value="Keelpijn"/>
                     </coding>
                  </valueCodeableConcept>
               </extension>
               <code>
                  <coding>
                     <system value="http://fhir.nl/fhir/NamingSystem/journaalregeltypen"/>
                     <code value="E"/>
                     <display value="Evaluatie"/>
                  </coding>
               </code>
               <text>
                  <status value="generated"/>
                  <div xmlns="http://www.w3.org/1999/xhtml">Keelpijn eci.</div>
               </text>
               <entry>
                  <reference value="urn:uuid:bc329d83-54b4-11eb-4949-020000000000"/>
                  <display value="E: Evaluatie - Keelpijn eci."/>
               </entry>
               <entry>
                  <identifier>
                     <system value="urn:oid:2.16.840.1.113883.2.4.3.111.19.1"/>
                     <value value="MedMijHG_concern_R21.01"/>
                  </identifier>
                  <display value="Episode: MedMijHG_concern_R21.01 2.16.840.1.113883.2.4.3.111.19.1"/>
               </entry>
            </section>
            <section>
               <code>
                  <coding>
                     <system value="http://fhir.nl/fhir/NamingSystem/journaalregeltypen"/>
                     <code value="P"/>
                     <display value="Plan"/>
                  </coding>
               </code>
               <text>
                  <status value="generated"/>
                  <div xmlns="http://www.w3.org/1999/xhtml">Afwachten, zn. Medicatie is nog beschikbaar</div>
               </text>
               <entry>
                  <reference value="urn:uuid:bc329d8d-54b4-11eb-4949-020000000000"/>
                  <display value="P: Plan - Afwachten, zn. Medicatie is nog beschikbaar"/>
               </entry>
               <entry>
                  <identifier>
                     <system value="urn:oid:2.16.840.1.113883.2.4.3.111.19.1"/>
                     <value value="MedMijHG_concern_R21.01"/>
                  </identifier>
                  <display value="Episode: MedMijHG_concern_R21.01 2.16.840.1.113883.2.4.3.111.19.1"/>
               </entry>
            </section>
         </Composition>
      </resource>
      <search>
         <mode value="match"/>
      </search>
   </entry>
   <entry>
      <fullUrl value="urn:uuid:bc329d92-54b4-11eb-4949-020000000000"/>
      <resource>
         <Composition>
            <meta>
               <profile value="http://nictiz.nl/fhir/StructureDefinition/gp-EncounterReport"/>
            </meta>
            <text>
               <status value="extensions"/>
               <div xmlns="http://www.w3.org/1999/xhtml">
                  <b>lage rugpijn</b>
                  <table>
                     <caption>Samengestelde informatie. Subject: H. XXX_Mulders. Status: definitief<span style="display: block;">Auteur: Huisarts 1</span>
                     </caption>
                     <tbody>
                        <tr>
                           <th>Type</th>
                           <td>
                              <span title="Summarization of encounter note Narrative (67781-5 - LOINC)">Summarization of encounter note Narrative</span>
                           </td>
                        </tr>
                        <tr>
                           <th>Gemaakt</th>
                           <td>14:41:54, 27 november 2019</td>
                        </tr>
                        <tr>
                           <th>Contact</th>
                           <td>Contactmoment: MedMijHG_contactmoment04 2.16.840.1.113883.2.4.3.111.19.1 (Id: MedMijHG_contactmoment04 (urn:oid:2.16.840.1.113883.2.4.3.111.19.1))</td>
                        </tr>
                        <tr>
                           <th>Gebeurtenis</th>
                           <td>Episode: MedMijHG_concern_L86.01 2.16.840.1.113883.2.4.3.111.19.1 (Id: MedMijHG_concern_L86.01 (urn:oid:2.16.840.1.113883.2.4.3.111.19.1))</td>
                        </tr>
                     </tbody>
                  </table>
               </div>
            </text>
            <status value="final"/>
            <type>
               <coding>
                  <system value="http://loinc.org"/>
                  <code value="67781-5"/>
                  <display value="Summarization of encounter note Narrative"/>
               </coding>
            </type>
            <subject>
               <reference value="urn:uuid:bc32b4a6-54b4-11eb-4949-020000000000"/>
               <display value="H. XXX_Mulders"/>
            </subject>
            <encounter>
               <identifier>
                  <system value="urn:oid:2.16.840.1.113883.2.4.3.111.19.1"/>
                  <value value="MedMijHG_contactmoment04"/>
               </identifier>
               <display value="Contactmoment: MedMijHG_contactmoment04 2.16.840.1.113883.2.4.3.111.19.1"/>
            </encounter>
            <date value="2019-11-27T14:41:54+01:00"/>
            <author>
               <reference value="urn:oid:2.16.528.1.1007.3.1.900016431"/>
               <display value="Huisarts 1"/>
            </author>
            <title value="lage rugpijn"/>
            <event>
               <detail>
                  <identifier>
                     <system value="urn:oid:2.16.840.1.113883.2.4.3.111.19.1"/>
                     <value value="MedMijHG_concern_L86.01"/>
                  </identifier>
                  <display value="Episode: MedMijHG_concern_L86.01 2.16.840.1.113883.2.4.3.111.19.1"/>
               </detail>
            </event>
            <section>
               <extension url="http://nictiz.nl/fhir/StructureDefinition/code-icpc-1-nl">
                  <valueCodeableConcept>
                     <coding>
                        <system value="http://hl7.org/fhir/sid/icpc-1-nl"/>
                        <code value="L03"/>
                        <display value="lage rugpijn"/>
                     </coding>
                  </valueCodeableConcept>
               </extension>
               <code>
                  <coding>
                     <system value="http://fhir.nl/fhir/NamingSystem/journaalregeltypen"/>
                     <code value="E"/>
                     <display value="Evaluatie"/>
                  </coding>
               </code>
               <text>
                  <status value="generated"/>
                  <div xmlns="http://www.w3.org/1999/xhtml">lage rugpijn</div>
               </text>
               <entry>
                  <reference value="urn:uuid:bc329da2-54b4-11eb-4949-020000000000"/>
                  <display value="E: Evaluatie - lage rugpijn"/>
               </entry>
               <entry>
                  <identifier>
                     <system value="urn:oid:2.16.840.1.113883.2.4.3.111.19.1"/>
                     <value value="MedMijHG_concern_L86.01"/>
                  </identifier>
                  <display value="Episode: MedMijHG_concern_L86.01 2.16.840.1.113883.2.4.3.111.19.1"/>
               </entry>
            </section>
         </Composition>
      </resource>
      <search>
         <mode value="match"/>
      </search>
   </entry>
   <entry>
      <fullUrl value="urn:uuid:bc329daf-54b4-11eb-4949-020000000000"/>
      <resource>
         <Composition>
            <meta>
               <profile value="http://nictiz.nl/fhir/StructureDefinition/gp-EncounterReport"/>
            </meta>
            <text>
               <status value="extensions"/>
               <div xmlns="http://www.w3.org/1999/xhtml">
                  <b>Keelpijn</b>
                  <table>
                     <caption>Samengestelde informatie. Subject: H. XXX_Mulders. Status: definitief<span style="display: block;">Auteur: Huisarts 1</span>
                     </caption>
                     <tbody>
                        <tr>
                           <th>Type</th>
                           <td>
                              <span title="Summarization of encounter note Narrative (67781-5 - LOINC)">Summarization of encounter note Narrative</span>
                           </td>
                        </tr>
                        <tr>
                           <th>Gemaakt</th>
                           <td>14:41:54, 28 oktober 2019</td>
                        </tr>
                        <tr>
                           <th>Contact</th>
                           <td>Contactmoment: MedMijHG_contactmoment06 2.16.840.1.113883.2.4.3.111.19.1 (Id: MedMijHG_contactmoment06 (urn:oid:2.16.840.1.113883.2.4.3.111.19.1))</td>
                        </tr>
                        <tr>
                           <th>Gebeurtenis</th>
                           <td>Episode: MedMijHG_concern_R21.01 2.16.840.1.113883.2.4.3.111.19.1 (Id: MedMijHG_concern_R21.01 (urn:oid:2.16.840.1.113883.2.4.3.111.19.1))</td>
                        </tr>
                     </tbody>
                  </table>
               </div>
            </text>
            <status value="final"/>
            <type>
               <coding>
                  <system value="http://loinc.org"/>
                  <code value="67781-5"/>
                  <display value="Summarization of encounter note Narrative"/>
               </coding>
            </type>
            <subject>
               <reference value="urn:uuid:bc32b4a6-54b4-11eb-4949-020000000000"/>
               <display value="H. XXX_Mulders"/>
            </subject>
            <encounter>
               <identifier>
                  <system value="urn:oid:2.16.840.1.113883.2.4.3.111.19.1"/>
                  <value value="MedMijHG_contactmoment06"/>
               </identifier>
               <display value="Contactmoment: MedMijHG_contactmoment06 2.16.840.1.113883.2.4.3.111.19.1"/>
            </encounter>
            <date value="2019-10-28T14:41:54+01:00"/>
            <author>
               <reference value="urn:oid:2.16.528.1.1007.3.1.900016431"/>
               <display value="Huisarts 1"/>
            </author>
            <title value="Keelpijn"/>
            <event>
               <detail>
                  <identifier>
                     <system value="urn:oid:2.16.840.1.113883.2.4.3.111.19.1"/>
                     <value value="MedMijHG_concern_R21.01"/>
                  </identifier>
                  <display value="Episode: MedMijHG_concern_R21.01 2.16.840.1.113883.2.4.3.111.19.1"/>
               </detail>
            </event>
            <section>
               <extension url="http://nictiz.nl/fhir/StructureDefinition/code-icpc-1-nl">
                  <valueCodeableConcept>
                     <coding>
                        <system value="http://hl7.org/fhir/sid/icpc-1-nl"/>
                        <code value="R21.01"/>
                        <display value="Keelpijn"/>
                     </coding>
                  </valueCodeableConcept>
               </extension>
               <code>
                  <coding>
                     <system value="http://fhir.nl/fhir/NamingSystem/journaalregeltypen"/>
                     <code value="E"/>
                     <display value="Evaluatie"/>
                  </coding>
               </code>
               <text>
                  <status value="generated"/>
                  <div xmlns="http://www.w3.org/1999/xhtml">Keelpijn eci.</div>
               </text>
               <entry>
                  <reference value="urn:uuid:bc329dbf-54b4-11eb-4949-020000000000"/>
                  <display value="E: Evaluatie - Keelpijn eci."/>
               </entry>
               <entry>
                  <identifier>
                     <system value="urn:oid:2.16.840.1.113883.2.4.3.111.19.1"/>
                     <value value="MedMijHG_concern_R21.01"/>
                  </identifier>
                  <display value="Episode: MedMijHG_concern_R21.01 2.16.840.1.113883.2.4.3.111.19.1"/>
               </entry>
            </section>
            <section>
               <code>
                  <coding>
                     <system value="http://fhir.nl/fhir/NamingSystem/journaalregeltypen"/>
                     <code value="P"/>
                     <display value="Plan"/>
                  </coding>
               </code>
               <text>
                  <status value="generated"/>
                  <div xmlns="http://www.w3.org/1999/xhtml">Afwachten, zn. Pcm, tijdens feest paracod.</div>
               </text>
               <entry>
                  <reference value="urn:uuid:bc329dc9-54b4-11eb-4949-020000000000"/>
                  <display value="P: Plan - Afwachten, zn. Pcm, tijdens feest paracod."/>
               </entry>
               <entry>
                  <identifier>
                     <system value="urn:oid:2.16.840.1.113883.2.4.3.111.19.1"/>
                     <value value="MedMijHG_concern_R21.01"/>
                  </identifier>
                  <display value="Episode: MedMijHG_concern_R21.01 2.16.840.1.113883.2.4.3.111.19.1"/>
               </entry>
            </section>
         </Composition>
      </resource>
      <search>
         <mode value="match"/>
      </search>
   </entry>
   <entry>
      <fullUrl value="urn:uuid:bc329dce-54b4-11eb-4949-020000000000"/>
      <resource>
         <Composition>
            <meta>
               <profile value="http://nictiz.nl/fhir/StructureDefinition/gp-EncounterReport"/>
            </meta>
            <text>
               <status value="extensions"/>
               <div xmlns="http://www.w3.org/1999/xhtml">
                  <b>Astma</b>
                  <table>
                     <caption>Samengestelde informatie. Subject: H. XXX_Mulders. Status: definitief<span style="display: block;">Auteur: Huisarts 1</span>
                     </caption>
                     <tbody>
                        <tr>
                           <th>Type</th>
                           <td>
                              <span title="Summarization of encounter note Narrative (67781-5 - LOINC)">Summarization of encounter note Narrative</span>
                           </td>
                        </tr>
                        <tr>
                           <th>Gemaakt</th>
                           <td>15:41:54, 18 oktober 2019</td>
                        </tr>
                        <tr>
                           <th>Contact</th>
                           <td>Contactmoment: MedMijHG_contactmomentMMK 2.16.840.1.113883.2.4.3.111.19.1 (Id: MedMijHG_contactmomentMMK (urn:oid:2.16.840.1.113883.2.4.3.111.19.1))</td>
                        </tr>
                        <tr>
                           <th>Gebeurtenis</th>
                           <td>Episode: MedMijHG_concern_R96 2.16.840.1.113883.2.4.3.111.19.1 (Id: MedMijHG_concern_R96 (urn:oid:2.16.840.1.113883.2.4.3.111.19.1))</td>
                        </tr>
                     </tbody>
                  </table>
               </div>
            </text>
            <status value="final"/>
            <type>
               <coding>
                  <system value="http://loinc.org"/>
                  <code value="67781-5"/>
                  <display value="Summarization of encounter note Narrative"/>
               </coding>
            </type>
            <subject>
               <reference value="urn:uuid:bc32b4a6-54b4-11eb-4949-020000000000"/>
               <display value="H. XXX_Mulders"/>
            </subject>
            <encounter>
               <identifier>
                  <system value="urn:oid:2.16.840.1.113883.2.4.3.111.19.1"/>
                  <value value="MedMijHG_contactmomentMMK"/>
               </identifier>
               <display value="Contactmoment: MedMijHG_contactmomentMMK 2.16.840.1.113883.2.4.3.111.19.1"/>
            </encounter>
            <date value="2019-10-18T15:41:54+02:00"/>
            <author>
               <reference value="urn:oid:2.16.528.1.1007.3.1.900016431"/>
               <display value="Huisarts 1"/>
            </author>
            <title value="Astma"/>
            <event>
               <detail>
                  <identifier>
                     <system value="urn:oid:2.16.840.1.113883.2.4.3.111.19.1"/>
                     <value value="MedMijHG_concern_R96"/>
                  </identifier>
                  <display value="Episode: MedMijHG_concern_R96 2.16.840.1.113883.2.4.3.111.19.1"/>
               </detail>
            </event>
            <section>
               <extension url="http://nictiz.nl/fhir/StructureDefinition/code-icpc-1-nl">
                  <valueCodeableConcept>
                     <coding>
                        <system value="http://hl7.org/fhir/sid/icpc-1-nl"/>
                        <code value="R96"/>
                        <display value="Astma"/>
                     </coding>
                  </valueCodeableConcept>
               </extension>
               <code>
                  <coding>
                     <system value="http://fhir.nl/fhir/NamingSystem/journaalregeltypen"/>
                     <code value="E"/>
                     <display value="Evaluatie"/>
                  </coding>
               </code>
               <text>
                  <status value="generated"/>
                  <div xmlns="http://www.w3.org/1999/xhtml">astma</div>
               </text>
               <entry>
                  <reference value="urn:uuid:bc329dde-54b4-11eb-4949-020000000000"/>
                  <display value="E: Evaluatie - astma"/>
               </entry>
               <entry>
                  <identifier>
                     <system value="urn:oid:2.16.840.1.113883.2.4.3.111.19.1"/>
                     <value value="MedMijHG_concern_R96"/>
                  </identifier>
                  <display value="Episode: MedMijHG_concern_R96 2.16.840.1.113883.2.4.3.111.19.1"/>
               </entry>
            </section>
            <section>
               <code>
                  <coding>
                     <system value="http://fhir.nl/fhir/NamingSystem/journaalregeltypen"/>
                     <code value="P"/>
                     <display value="Plan"/>
                  </coding>
               </code>
               <text>
                  <status value="generated"/>
                  <div xmlns="http://www.w3.org/1999/xhtml">Salbutamol half uur voor het sporten.</div>
               </text>
               <entry>
                  <reference value="urn:uuid:bc329de8-54b4-11eb-4949-020000000000"/>
                  <display value="P: Plan - Salbutamol half uur voor het sporten."/>
               </entry>
               <entry>
                  <identifier>
                     <system value="urn:oid:2.16.840.1.113883.2.4.3.111.19.1"/>
                     <value value="MedMijHG_concern_R96"/>
                  </identifier>
                  <display value="Episode: MedMijHG_concern_R96 2.16.840.1.113883.2.4.3.111.19.1"/>
               </entry>
            </section>
         </Composition>
      </resource>
      <search>
         <mode value="match"/>
      </search>
   </entry>
   <entry>
      <fullUrl value="urn:uuid:bc329ded-54b4-11eb-4949-020000000000"/>
      <resource>
         <Composition>
            <meta>
               <profile value="http://nictiz.nl/fhir/StructureDefinition/gp-EncounterReport"/>
            </meta>
            <text>
               <status value="extensions"/>
               <div xmlns="http://www.w3.org/1999/xhtml">
                  <b>Contactverslag H. XXX_Mulders</b>
                  <table>
                     <caption>Samengestelde informatie. Subject: H. XXX_Mulders. Status: definitief<span style="display: block;">Auteur: Huisarts 1</span>
                     </caption>
                     <tbody>
                        <tr>
                           <th>Type</th>
                           <td>
                              <span title="Summarization of encounter note Narrative (67781-5 - LOINC)">Summarization of encounter note Narrative</span>
                           </td>
                        </tr>
                        <tr>
                           <th>Gemaakt</th>
                           <td>15:41:54, 3 oktober 2019</td>
                        </tr>
                        <tr>
                           <th>Contact</th>
                           <td>Contactmoment: MedMijHG_contactmoment08 2.16.840.1.113883.2.4.3.111.19.1 (Id: MedMijHG_contactmoment08 (urn:oid:2.16.840.1.113883.2.4.3.111.19.1))</td>
                        </tr>
                        <tr>
                           <th>Gebeurtenis</th>
                           <td>Episode: MedMijHG_concern_S04 2.16.840.1.113883.2.4.3.111.19.1 (Id: MedMijHG_concern_S04 (urn:oid:2.16.840.1.113883.2.4.3.111.19.1))</td>
                        </tr>
                     </tbody>
                  </table>
               </div>
            </text>
            <status value="final"/>
            <type>
               <coding>
                  <system value="http://loinc.org"/>
                  <code value="67781-5"/>
                  <display value="Summarization of encounter note Narrative"/>
               </coding>
            </type>
            <subject>
               <reference value="urn:uuid:bc32b4a6-54b4-11eb-4949-020000000000"/>
               <display value="H. XXX_Mulders"/>
            </subject>
            <encounter>
               <identifier>
                  <system value="urn:oid:2.16.840.1.113883.2.4.3.111.19.1"/>
                  <value value="MedMijHG_contactmoment08"/>
               </identifier>
               <display value="Contactmoment: MedMijHG_contactmoment08 2.16.840.1.113883.2.4.3.111.19.1"/>
            </encounter>
            <date value="2019-10-03T15:41:54+02:00"/>
            <author>
               <reference value="urn:oid:2.16.528.1.1007.3.1.900016431"/>
               <display value="Huisarts 1"/>
            </author>
            <title value="Contactverslag H. XXX_Mulders"/>
            <event>
               <detail>
                  <identifier>
                     <system value="urn:oid:2.16.840.1.113883.2.4.3.111.19.1"/>
                     <value value="MedMijHG_concern_S04"/>
                  </identifier>
                  <display value="Episode: MedMijHG_concern_S04 2.16.840.1.113883.2.4.3.111.19.1"/>
               </detail>
            </event>
            <section>
               <code>
                  <coding>
                     <system value="http://fhir.nl/fhir/NamingSystem/journaalregeltypen"/>
                     <code value="E"/>
                     <display value="Evaluatie"/>
                  </coding>
               </code>
               <text>
                  <status value="generated"/>
                  <div xmlns="http://www.w3.org/1999/xhtml">Onder mandibula re. glad weinig mobile zwelling, lijkt speekselkl.</div>
               </text>
               <entry>
                  <reference value="urn:uuid:bc329dfd-54b4-11eb-4949-020000000000"/>
                  <display value="E: Evaluatie - Onder mandibula re. glad weinig mobile zwelling, lijkt speekselkl."/>
               </entry>
               <entry>
                  <identifier>
                     <system value="urn:oid:2.16.840.1.113883.2.4.3.111.19.1"/>
                     <value value="MedMijHG_concern_S04"/>
                  </identifier>
                  <display value="Episode: MedMijHG_concern_S04 2.16.840.1.113883.2.4.3.111.19.1"/>
               </entry>
            </section>
            <section>
               <code>
                  <coding>
                     <system value="http://fhir.nl/fhir/NamingSystem/journaalregeltypen"/>
                     <code value="P"/>
                     <display value="Plan"/>
                  </coding>
               </code>
               <text>
                  <status value="generated"/>
                  <div xmlns="http://www.w3.org/1999/xhtml">Echo</div>
               </text>
               <entry>
                  <reference value="urn:uuid:bc329e00-54b4-11eb-4949-020000000000"/>
                  <display value="P: Plan - Echo"/>
               </entry>
               <entry>
                  <identifier>
                     <system value="urn:oid:2.16.840.1.113883.2.4.3.111.19.1"/>
                     <value value="MedMijHG_concern_S04"/>
                  </identifier>
                  <display value="Episode: MedMijHG_concern_S04 2.16.840.1.113883.2.4.3.111.19.1"/>
               </entry>
            </section>
         </Composition>
      </resource>
      <search>
         <mode value="match"/>
      </search>
   </entry>
   <entry>
      <fullUrl value="urn:uuid:bc329e05-54b4-11eb-4949-020000000000"/>
      <resource>
         <Composition>
            <meta>
               <profile value="http://nictiz.nl/fhir/StructureDefinition/gp-EncounterReport"/>
            </meta>
            <text>
               <status value="extensions"/>
               <div xmlns="http://www.w3.org/1999/xhtml">
                  <b>Contactverslag H. XXX_Mulders</b>
                  <table>
                     <caption>Samengestelde informatie. Subject: H. XXX_Mulders. Status: definitief<span style="display: block;">Auteur: Huisarts 1</span>
                     </caption>
                     <tbody>
                        <tr>
                           <th>Type</th>
                           <td>
                              <span title="Summarization of encounter note Narrative (67781-5 - LOINC)">Summarization of encounter note Narrative</span>
                           </td>
                        </tr>
                        <tr>
                           <th>Gemaakt</th>
                           <td>15:41:54, 1 april 2019</td>
                        </tr>
                        <tr>
                           <th>Contact</th>
                           <td>Contactmoment: MedMijHG_contactmoment03 2.16.840.1.113883.2.4.3.111.19.1 (Id: MedMijHG_contactmoment03 (urn:oid:2.16.840.1.113883.2.4.3.111.19.1))</td>
                        </tr>
                     </tbody>
                  </table>
               </div>
            </text>
            <status value="final"/>
            <type>
               <coding>
                  <system value="http://loinc.org"/>
                  <code value="67781-5"/>
                  <display value="Summarization of encounter note Narrative"/>
               </coding>
            </type>
            <subject>
               <reference value="urn:uuid:bc32b4a6-54b4-11eb-4949-020000000000"/>
               <display value="H. XXX_Mulders"/>
            </subject>
            <encounter>
               <identifier>
                  <system value="urn:oid:2.16.840.1.113883.2.4.3.111.19.1"/>
                  <value value="MedMijHG_contactmoment03"/>
               </identifier>
               <display value="Contactmoment: MedMijHG_contactmoment03 2.16.840.1.113883.2.4.3.111.19.1"/>
            </encounter>
            <date value="2019-04-01T15:41:54+02:00"/>
            <author>
               <reference value="urn:oid:2.16.528.1.1007.3.1.900016431"/>
               <display value="Huisarts 1"/>
            </author>
            <title value="Contactverslag H. XXX_Mulders"/>
            <section>
               <code>
                  <coding>
                     <system value="http://fhir.nl/fhir/NamingSystem/journaalregeltypen"/>
                     <code value="P"/>
                     <display value="Plan"/>
                  </coding>
               </code>
               <text>
                  <status value="generated"/>
                  <div xmlns="http://www.w3.org/1999/xhtml">Over paar weken RR thuis.</div>
               </text>
               <entry>
                  <reference value="urn:uuid:bc329e14-54b4-11eb-4949-020000000000"/>
                  <display value="P: Plan - Over paar weken RR thuis."/>
               </entry>
            </section>
         </Composition>
      </resource>
      <search>
         <mode value="match"/>
      </search>
   </entry>
   <entry>
      <fullUrl value="urn:uuid:bc329e19-54b4-11eb-4949-020000000000"/>
      <resource>
         <Composition>
            <meta>
               <profile value="http://nictiz.nl/fhir/StructureDefinition/gp-EncounterReport"/>
            </meta>
            <text>
               <status value="extensions"/>
               <div xmlns="http://www.w3.org/1999/xhtml">
                  <b>Contactverslag H. XXX_Mulders</b>
                  <table>
                     <caption>Samengestelde informatie. Subject: H. XXX_Mulders. Status: definitief<span style="display: block;">Auteur: Huisarts 1</span>
                     </caption>
                     <tbody>
                        <tr>
                           <th>Type</th>
                           <td>
                              <span title="Summarization of encounter note Narrative (67781-5 - LOINC)">Summarization of encounter note Narrative</span>
                           </td>
                        </tr>
                        <tr>
                           <th>Gemaakt</th>
                           <td>14:41:54, 12 maart 2019</td>
                        </tr>
                        <tr>
                           <th>Contact</th>
                           <td>Contactmoment: MedMijHG_contactmoment02 2.16.840.1.113883.2.4.3.111.19.1 (Id: MedMijHG_contactmoment02 (urn:oid:2.16.840.1.113883.2.4.3.111.19.1))</td>
                        </tr>
                     </tbody>
                  </table>
               </div>
            </text>
            <status value="final"/>
            <type>
               <coding>
                  <system value="http://loinc.org"/>
                  <code value="67781-5"/>
                  <display value="Summarization of encounter note Narrative"/>
               </coding>
            </type>
            <subject>
               <reference value="urn:uuid:bc32b4a6-54b4-11eb-4949-020000000000"/>
               <display value="H. XXX_Mulders"/>
            </subject>
            <encounter>
               <identifier>
                  <system value="urn:oid:2.16.840.1.113883.2.4.3.111.19.1"/>
                  <value value="MedMijHG_contactmoment02"/>
               </identifier>
               <display value="Contactmoment: MedMijHG_contactmoment02 2.16.840.1.113883.2.4.3.111.19.1"/>
            </encounter>
            <date value="2019-03-12T14:41:54+01:00"/>
            <author>
               <reference value="urn:oid:2.16.528.1.1007.3.1.900016431"/>
               <display value="Huisarts 1"/>
            </author>
            <title value="Contactverslag H. XXX_Mulders"/>
            <section>
               <code>
                  <coding>
                     <system value="http://fhir.nl/fhir/NamingSystem/journaalregeltypen"/>
                     <code value="P"/>
                     <display value="Plan"/>
                  </coding>
               </code>
               <text>
                  <status value="generated"/>
                  <div xmlns="http://www.w3.org/1999/xhtml">Na vakantie nogmaals.</div>
               </text>
               <entry>
                  <reference value="urn:uuid:bc329e28-54b4-11eb-4949-020000000000"/>
                  <display value="P: Plan - Na vakantie nogmaals."/>
               </entry>
            </section>
         </Composition>
      </resource>
      <search>
         <mode value="match"/>
      </search>
   </entry>
   <entry>
      <fullUrl value="urn:uuid:bc329e2d-54b4-11eb-4949-020000000000"/>
      <resource>
         <Composition>
            <meta>
               <profile value="http://nictiz.nl/fhir/StructureDefinition/gp-EncounterReport"/>
            </meta>
            <text>
               <status value="extensions"/>
               <div xmlns="http://www.w3.org/1999/xhtml">
                  <b>Boezemfibrilleren/-fladderen</b>
                  <table>
                     <caption>Samengestelde informatie. Subject: H. XXX_Mulders. Status: definitief<span style="display: block;">Auteur: Huisarts 1</span>
                     </caption>
                     <tbody>
                        <tr>
                           <th>Type</th>
                           <td>
                              <span title="Summarization of encounter note Narrative (67781-5 - LOINC)">Summarization of encounter note Narrative</span>
                           </td>
                        </tr>
                        <tr>
                           <th>Gemaakt</th>
                           <td>14:41:54, 20 februari 2019</td>
                        </tr>
                        <tr>
                           <th>Contact</th>
                           <td>Contactmoment: MedMijHG_contactmoment01 2.16.840.1.113883.2.4.3.111.19.1 (Id: MedMijHG_contactmoment01 (urn:oid:2.16.840.1.113883.2.4.3.111.19.1))</td>
                        </tr>
                        <tr>
                           <th>Gebeurtenis</th>
                           <td>Episode: MedMijHG_concern_K78 2.16.840.1.113883.2.4.3.111.19.1 (Id: MedMijHG_concern_K78 (urn:oid:2.16.840.1.113883.2.4.3.111.19.1))</td>
                        </tr>
                     </tbody>
                  </table>
               </div>
            </text>
            <status value="final"/>
            <type>
               <coding>
                  <system value="http://loinc.org"/>
                  <code value="67781-5"/>
                  <display value="Summarization of encounter note Narrative"/>
               </coding>
            </type>
            <subject>
               <reference value="urn:uuid:bc32b4a6-54b4-11eb-4949-020000000000"/>
               <display value="H. XXX_Mulders"/>
            </subject>
            <encounter>
               <identifier>
                  <system value="urn:oid:2.16.840.1.113883.2.4.3.111.19.1"/>
                  <value value="MedMijHG_contactmoment01"/>
               </identifier>
               <display value="Contactmoment: MedMijHG_contactmoment01 2.16.840.1.113883.2.4.3.111.19.1"/>
            </encounter>
            <date value="2019-02-20T14:41:54+01:00"/>
            <author>
               <reference value="urn:oid:2.16.528.1.1007.3.1.900016431"/>
               <display value="Huisarts 1"/>
            </author>
            <title value="Boezemfibrilleren/-fladderen"/>
            <event>
               <detail>
                  <identifier>
                     <system value="urn:oid:2.16.840.1.113883.2.4.3.111.19.1"/>
                     <value value="MedMijHG_concern_K78"/>
                  </identifier>
                  <display value="Episode: MedMijHG_concern_K78 2.16.840.1.113883.2.4.3.111.19.1"/>
               </detail>
            </event>
            <section>
               <extension url="http://nictiz.nl/fhir/StructureDefinition/code-icpc-1-nl">
                  <valueCodeableConcept>
                     <coding>
                        <system value="http://hl7.org/fhir/sid/icpc-1-nl"/>
                        <code value="K78"/>
                        <display value="Boezemfibrilleren/-fladderen"/>
                     </coding>
                  </valueCodeableConcept>
               </extension>
               <code>
                  <coding>
                     <system value="http://fhir.nl/fhir/NamingSystem/journaalregeltypen"/>
                     <code value="E"/>
                     <display value="Evaluatie"/>
                  </coding>
               </code>
               <text>
                  <status value="generated"/>
                  <div xmlns="http://www.w3.org/1999/xhtml">Ritmestoornis</div>
               </text>
               <entry>
                  <reference value="urn:uuid:bc329e3d-54b4-11eb-4949-020000000000"/>
                  <display value="E: Evaluatie - Ritmestoornis"/>
               </entry>
               <entry>
                  <identifier>
                     <system value="urn:oid:2.16.840.1.113883.2.4.3.111.19.1"/>
                     <value value="MedMijHG_concern_K78"/>
                  </identifier>
                  <display value="Episode: MedMijHG_concern_K78 2.16.840.1.113883.2.4.3.111.19.1"/>
               </entry>
            </section>
            <section>
               <code>
                  <coding>
                     <system value="http://fhir.nl/fhir/NamingSystem/journaalregeltypen"/>
                     <code value="P"/>
                     <display value="Plan"/>
                  </coding>
               </code>
               <text>
                  <status value="generated"/>
                  <div xmlns="http://www.w3.org/1999/xhtml">Naar SEH.</div>
               </text>
               <entry>
                  <reference value="urn:uuid:bc329e47-54b4-11eb-4949-020000000000"/>
                  <display value="P: Plan - Naar SEH."/>
               </entry>
               <entry>
                  <identifier>
                     <system value="urn:oid:2.16.840.1.113883.2.4.3.111.19.1"/>
                     <value value="MedMijHG_concern_K78"/>
                  </identifier>
                  <display value="Episode: MedMijHG_concern_K78 2.16.840.1.113883.2.4.3.111.19.1"/>
               </entry>
            </section>
         </Composition>
      </resource>
      <search>
         <mode value="match"/>
      </search>
   </entry>
   <entry>
      <fullUrl value="urn:uuid:bc329e4c-54b4-11eb-4949-020000000000"/>
      <resource>
         <Composition>
            <meta>
               <profile value="http://nictiz.nl/fhir/StructureDefinition/gp-EncounterReport"/>
            </meta>
            <text>
               <status value="extensions"/>
               <div xmlns="http://www.w3.org/1999/xhtml">
                  <b>Keelpijn</b>
                  <table>
                     <caption>Samengestelde informatie. Subject: H. XXX_Mulders. Status: definitief<span style="display: block;">Auteur: Huisarts 1</span>
                     </caption>
                     <tbody>
                        <tr>
                           <th>Type</th>
                           <td>
                              <span title="Summarization of encounter note Narrative (67781-5 - LOINC)">Summarization of encounter note Narrative</span>
                           </td>
                        </tr>
                        <tr>
                           <th>Gemaakt</th>
                           <td>14:41:54, 27 december 2019</td>
                        </tr>
                        <tr>
                           <th>Contact</th>
                           <td>Contactmoment: MedMijHG_contactmoment11 2.16.840.1.113883.2.4.3.111.19.1 (Id: MedMijHG_contactmoment11 (urn:oid:2.16.840.1.113883.2.4.3.111.19.1))</td>
                        </tr>
                        <tr>
                           <th>Gebeurtenis</th>
                           <td>Episode: MedMijHG_concern_R21.01 2.16.840.1.113883.2.4.3.111.19.1 (Id: MedMijHG_concern_R21.01 (urn:oid:2.16.840.1.113883.2.4.3.111.19.1))</td>
                        </tr>
                     </tbody>
                  </table>
               </div>
            </text>
            <status value="final"/>
            <type>
               <coding>
                  <system value="http://loinc.org"/>
                  <code value="67781-5"/>
                  <display value="Summarization of encounter note Narrative"/>
               </coding>
            </type>
            <subject>
               <reference value="urn:uuid:bc32b4a6-54b4-11eb-4949-020000000000"/>
               <display value="H. XXX_Mulders"/>
            </subject>
            <encounter>
               <identifier>
                  <system value="urn:oid:2.16.840.1.113883.2.4.3.111.19.1"/>
                  <value value="MedMijHG_contactmoment11"/>
               </identifier>
               <display value="Contactmoment: MedMijHG_contactmoment11 2.16.840.1.113883.2.4.3.111.19.1"/>
            </encounter>
            <date value="2019-12-27T14:41:54+01:00"/>
            <author>
               <reference value="urn:oid:2.16.528.1.1007.3.1.900016431"/>
               <display value="Huisarts 1"/>
            </author>
            <title value="Keelpijn"/>
            <event>
               <detail>
                  <identifier>
                     <system value="urn:oid:2.16.840.1.113883.2.4.3.111.19.1"/>
                     <value value="MedMijHG_concern_R21.01"/>
                  </identifier>
                  <display value="Episode: MedMijHG_concern_R21.01 2.16.840.1.113883.2.4.3.111.19.1"/>
               </detail>
            </event>
            <section>
               <extension url="http://nictiz.nl/fhir/StructureDefinition/code-icpc-1-nl">
                  <valueCodeableConcept>
                     <coding>
                        <system value="http://hl7.org/fhir/sid/icpc-1-nl"/>
                        <code value="R21.01"/>
                        <display value="Keelpijn"/>
                     </coding>
                  </valueCodeableConcept>
               </extension>
               <code>
                  <coding>
                     <system value="http://fhir.nl/fhir/NamingSystem/journaalregeltypen"/>
                     <code value="E"/>
                     <display value="Evaluatie"/>
                  </coding>
               </code>
               <text>
                  <status value="generated"/>
                  <div xmlns="http://www.w3.org/1999/xhtml">Keelpijn eci.</div>
               </text>
               <entry>
                  <reference value="urn:uuid:bc329e5c-54b4-11eb-4949-020000000000"/>
                  <display value="E: Evaluatie - Keelpijn eci."/>
               </entry>
               <entry>
                  <identifier>
                     <system value="urn:oid:2.16.840.1.113883.2.4.3.111.19.1"/>
                     <value value="MedMijHG_concern_R21.01"/>
                  </identifier>
                  <display value="Episode: MedMijHG_concern_R21.01 2.16.840.1.113883.2.4.3.111.19.1"/>
               </entry>
            </section>
            <section>
               <code>
                  <coding>
                     <system value="http://fhir.nl/fhir/NamingSystem/journaalregeltypen"/>
                     <code value="P"/>
                     <display value="Plan"/>
                  </coding>
               </code>
               <text>
                  <status value="generated"/>
                  <div xmlns="http://www.w3.org/1999/xhtml">Kweek van aanslag keel</div>
               </text>
               <entry>
                  <reference value="urn:uuid:bc329e66-54b4-11eb-4949-020000000000"/>
                  <display value="P: Plan - Kweek van aanslag keel"/>
               </entry>
               <entry>
                  <identifier>
                     <system value="urn:oid:2.16.840.1.113883.2.4.3.111.19.1"/>
                     <value value="MedMijHG_concern_R21.01"/>
                  </identifier>
                  <display value="Episode: MedMijHG_concern_R21.01 2.16.840.1.113883.2.4.3.111.19.1"/>
               </entry>
            </section>
         </Composition>
      </resource>
      <search>
         <mode value="match"/>
      </search>
   </entry>
   <entry>
      <fullUrl value="urn:uuid:bc329e6b-54b4-11eb-4949-020000000000"/>
      <resource>
         <Composition>
            <meta>
               <profile value="http://nictiz.nl/fhir/StructureDefinition/gp-EncounterReport"/>
            </meta>
            <text>
               <status value="extensions"/>
               <div xmlns="http://www.w3.org/1999/xhtml">
                  <b>lage rugpijn</b>
                  <table>
                     <caption>Samengestelde informatie. Subject: H. XXX_Mulders. Status: definitief<span style="display: block;">Auteur: Huisarts 1</span>
                     </caption>
                     <tbody>
                        <tr>
                           <th>Type</th>
                           <td>
                              <span title="Summarization of encounter note Narrative (67781-5 - LOINC)">Summarization of encounter note Narrative</span>
                           </td>
                        </tr>
                        <tr>
                           <th>Gemaakt</th>
                           <td>14:41:54, 17 december 2019</td>
                        </tr>
                        <tr>
                           <th>Contact</th>
                           <td>Contactmoment: MedMijHG_contactmoment05 2.16.840.1.113883.2.4.3.111.19.1 (Id: MedMijHG_contactmoment05 (urn:oid:2.16.840.1.113883.2.4.3.111.19.1))</td>
                        </tr>
                        <tr>
                           <th>Gebeurtenis</th>
                           <td>Episode: MedMijHG_concern_L86.01 2.16.840.1.113883.2.4.3.111.19.1 (Id: MedMijHG_concern_L86.01 (urn:oid:2.16.840.1.113883.2.4.3.111.19.1))</td>
                        </tr>
                     </tbody>
                  </table>
               </div>
            </text>
            <status value="final"/>
            <type>
               <coding>
                  <system value="http://loinc.org"/>
                  <code value="67781-5"/>
                  <display value="Summarization of encounter note Narrative"/>
               </coding>
            </type>
            <subject>
               <reference value="urn:uuid:bc32b4a6-54b4-11eb-4949-020000000000"/>
               <display value="H. XXX_Mulders"/>
            </subject>
            <encounter>
               <identifier>
                  <system value="urn:oid:2.16.840.1.113883.2.4.3.111.19.1"/>
                  <value value="MedMijHG_contactmoment05"/>
               </identifier>
               <display value="Contactmoment: MedMijHG_contactmoment05 2.16.840.1.113883.2.4.3.111.19.1"/>
            </encounter>
            <date value="2019-12-17T14:41:54+01:00"/>
            <author>
               <reference value="urn:oid:2.16.528.1.1007.3.1.900016431"/>
               <display value="Huisarts 1"/>
            </author>
            <title value="lage rugpijn"/>
            <event>
               <detail>
                  <identifier>
                     <system value="urn:oid:2.16.840.1.113883.2.4.3.111.19.1"/>
                     <value value="MedMijHG_concern_L86.01"/>
                  </identifier>
                  <display value="Episode: MedMijHG_concern_L86.01 2.16.840.1.113883.2.4.3.111.19.1"/>
               </detail>
            </event>
            <section>
               <extension url="http://nictiz.nl/fhir/StructureDefinition/code-icpc-1-nl">
                  <valueCodeableConcept>
                     <coding>
                        <system value="http://hl7.org/fhir/sid/icpc-1-nl"/>
                        <code value="L03"/>
                        <display value="lage rugpijn"/>
                     </coding>
                  </valueCodeableConcept>
               </extension>
               <code>
                  <coding>
                     <system value="http://fhir.nl/fhir/NamingSystem/journaalregeltypen"/>
                     <code value="E"/>
                     <display value="Evaluatie"/>
                  </coding>
               </code>
               <text>
                  <status value="generated"/>
                  <div xmlns="http://www.w3.org/1999/xhtml">Maag/duodenum problemen?</div>
               </text>
               <entry>
                  <reference value="urn:uuid:bc329e7b-54b4-11eb-4949-020000000000"/>
                  <display value="E: Evaluatie - Maag/duodenum problemen?"/>
               </entry>
               <entry>
                  <identifier>
                     <system value="urn:oid:2.16.840.1.113883.2.4.3.111.19.1"/>
                     <value value="MedMijHG_concern_L86.01"/>
                  </identifier>
                  <display value="Episode: MedMijHG_concern_L86.01 2.16.840.1.113883.2.4.3.111.19.1"/>
               </entry>
            </section>
            <section>
               <code>
                  <coding>
                     <system value="http://fhir.nl/fhir/NamingSystem/journaalregeltypen"/>
                     <code value="P"/>
                     <display value="Plan"/>
                  </coding>
               </code>
               <text>
                  <status value="generated"/>
                  <div xmlns="http://www.w3.org/1999/xhtml">Cesar of Mensendieck.</div>
               </text>
               <entry>
                  <reference value="urn:uuid:bc329e85-54b4-11eb-4949-020000000000"/>
                  <display value="P: Plan - Cesar of Mensendieck."/>
               </entry>
               <entry>
                  <identifier>
                     <system value="urn:oid:2.16.840.1.113883.2.4.3.111.19.1"/>
                     <value value="MedMijHG_concern_L86.01"/>
                  </identifier>
                  <display value="Episode: MedMijHG_concern_L86.01 2.16.840.1.113883.2.4.3.111.19.1"/>
               </entry>
            </section>
         </Composition>
      </resource>
      <search>
         <mode value="match"/>
      </search>
   </entry>
   <entry>
      <fullUrl value="urn:uuid:bc32b4a6-54b4-11eb-4949-020000000000"/>
      <resource>
         <Patient>
            <meta>
               <profile value="http://fhir.nl/fhir/StructureDefinition/nl-core-patient"/>
            </meta>
            <text>
               <status value="extensions"/>
               <div xmlns="http://www.w3.org/1999/xhtml">
                  <div>Id <i>afgeschermd (ontbrekend gegeven)</i> (BSN), H. XXX_Mulders, Man, 30 december 1985</div>
                  <div>Knolweg 1003, 9999ZA STITSWERD, Nederland</div>
               </div>
            </text>
            <identifier>
               <system value="http://fhir.nl/fhir/NamingSystem/bsn"/>
               <value>
                  <extension url="http://hl7.org/fhir/StructureDefinition/data-absent-reason">
                     <valueCode value="masked"/>
                  </extension>
               </value>
            </identifier>
            <name>
               <extension url="http://hl7.org/fhir/StructureDefinition/humanname-assembly-order">
                  <valueCode value="NL1"/>
               </extension>
               <family value="XXX_Mulders">
                  <extension url="http://hl7.org/fhir/StructureDefinition/humanname-own-name">
                     <valueString value="XXX_Mulders"/>
                  </extension>
               </family>
               <given value="H.">
                  <extension url="http://hl7.org/fhir/StructureDefinition/iso21090-EN-qualifier">
                     <valueCode value="IN"/>
                  </extension>
               </given>
            </name>
            <gender value="male"/>
            <birthDate value="1985-12-30"/>
            <address>
               <line value="Knolweg 1003">
                  <extension url="http://hl7.org/fhir/StructureDefinition/iso21090-ADXP-streetName">
                     <valueString value="Knolweg"/>
                  </extension>
                  <extension url="http://hl7.org/fhir/StructureDefinition/iso21090-ADXP-houseNumber">
                     <valueString value="1003"/>
                  </extension>
               </line>
               <city value="STITSWERD"/>
               <postalCode value="9999ZA"/>
               <country value="Nederland"/>
            </address>
         </Patient>
      </resource>
      <search>
         <mode value="include"/>
      </search>
   </entry>
   <entry>
      <fullUrl value="urn:oid:2.16.528.1.1007.3.1.900016431"/>
      <resource>
         <Practitioner>
            <meta>
               <profile value="http://fhir.nl/fhir/StructureDefinition/nl-core-practitioner"/>
            </meta>
            <text>
               <status value="extensions"/>
               <div xmlns="http://www.w3.org/1999/xhtml">
                  <div>Id 900016431 (UZI-NR-PERS), Huisarts 1</div>
               </div>
            </text>
            <identifier>
               <system value="http://fhir.nl/fhir/NamingSystem/uzi-nr-pers"/>
               <value value="900016431"/>
            </identifier>
            <name>
               <extension url="http://hl7.org/fhir/StructureDefinition/humanname-assembly-order">
                  <valueCode value="NL1"/>
               </extension>
               <family value="Huisarts 1">
                  <extension url="http://hl7.org/fhir/StructureDefinition/humanname-own-name">
                     <valueString value="Huisarts 1"/>
                  </extension>
               </family>
            </name>
         </Practitioner>
      </resource>
      <search>
         <mode value="include"/>
      </search>
   </entry>
   <entry>
      <fullUrl value="urn:oid:2.16.528.1.1007.3.3.2727"/>
      <resource>
         <Organization>
            <meta>
               <profile value="http://fhir.nl/fhir/StructureDefinition/nl-core-organization"/>
            </meta>
            <text>
               <status value="extensions"/>
               <div xmlns="http://www.w3.org/1999/xhtml">
                  <table>
                     <caption>Organisatie. Id: 00002727 (URA)</caption>
                     <tbody>
                        <tr>
                           <th>Naam</th>
                           <td>Gezondheidscentrum Aesculaap</td>
                        </tr>
                     </tbody>
                  </table>
               </div>
            </text>
            <identifier>
               <system value="http://fhir.nl/fhir/NamingSystem/ura"/>
               <value value="00002727"/>
            </identifier>
            <name value="Gezondheidscentrum Aesculaap"/>
         </Organization>
      </resource>
      <search>
         <mode value="include"/>
      </search>
   </entry>
   <entry>
      <fullUrl value="urn:uuid:bc32b4b9-54b4-11eb-4949-020000000000"/>
      <resource>
         <PractitionerRole>
            <meta>
               <profile value="http://fhir.nl/fhir/StructureDefinition/nl-core-practitionerrole"/>
            </meta>
            <text>
               <status value="extensions"/>
               <div xmlns="http://www.w3.org/1999/xhtml">
                  <table>
                     <caption>Zorgverlenerrol. </caption>
                     <tbody>
                        <tr>
                           <th>Zorgverlener</th>
                           <td>
                              <div>Huisarts 1</div>
                              <div>Gezondheidscentrum Aesculaap</div>
                           </td>
                        </tr>
                        <tr>
                           <th>Specialisme</th>
                           <td>01.015 (http://fhir.nl/fhir/NamingSystem/uzi-rolcode)</td>
                        </tr>
                     </tbody>
                  </table>
               </div>
            </text>
            <practitioner>
               <reference value="urn:oid:2.16.528.1.1007.3.1.900016431"/>
               <display value="Huisarts 1"/>
            </practitioner>
            <organization>
               <reference value="urn:oid:2.16.528.1.1007.3.3.2727"/>
               <display value="Gezondheidscentrum Aesculaap"/>
            </organization>
            <specialty>
               <coding>
                  <system value="http://fhir.nl/fhir/NamingSystem/uzi-rolcode"/>
                  <code value="01.015"/>
               </coding>
            </specialty>
         </PractitionerRole>
      </resource>
      <search>
         <mode value="include"/>
      </search>
   </entry>
   <entry>
      <fullUrl value="urn:uuid:bc32b4c7-54b4-11eb-4949-020000000000"/>
      <resource>
         <Observation>
            <meta>
               <profile value="http://nictiz.nl/fhir/StructureDefinition/gp-JournalEntry"/>
            </meta>
            <text>
               <status value="extensions"/>
               <div xmlns="http://www.w3.org/1999/xhtml">
                  <table>
                     <caption>Observatie/bepaling. Subject: H. XXX_Mulders. Status: definitief</caption>
                     <tbody>
                        <tr>
                           <th>Context</th>
                           <td>Contact ID: MedMijHG_contactmoment09 2.16.840.1.113883.2.4.3.111.19.1 (Id: MedMijHG_contactmoment09 (urn:oid:2.16.840.1.113883.2.4.3.111.19.1))</td>
                        </tr>
                        <tr>
                           <th>Code</th>
                           <th>Waarde</th>
                        </tr>
                        <tr>
                           <td>
                              <span title="Evaluatie (E - http://fhir.nl/fhir/NamingSystem/journaalregeltypen)">Evaluatie</span>
                           </td>
                           <td>Mycose</td>
                        </tr>
                        <tr>
                           <td>
                              <span title="discharge diagnosis (DISDX - v3/ActCode)">discharge diagnosis</span>
                           </td>
                           <td>
                              <span title="Tinea Pedis (S74.01 - sid/icpc-1-nl)">Tinea Pedis</span>
                           </td>
                        </tr>
                     </tbody>
                  </table>
               </div>
            </text>
            <status value="final"/>
            <code>
               <coding>
                  <system value="http://fhir.nl/fhir/NamingSystem/journaalregeltypen"/>
                  <code value="E"/>
                  <display value="Evaluatie"/>
               </coding>
            </code>
            <subject>
               <reference value="urn:uuid:bc32b4a6-54b4-11eb-4949-020000000000"/>
               <display value="H. XXX_Mulders"/>
            </subject>
            <context>
               <identifier>
                  <system value="urn:oid:2.16.840.1.113883.2.4.3.111.19.1"/>
                  <value value="MedMijHG_contactmoment09"/>
               </identifier>
               <display value="Contact ID: MedMijHG_contactmoment09 2.16.840.1.113883.2.4.3.111.19.1"/>
            </context>
            <valueString value="Mycose"/>
            <component>
               <code>
                  <coding>
                     <system value="http://hl7.org/fhir/v3/ActCode"/>
                     <code value="DISDX"/>
                     <display value="discharge diagnosis"/>
                  </coding>
               </code>
               <valueCodeableConcept>
                  <coding>
                     <system value="http://hl7.org/fhir/sid/icpc-1-nl"/>
                     <code value="S74.01"/>
                     <display value="Tinea Pedis"/>
                  </coding>
               </valueCodeableConcept>
            </component>
         </Observation>
      </resource>
      <search>
         <mode value="include"/>
      </search>
   </entry>
   <entry>
      <fullUrl value="urn:uuid:bc32b4d1-54b4-11eb-4949-020000000000"/>
      <resource>
         <Observation>
            <meta>
               <profile value="http://nictiz.nl/fhir/StructureDefinition/gp-JournalEntry"/>
            </meta>
            <text>
               <status value="extensions"/>
               <div xmlns="http://www.w3.org/1999/xhtml">
                  <table>
                     <caption>Observatie/bepaling. Subject: H. XXX_Mulders. Status: definitief</caption>
                     <tbody>
                        <tr>
                           <th>Context</th>
                           <td>Contact ID: MedMijHG_contactmoment09 2.16.840.1.113883.2.4.3.111.19.1 (Id: MedMijHG_contactmoment09 (urn:oid:2.16.840.1.113883.2.4.3.111.19.1))</td>
                        </tr>
                        <tr>
                           <th>Code</th>
                           <th>Waarde</th>
                        </tr>
                        <tr>
                           <td>
                              <span title="Plan (P - http://fhir.nl/fhir/NamingSystem/journaalregeltypen)">Plan</span>
                           </td>
                           <td>Heeft nog canesten via drogist; 2x daags gebruiken.</td>
                        </tr>
                     </tbody>
                  </table>
               </div>
            </text>
            <status value="final"/>
            <code>
               <coding>
                  <system value="http://fhir.nl/fhir/NamingSystem/journaalregeltypen"/>
                  <code value="P"/>
                  <display value="Plan"/>
               </coding>
            </code>
            <subject>
               <reference value="urn:uuid:bc32b4a6-54b4-11eb-4949-020000000000"/>
               <display value="H. XXX_Mulders"/>
            </subject>
            <context>
               <identifier>
                  <system value="urn:oid:2.16.840.1.113883.2.4.3.111.19.1"/>
                  <value value="MedMijHG_contactmoment09"/>
               </identifier>
               <display value="Contact ID: MedMijHG_contactmoment09 2.16.840.1.113883.2.4.3.111.19.1"/>
            </context>
            <valueString value="Heeft nog canesten via drogist; 2x daags gebruiken."/>
         </Observation>
      </resource>
      <search>
         <mode value="include"/>
      </search>
   </entry>
   <entry>
      <fullUrl value="urn:uuid:bc32b4e6-54b4-11eb-4949-020000000000"/>
      <resource>
         <Observation>
            <meta>
               <profile value="http://nictiz.nl/fhir/StructureDefinition/gp-JournalEntry"/>
            </meta>
            <text>
               <status value="extensions"/>
               <div xmlns="http://www.w3.org/1999/xhtml">
                  <table>
                     <caption>Observatie/bepaling. Subject: H. XXX_Mulders. Status: definitief</caption>
                     <tbody>
                        <tr>
                           <th>Context</th>
                           <td>Contact ID: MedMijHG_contactmoment16 2.16.840.1.113883.2.4.3.111.19.1 (Id: MedMijHG_contactmoment16 (urn:oid:2.16.840.1.113883.2.4.3.111.19.1))</td>
                        </tr>
                        <tr>
                           <th>Code</th>
                           <th>Waarde</th>
                        </tr>
                        <tr>
                           <td>
                              <span title="Evaluatie (E - http://fhir.nl/fhir/NamingSystem/journaalregeltypen)">Evaluatie</span>
                           </td>
                           <td>HNP</td>
                        </tr>
                        <tr>
                           <td>
                              <span title="discharge diagnosis (DISDX - v3/ActCode)">discharge diagnosis</span>
                           </td>
                           <td>
                              <span title="HNP (thoracaal/lumbaal) (L86.01 - sid/icpc-1-nl)">HNP (thoracaal/lumbaal)</span>
                           </td>
                        </tr>
                     </tbody>
                  </table>
               </div>
            </text>
            <status value="final"/>
            <code>
               <coding>
                  <system value="http://fhir.nl/fhir/NamingSystem/journaalregeltypen"/>
                  <code value="E"/>
                  <display value="Evaluatie"/>
               </coding>
            </code>
            <subject>
               <reference value="urn:uuid:bc32b4a6-54b4-11eb-4949-020000000000"/>
               <display value="H. XXX_Mulders"/>
            </subject>
            <context>
               <identifier>
                  <system value="urn:oid:2.16.840.1.113883.2.4.3.111.19.1"/>
                  <value value="MedMijHG_contactmoment16"/>
               </identifier>
               <display value="Contact ID: MedMijHG_contactmoment16 2.16.840.1.113883.2.4.3.111.19.1"/>
            </context>
            <valueString value="HNP"/>
            <component>
               <code>
                  <coding>
                     <system value="http://hl7.org/fhir/v3/ActCode"/>
                     <code value="DISDX"/>
                     <display value="discharge diagnosis"/>
                  </coding>
               </code>
               <valueCodeableConcept>
                  <coding>
                     <system value="http://hl7.org/fhir/sid/icpc-1-nl"/>
                     <code value="L86.01"/>
                     <display value="HNP (thoracaal/lumbaal)"/>
                  </coding>
               </valueCodeableConcept>
            </component>
         </Observation>
      </resource>
      <search>
         <mode value="include"/>
      </search>
   </entry>
   <entry>
      <fullUrl value="urn:uuid:bc32b4f0-54b4-11eb-4949-020000000000"/>
      <resource>
         <Observation>
            <meta>
               <profile value="http://nictiz.nl/fhir/StructureDefinition/gp-JournalEntry"/>
            </meta>
            <text>
               <status value="extensions"/>
               <div xmlns="http://www.w3.org/1999/xhtml">
                  <table>
                     <caption>Observatie/bepaling. Subject: H. XXX_Mulders. Status: definitief</caption>
                     <tbody>
                        <tr>
                           <th>Context</th>
                           <td>Contact ID: MedMijHG_contactmoment16 2.16.840.1.113883.2.4.3.111.19.1 (Id: MedMijHG_contactmoment16 (urn:oid:2.16.840.1.113883.2.4.3.111.19.1))</td>
                        </tr>
                        <tr>
                           <th>Code</th>
                           <th>Waarde</th>
                        </tr>
                        <tr>
                           <td>
                              <span title="Plan (P - http://fhir.nl/fhir/NamingSystem/journaalregeltypen)">Plan</span>
                           </td>
                           <td>Patiënt geïnformeerd, ziet het nog even aan.</td>
                        </tr>
                     </tbody>
                  </table>
               </div>
            </text>
            <status value="final"/>
            <code>
               <coding>
                  <system value="http://fhir.nl/fhir/NamingSystem/journaalregeltypen"/>
                  <code value="P"/>
                  <display value="Plan"/>
               </coding>
            </code>
            <subject>
               <reference value="urn:uuid:bc32b4a6-54b4-11eb-4949-020000000000"/>
               <display value="H. XXX_Mulders"/>
            </subject>
            <context>
               <identifier>
                  <system value="urn:oid:2.16.840.1.113883.2.4.3.111.19.1"/>
                  <value value="MedMijHG_contactmoment16"/>
               </identifier>
               <display value="Contact ID: MedMijHG_contactmoment16 2.16.840.1.113883.2.4.3.111.19.1"/>
            </context>
            <valueString value="Patiënt geïnformeerd, ziet het nog even aan."/>
         </Observation>
      </resource>
      <search>
         <mode value="include"/>
      </search>
   </entry>
   <entry>
      <fullUrl value="urn:uuid:bc329ccd-54b4-11eb-4949-020000000000"/>
      <resource>
         <Observation>
            <meta>
               <profile value="http://nictiz.nl/fhir/StructureDefinition/gp-JournalEntry"/>
            </meta>
            <text>
               <status value="extensions"/>
               <div xmlns="http://www.w3.org/1999/xhtml">
                  <table>
                     <caption>Observatie/bepaling. Subject: H. XXX_Mulders. Status: definitief</caption>
                     <tbody>
                        <tr>
                           <th>Context</th>
                           <td>Contact ID: MedMijHG_contactmoment13 2.16.840.1.113883.2.4.3.111.19.1 (Id: MedMijHG_contactmoment13 (urn:oid:2.16.840.1.113883.2.4.3.111.19.1))</td>
                        </tr>
                        <tr>
                           <th>Code</th>
                           <th>Waarde</th>
                        </tr>
                        <tr>
                           <td>
                              <span title="Evaluatie (E - http://fhir.nl/fhir/NamingSystem/journaalregeltypen)">Evaluatie</span>
                           </td>
                           <td>Keelpijn eci.</td>
                        </tr>
                        <tr>
                           <td>
                              <span title="discharge diagnosis (DISDX - v3/ActCode)">discharge diagnosis</span>
                           </td>
                           <td>
                              <span title="Keelpijn (R21.01 - sid/icpc-1-nl)">Keelpijn</span>
                           </td>
                        </tr>
                     </tbody>
                  </table>
               </div>
            </text>
            <status value="final"/>
            <code>
               <coding>
                  <system value="http://fhir.nl/fhir/NamingSystem/journaalregeltypen"/>
                  <code value="E"/>
                  <display value="Evaluatie"/>
               </coding>
            </code>
            <subject>
               <reference value="urn:uuid:bc32b4a6-54b4-11eb-4949-020000000000"/>
               <display value="H. XXX_Mulders"/>
            </subject>
            <context>
               <identifier>
                  <system value="urn:oid:2.16.840.1.113883.2.4.3.111.19.1"/>
                  <value value="MedMijHG_contactmoment13"/>
               </identifier>
               <display value="Contact ID: MedMijHG_contactmoment13 2.16.840.1.113883.2.4.3.111.19.1"/>
            </context>
            <valueString value="Keelpijn eci."/>
            <component>
               <code>
                  <coding>
                     <system value="http://hl7.org/fhir/v3/ActCode"/>
                     <code value="DISDX"/>
                     <display value="discharge diagnosis"/>
                  </coding>
               </code>
               <valueCodeableConcept>
                  <coding>
                     <system value="http://hl7.org/fhir/sid/icpc-1-nl"/>
                     <code value="R21.01"/>
                     <display value="Keelpijn"/>
                  </coding>
               </valueCodeableConcept>
            </component>
         </Observation>
      </resource>
      <search>
         <mode value="include"/>
      </search>
   </entry>
   <entry>
      <fullUrl value="urn:uuid:bc329cea-54b4-11eb-4949-020000000000"/>
      <resource>
         <Observation>
            <meta>
               <profile value="http://nictiz.nl/fhir/StructureDefinition/gp-JournalEntry"/>
            </meta>
            <text>
               <status value="extensions"/>
               <div xmlns="http://www.w3.org/1999/xhtml">
                  <table>
                     <caption>Observatie/bepaling. Subject: H. XXX_Mulders. Status: definitief</caption>
                     <tbody>
                        <tr>
                           <th>Context</th>
                           <td>Contact ID: MedMijHG_contactmoment17 2.16.840.1.113883.2.4.3.111.19.1 (Id: MedMijHG_contactmoment17 (urn:oid:2.16.840.1.113883.2.4.3.111.19.1))</td>
                        </tr>
                        <tr>
                           <th>Code</th>
                           <th>Waarde</th>
                        </tr>
                        <tr>
                           <td>
                              <span title="Evaluatie (E - http://fhir.nl/fhir/NamingSystem/journaalregeltypen)">Evaluatie</span>
                           </td>
                           <td>HNP</td>
                        </tr>
                        <tr>
                           <td>
                              <span title="discharge diagnosis (DISDX - v3/ActCode)">discharge diagnosis</span>
                           </td>
                           <td>
                              <span title="HNP (thoracaal/lumbaal) (L86.01 - sid/icpc-1-nl)">HNP (thoracaal/lumbaal)</span>
                           </td>
                        </tr>
                     </tbody>
                  </table>
               </div>
            </text>
            <status value="final"/>
            <code>
               <coding>
                  <system value="http://fhir.nl/fhir/NamingSystem/journaalregeltypen"/>
                  <code value="E"/>
                  <display value="Evaluatie"/>
               </coding>
            </code>
            <subject>
               <reference value="urn:uuid:bc32b4a6-54b4-11eb-4949-020000000000"/>
               <display value="H. XXX_Mulders"/>
            </subject>
            <context>
               <identifier>
                  <system value="urn:oid:2.16.840.1.113883.2.4.3.111.19.1"/>
                  <value value="MedMijHG_contactmoment17"/>
               </identifier>
               <display value="Contact ID: MedMijHG_contactmoment17 2.16.840.1.113883.2.4.3.111.19.1"/>
            </context>
            <valueString value="HNP"/>
            <component>
               <code>
                  <coding>
                     <system value="http://hl7.org/fhir/v3/ActCode"/>
                     <code value="DISDX"/>
                     <display value="discharge diagnosis"/>
                  </coding>
               </code>
               <valueCodeableConcept>
                  <coding>
                     <system value="http://hl7.org/fhir/sid/icpc-1-nl"/>
                     <code value="L86.01"/>
                     <display value="HNP (thoracaal/lumbaal)"/>
                  </coding>
               </valueCodeableConcept>
            </component>
         </Observation>
      </resource>
      <search>
         <mode value="include"/>
      </search>
   </entry>
   <entry>
      <fullUrl value="urn:uuid:bc329cf4-54b4-11eb-4949-020000000000"/>
      <resource>
         <Observation>
            <meta>
               <profile value="http://nictiz.nl/fhir/StructureDefinition/gp-JournalEntry"/>
            </meta>
            <text>
               <status value="extensions"/>
               <div xmlns="http://www.w3.org/1999/xhtml">
                  <table>
                     <caption>Observatie/bepaling. Subject: H. XXX_Mulders. Status: definitief</caption>
                     <tbody>
                        <tr>
                           <th>Context</th>
                           <td>Contact ID: MedMijHG_contactmoment17 2.16.840.1.113883.2.4.3.111.19.1 (Id: MedMijHG_contactmoment17 (urn:oid:2.16.840.1.113883.2.4.3.111.19.1))</td>
                        </tr>
                        <tr>
                           <th>Code</th>
                           <th>Waarde</th>
                        </tr>
                        <tr>
                           <td>
                              <span title="Plan (P - http://fhir.nl/fhir/NamingSystem/journaalregeltypen)">Plan</span>
                           </td>
                           <td>Nogmaals verwijzing Cesar</td>
                        </tr>
                     </tbody>
                  </table>
               </div>
            </text>
            <status value="final"/>
            <code>
               <coding>
                  <system value="http://fhir.nl/fhir/NamingSystem/journaalregeltypen"/>
                  <code value="P"/>
                  <display value="Plan"/>
               </coding>
            </code>
            <subject>
               <reference value="urn:uuid:bc32b4a6-54b4-11eb-4949-020000000000"/>
               <display value="H. XXX_Mulders"/>
            </subject>
            <context>
               <identifier>
                  <system value="urn:oid:2.16.840.1.113883.2.4.3.111.19.1"/>
                  <value value="MedMijHG_contactmoment17"/>
               </identifier>
               <display value="Contact ID: MedMijHG_contactmoment17 2.16.840.1.113883.2.4.3.111.19.1"/>
            </context>
            <valueString value="Nogmaals verwijzing Cesar"/>
         </Observation>
      </resource>
      <search>
         <mode value="include"/>
      </search>
   </entry>
   <entry>
      <fullUrl value="urn:uuid:bc329d09-54b4-11eb-4949-020000000000"/>
      <resource>
         <Observation>
            <meta>
               <profile value="http://nictiz.nl/fhir/StructureDefinition/gp-JournalEntry"/>
            </meta>
            <text>
               <status value="extensions"/>
               <div xmlns="http://www.w3.org/1999/xhtml">
                  <table>
                     <caption>Observatie/bepaling. Subject: H. XXX_Mulders. Status: definitief</caption>
                     <tbody>
                        <tr>
                           <th>Context</th>
                           <td>Contact ID: MedMijHG_contactmoment12 2.16.840.1.113883.2.4.3.111.19.1 (Id: MedMijHG_contactmoment12 (urn:oid:2.16.840.1.113883.2.4.3.111.19.1))</td>
                        </tr>
                        <tr>
                           <th>Code</th>
                           <th>Waarde</th>
                        </tr>
                        <tr>
                           <td>
                              <span title="Evaluatie (E - http://fhir.nl/fhir/NamingSystem/journaalregeltypen)">Evaluatie</span>
                           </td>
                           <td>Keelpijn eci.</td>
                        </tr>
                        <tr>
                           <td>
                              <span title="discharge diagnosis (DISDX - v3/ActCode)">discharge diagnosis</span>
                           </td>
                           <td>
                              <span title="Keelpijn (R21.01 - sid/icpc-1-nl)">Keelpijn</span>
                           </td>
                        </tr>
                     </tbody>
                  </table>
               </div>
            </text>
            <status value="final"/>
            <code>
               <coding>
                  <system value="http://fhir.nl/fhir/NamingSystem/journaalregeltypen"/>
                  <code value="E"/>
                  <display value="Evaluatie"/>
               </coding>
            </code>
            <subject>
               <reference value="urn:uuid:bc32b4a6-54b4-11eb-4949-020000000000"/>
               <display value="H. XXX_Mulders"/>
            </subject>
            <context>
               <identifier>
                  <system value="urn:oid:2.16.840.1.113883.2.4.3.111.19.1"/>
                  <value value="MedMijHG_contactmoment12"/>
               </identifier>
               <display value="Contact ID: MedMijHG_contactmoment12 2.16.840.1.113883.2.4.3.111.19.1"/>
            </context>
            <valueString value="Keelpijn eci."/>
            <component>
               <code>
                  <coding>
                     <system value="http://hl7.org/fhir/v3/ActCode"/>
                     <code value="DISDX"/>
                     <display value="discharge diagnosis"/>
                  </coding>
               </code>
               <valueCodeableConcept>
                  <coding>
                     <system value="http://hl7.org/fhir/sid/icpc-1-nl"/>
                     <code value="R21.01"/>
                     <display value="Keelpijn"/>
                  </coding>
               </valueCodeableConcept>
            </component>
         </Observation>
      </resource>
      <search>
         <mode value="include"/>
      </search>
   </entry>
   <entry>
      <fullUrl value="urn:uuid:bc329d13-54b4-11eb-4949-020000000000"/>
      <resource>
         <Observation>
            <meta>
               <profile value="http://nictiz.nl/fhir/StructureDefinition/gp-JournalEntry"/>
            </meta>
            <text>
               <status value="extensions"/>
               <div xmlns="http://www.w3.org/1999/xhtml">
                  <table>
                     <caption>Observatie/bepaling. Subject: H. XXX_Mulders. Status: definitief</caption>
                     <tbody>
                        <tr>
                           <th>Context</th>
                           <td>Contact ID: MedMijHG_contactmoment12 2.16.840.1.113883.2.4.3.111.19.1 (Id: MedMijHG_contactmoment12 (urn:oid:2.16.840.1.113883.2.4.3.111.19.1))</td>
                        </tr>
                        <tr>
                           <th>Code</th>
                           <th>Waarde</th>
                        </tr>
                        <tr>
                           <td>
                              <span title="Plan (P - http://fhir.nl/fhir/NamingSystem/journaalregeltypen)">Plan</span>
                           </td>
                           <td>Bezoek brengen aan de tandarts, wellicht zit er daar iets.</td>
                        </tr>
                     </tbody>
                  </table>
               </div>
            </text>
            <status value="final"/>
            <code>
               <coding>
                  <system value="http://fhir.nl/fhir/NamingSystem/journaalregeltypen"/>
                  <code value="P"/>
                  <display value="Plan"/>
               </coding>
            </code>
            <subject>
               <reference value="urn:uuid:bc32b4a6-54b4-11eb-4949-020000000000"/>
               <display value="H. XXX_Mulders"/>
            </subject>
            <context>
               <identifier>
                  <system value="urn:oid:2.16.840.1.113883.2.4.3.111.19.1"/>
                  <value value="MedMijHG_contactmoment12"/>
               </identifier>
               <display value="Contact ID: MedMijHG_contactmoment12 2.16.840.1.113883.2.4.3.111.19.1"/>
            </context>
            <valueString value="Bezoek brengen aan de tandarts, wellicht zit er daar iets."/>
         </Observation>
      </resource>
      <search>
         <mode value="include"/>
      </search>
   </entry>
   <entry>
      <fullUrl value="urn:uuid:bc329d28-54b4-11eb-4949-020000000000"/>
      <resource>
         <Observation>
            <meta>
               <profile value="http://nictiz.nl/fhir/StructureDefinition/gp-JournalEntry"/>
            </meta>
            <text>
               <status value="extensions"/>
               <div xmlns="http://www.w3.org/1999/xhtml">
                  <table>
                     <caption>Observatie/bepaling. Subject: H. XXX_Mulders. Status: definitief</caption>
                     <tbody>
                        <tr>
                           <th>Context</th>
                           <td>Contact ID: MedMijHG_contactmoment15 2.16.840.1.113883.2.4.3.111.19.1 (Id: MedMijHG_contactmoment15 (urn:oid:2.16.840.1.113883.2.4.3.111.19.1))</td>
                        </tr>
                        <tr>
                           <th>Code</th>
                           <th>Waarde</th>
                        </tr>
                        <tr>
                           <td>
                              <span title="Evaluatie (E - http://fhir.nl/fhir/NamingSystem/journaalregeltypen)">Evaluatie</span>
                           </td>
                           <td>HNP</td>
                        </tr>
                        <tr>
                           <td>
                              <span title="discharge diagnosis (DISDX - v3/ActCode)">discharge diagnosis</span>
                           </td>
                           <td>
                              <span title="HNP (thoracaal/lumbaal) (L86.01 - sid/icpc-1-nl)">HNP (thoracaal/lumbaal)</span>
                           </td>
                        </tr>
                     </tbody>
                  </table>
               </div>
            </text>
            <status value="final"/>
            <code>
               <coding>
                  <system value="http://fhir.nl/fhir/NamingSystem/journaalregeltypen"/>
                  <code value="E"/>
                  <display value="Evaluatie"/>
               </coding>
            </code>
            <subject>
               <reference value="urn:uuid:bc32b4a6-54b4-11eb-4949-020000000000"/>
               <display value="H. XXX_Mulders"/>
            </subject>
            <context>
               <identifier>
                  <system value="urn:oid:2.16.840.1.113883.2.4.3.111.19.1"/>
                  <value value="MedMijHG_contactmoment15"/>
               </identifier>
               <display value="Contact ID: MedMijHG_contactmoment15 2.16.840.1.113883.2.4.3.111.19.1"/>
            </context>
            <valueString value="HNP"/>
            <component>
               <code>
                  <coding>
                     <system value="http://hl7.org/fhir/v3/ActCode"/>
                     <code value="DISDX"/>
                     <display value="discharge diagnosis"/>
                  </coding>
               </code>
               <valueCodeableConcept>
                  <coding>
                     <system value="http://hl7.org/fhir/sid/icpc-1-nl"/>
                     <code value="L86.01"/>
                     <display value="HNP (thoracaal/lumbaal)"/>
                  </coding>
               </valueCodeableConcept>
            </component>
         </Observation>
      </resource>
      <search>
         <mode value="include"/>
      </search>
   </entry>
   <entry>
      <fullUrl value="urn:uuid:bc329d32-54b4-11eb-4949-020000000000"/>
      <resource>
         <Observation>
            <meta>
               <profile value="http://nictiz.nl/fhir/StructureDefinition/gp-JournalEntry"/>
            </meta>
            <text>
               <status value="extensions"/>
               <div xmlns="http://www.w3.org/1999/xhtml">
                  <table>
                     <caption>Observatie/bepaling. Subject: H. XXX_Mulders. Status: definitief</caption>
                     <tbody>
                        <tr>
                           <th>Context</th>
                           <td>Contact ID: MedMijHG_contactmoment15 2.16.840.1.113883.2.4.3.111.19.1 (Id: MedMijHG_contactmoment15 (urn:oid:2.16.840.1.113883.2.4.3.111.19.1))</td>
                        </tr>
                        <tr>
                           <th>Code</th>
                           <th>Waarde</th>
                        </tr>
                        <tr>
                           <td>
                              <span title="Plan (P - http://fhir.nl/fhir/NamingSystem/journaalregeltypen)">Plan</span>
                           </td>
                           <td>Scan laten maken, afspraak gepland.</td>
                        </tr>
                     </tbody>
                  </table>
               </div>
            </text>
            <status value="final"/>
            <code>
               <coding>
                  <system value="http://fhir.nl/fhir/NamingSystem/journaalregeltypen"/>
                  <code value="P"/>
                  <display value="Plan"/>
               </coding>
            </code>
            <subject>
               <reference value="urn:uuid:bc32b4a6-54b4-11eb-4949-020000000000"/>
               <display value="H. XXX_Mulders"/>
            </subject>
            <context>
               <identifier>
                  <system value="urn:oid:2.16.840.1.113883.2.4.3.111.19.1"/>
                  <value value="MedMijHG_contactmoment15"/>
               </identifier>
               <display value="Contact ID: MedMijHG_contactmoment15 2.16.840.1.113883.2.4.3.111.19.1"/>
            </context>
            <valueString value="Scan laten maken, afspraak gepland."/>
         </Observation>
      </resource>
      <search>
         <mode value="include"/>
      </search>
   </entry>
   <entry>
      <fullUrl value="urn:uuid:bc329d47-54b4-11eb-4949-020000000000"/>
      <resource>
         <Observation>
            <meta>
               <profile value="http://nictiz.nl/fhir/StructureDefinition/gp-JournalEntry"/>
            </meta>
            <text>
               <status value="extensions"/>
               <div xmlns="http://www.w3.org/1999/xhtml">
                  <table>
                     <caption>Observatie/bepaling. Subject: H. XXX_Mulders. Status: definitief</caption>
                     <tbody>
                        <tr>
                           <th>Context</th>
                           <td>Contact ID: MedMijHG_contactmoment14 2.16.840.1.113883.2.4.3.111.19.1 (Id: MedMijHG_contactmoment14 (urn:oid:2.16.840.1.113883.2.4.3.111.19.1))</td>
                        </tr>
                        <tr>
                           <th>Code</th>
                           <th>Waarde</th>
                        </tr>
                        <tr>
                           <td>
                              <span title="Evaluatie (E - http://fhir.nl/fhir/NamingSystem/journaalregeltypen)">Evaluatie</span>
                           </td>
                           <td>Lage rugpijn</td>
                        </tr>
                        <tr>
                           <td>
                              <span title="discharge diagnosis (DISDX - v3/ActCode)">discharge diagnosis</span>
                           </td>
                           <td>
                              <span title="lage rugpijn (L03 - sid/icpc-1-nl)">lage rugpijn</span>
                           </td>
                        </tr>
                     </tbody>
                  </table>
               </div>
            </text>
            <status value="final"/>
            <code>
               <coding>
                  <system value="http://fhir.nl/fhir/NamingSystem/journaalregeltypen"/>
                  <code value="E"/>
                  <display value="Evaluatie"/>
               </coding>
            </code>
            <subject>
               <reference value="urn:uuid:bc32b4a6-54b4-11eb-4949-020000000000"/>
               <display value="H. XXX_Mulders"/>
            </subject>
            <context>
               <identifier>
                  <system value="urn:oid:2.16.840.1.113883.2.4.3.111.19.1"/>
                  <value value="MedMijHG_contactmoment14"/>
               </identifier>
               <display value="Contact ID: MedMijHG_contactmoment14 2.16.840.1.113883.2.4.3.111.19.1"/>
            </context>
            <valueString value="Lage rugpijn"/>
            <component>
               <code>
                  <coding>
                     <system value="http://hl7.org/fhir/v3/ActCode"/>
                     <code value="DISDX"/>
                     <display value="discharge diagnosis"/>
                  </coding>
               </code>
               <valueCodeableConcept>
                  <coding>
                     <system value="http://hl7.org/fhir/sid/icpc-1-nl"/>
                     <code value="L03"/>
                     <display value="lage rugpijn"/>
                  </coding>
               </valueCodeableConcept>
            </component>
         </Observation>
      </resource>
      <search>
         <mode value="include"/>
      </search>
   </entry>
   <entry>
      <fullUrl value="urn:uuid:bc329d51-54b4-11eb-4949-020000000000"/>
      <resource>
         <Observation>
            <meta>
               <profile value="http://nictiz.nl/fhir/StructureDefinition/gp-JournalEntry"/>
            </meta>
            <text>
               <status value="extensions"/>
               <div xmlns="http://www.w3.org/1999/xhtml">
                  <table>
                     <caption>Observatie/bepaling. Subject: H. XXX_Mulders. Status: definitief</caption>
                     <tbody>
                        <tr>
                           <th>Context</th>
                           <td>Contact ID: MedMijHG_contactmoment14 2.16.840.1.113883.2.4.3.111.19.1 (Id: MedMijHG_contactmoment14 (urn:oid:2.16.840.1.113883.2.4.3.111.19.1))</td>
                        </tr>
                        <tr>
                           <th>Code</th>
                           <th>Waarde</th>
                        </tr>
                        <tr>
                           <td>
                              <span title="Plan (P - http://fhir.nl/fhir/NamingSystem/journaalregeltypen)">Plan</span>
                           </td>
                           <td>Cesar of Mensendieck. Verwijzing aangemaakt</td>
                        </tr>
                     </tbody>
                  </table>
               </div>
            </text>
            <status value="final"/>
            <code>
               <coding>
                  <system value="http://fhir.nl/fhir/NamingSystem/journaalregeltypen"/>
                  <code value="P"/>
                  <display value="Plan"/>
               </coding>
            </code>
            <subject>
               <reference value="urn:uuid:bc32b4a6-54b4-11eb-4949-020000000000"/>
               <display value="H. XXX_Mulders"/>
            </subject>
            <context>
               <identifier>
                  <system value="urn:oid:2.16.840.1.113883.2.4.3.111.19.1"/>
                  <value value="MedMijHG_contactmoment14"/>
               </identifier>
               <display value="Contact ID: MedMijHG_contactmoment14 2.16.840.1.113883.2.4.3.111.19.1"/>
            </context>
            <valueString value="Cesar of Mensendieck. Verwijzing aangemaakt"/>
         </Observation>
      </resource>
      <search>
         <mode value="include"/>
      </search>
   </entry>
   <entry>
      <fullUrl value="urn:uuid:bc329d66-54b4-11eb-4949-020000000000"/>
      <resource>
         <Observation>
            <meta>
               <profile value="http://nictiz.nl/fhir/StructureDefinition/gp-JournalEntry"/>
            </meta>
            <text>
               <status value="extensions"/>
               <div xmlns="http://www.w3.org/1999/xhtml">
                  <table>
                     <caption>Observatie/bepaling. Subject: H. XXX_Mulders. Status: definitief</caption>
                     <tbody>
                        <tr>
                           <th>Context</th>
                           <td>Contact ID: MedMijHG_contactmoment07 2.16.840.1.113883.2.4.3.111.19.1 (Id: MedMijHG_contactmoment07 (urn:oid:2.16.840.1.113883.2.4.3.111.19.1))</td>
                        </tr>
                        <tr>
                           <th>Code</th>
                           <th>Waarde</th>
                        </tr>
                        <tr>
                           <td>
                              <span title="Evaluatie (E - http://fhir.nl/fhir/NamingSystem/journaalregeltypen)">Evaluatie</span>
                           </td>
                           <td>Maag/duodenum problemen?</td>
                        </tr>
                        <tr>
                           <td>
                              <span title="discharge diagnosis (DISDX - v3/ActCode)">discharge diagnosis</span>
                           </td>
                           <td>
                              <span title="Maagpijn (D02 - sid/icpc-1-nl)">Maagpijn</span>
                           </td>
                        </tr>
                     </tbody>
                  </table>
               </div>
            </text>
            <status value="final"/>
            <code>
               <coding>
                  <system value="http://fhir.nl/fhir/NamingSystem/journaalregeltypen"/>
                  <code value="E"/>
                  <display value="Evaluatie"/>
               </coding>
            </code>
            <subject>
               <reference value="urn:uuid:bc32b4a6-54b4-11eb-4949-020000000000"/>
               <display value="H. XXX_Mulders"/>
            </subject>
            <context>
               <identifier>
                  <system value="urn:oid:2.16.840.1.113883.2.4.3.111.19.1"/>
                  <value value="MedMijHG_contactmoment07"/>
               </identifier>
               <display value="Contact ID: MedMijHG_contactmoment07 2.16.840.1.113883.2.4.3.111.19.1"/>
            </context>
            <valueString value="Maag/duodenum problemen?"/>
            <component>
               <code>
                  <coding>
                     <system value="http://hl7.org/fhir/v3/ActCode"/>
                     <code value="DISDX"/>
                     <display value="discharge diagnosis"/>
                  </coding>
               </code>
               <valueCodeableConcept>
                  <coding>
                     <system value="http://hl7.org/fhir/sid/icpc-1-nl"/>
                     <code value="D02"/>
                     <display value="Maagpijn"/>
                  </coding>
               </valueCodeableConcept>
            </component>
         </Observation>
      </resource>
      <search>
         <mode value="include"/>
      </search>
   </entry>
   <entry>
      <fullUrl value="urn:uuid:bc329d83-54b4-11eb-4949-020000000000"/>
      <resource>
         <Observation>
            <meta>
               <profile value="http://nictiz.nl/fhir/StructureDefinition/gp-JournalEntry"/>
            </meta>
            <text>
               <status value="extensions"/>
               <div xmlns="http://www.w3.org/1999/xhtml">
                  <table>
                     <caption>Observatie/bepaling. Subject: H. XXX_Mulders. Status: definitief</caption>
                     <tbody>
                        <tr>
                           <th>Context</th>
                           <td>Contact ID: MedMijHG_contactmoment10 2.16.840.1.113883.2.4.3.111.19.1 (Id: MedMijHG_contactmoment10 (urn:oid:2.16.840.1.113883.2.4.3.111.19.1))</td>
                        </tr>
                        <tr>
                           <th>Code</th>
                           <th>Waarde</th>
                        </tr>
                        <tr>
                           <td>
                              <span title="Evaluatie (E - http://fhir.nl/fhir/NamingSystem/journaalregeltypen)">Evaluatie</span>
                           </td>
                           <td>Keelpijn eci.</td>
                        </tr>
                        <tr>
                           <td>
                              <span title="discharge diagnosis (DISDX - v3/ActCode)">discharge diagnosis</span>
                           </td>
                           <td>
                              <span title="Keelpijn (R21.01 - sid/icpc-1-nl)">Keelpijn</span>
                           </td>
                        </tr>
                     </tbody>
                  </table>
               </div>
            </text>
            <status value="final"/>
            <code>
               <coding>
                  <system value="http://fhir.nl/fhir/NamingSystem/journaalregeltypen"/>
                  <code value="E"/>
                  <display value="Evaluatie"/>
               </coding>
            </code>
            <subject>
               <reference value="urn:uuid:bc32b4a6-54b4-11eb-4949-020000000000"/>
               <display value="H. XXX_Mulders"/>
            </subject>
            <context>
               <identifier>
                  <system value="urn:oid:2.16.840.1.113883.2.4.3.111.19.1"/>
                  <value value="MedMijHG_contactmoment10"/>
               </identifier>
               <display value="Contact ID: MedMijHG_contactmoment10 2.16.840.1.113883.2.4.3.111.19.1"/>
            </context>
            <valueString value="Keelpijn eci."/>
            <component>
               <code>
                  <coding>
                     <system value="http://hl7.org/fhir/v3/ActCode"/>
                     <code value="DISDX"/>
                     <display value="discharge diagnosis"/>
                  </coding>
               </code>
               <valueCodeableConcept>
                  <coding>
                     <system value="http://hl7.org/fhir/sid/icpc-1-nl"/>
                     <code value="R21.01"/>
                     <display value="Keelpijn"/>
                  </coding>
               </valueCodeableConcept>
            </component>
         </Observation>
      </resource>
      <search>
         <mode value="include"/>
      </search>
   </entry>
   <entry>
      <fullUrl value="urn:uuid:bc329d8d-54b4-11eb-4949-020000000000"/>
      <resource>
         <Observation>
            <meta>
               <profile value="http://nictiz.nl/fhir/StructureDefinition/gp-JournalEntry"/>
            </meta>
            <text>
               <status value="extensions"/>
               <div xmlns="http://www.w3.org/1999/xhtml">
                  <table>
                     <caption>Observatie/bepaling. Subject: H. XXX_Mulders. Status: definitief</caption>
                     <tbody>
                        <tr>
                           <th>Context</th>
                           <td>Contact ID: MedMijHG_contactmoment10 2.16.840.1.113883.2.4.3.111.19.1 (Id: MedMijHG_contactmoment10 (urn:oid:2.16.840.1.113883.2.4.3.111.19.1))</td>
                        </tr>
                        <tr>
                           <th>Code</th>
                           <th>Waarde</th>
                        </tr>
                        <tr>
                           <td>
                              <span title="Plan (P - http://fhir.nl/fhir/NamingSystem/journaalregeltypen)">Plan</span>
                           </td>
                           <td>Afwachten, zn. Medicatie is nog beschikbaar</td>
                        </tr>
                     </tbody>
                  </table>
               </div>
            </text>
            <status value="final"/>
            <code>
               <coding>
                  <system value="http://fhir.nl/fhir/NamingSystem/journaalregeltypen"/>
                  <code value="P"/>
                  <display value="Plan"/>
               </coding>
            </code>
            <subject>
               <reference value="urn:uuid:bc32b4a6-54b4-11eb-4949-020000000000"/>
               <display value="H. XXX_Mulders"/>
            </subject>
            <context>
               <identifier>
                  <system value="urn:oid:2.16.840.1.113883.2.4.3.111.19.1"/>
                  <value value="MedMijHG_contactmoment10"/>
               </identifier>
               <display value="Contact ID: MedMijHG_contactmoment10 2.16.840.1.113883.2.4.3.111.19.1"/>
            </context>
            <valueString value="Afwachten, zn. Medicatie is nog beschikbaar"/>
         </Observation>
      </resource>
      <search>
         <mode value="include"/>
      </search>
   </entry>
   <entry>
      <fullUrl value="urn:uuid:bc329da2-54b4-11eb-4949-020000000000"/>
      <resource>
         <Observation>
            <meta>
               <profile value="http://nictiz.nl/fhir/StructureDefinition/gp-JournalEntry"/>
            </meta>
            <text>
               <status value="extensions"/>
               <div xmlns="http://www.w3.org/1999/xhtml">
                  <table>
                     <caption>Observatie/bepaling. Subject: H. XXX_Mulders. Status: definitief</caption>
                     <tbody>
                        <tr>
                           <th>Context</th>
                           <td>Contact ID: MedMijHG_contactmoment04 2.16.840.1.113883.2.4.3.111.19.1 (Id: MedMijHG_contactmoment04 (urn:oid:2.16.840.1.113883.2.4.3.111.19.1))</td>
                        </tr>
                        <tr>
                           <th>Code</th>
                           <th>Waarde</th>
                        </tr>
                        <tr>
                           <td>
                              <span title="Evaluatie (E - http://fhir.nl/fhir/NamingSystem/journaalregeltypen)">Evaluatie</span>
                           </td>
                           <td>lage rugpijn</td>
                        </tr>
                        <tr>
                           <td>
                              <span title="discharge diagnosis (DISDX - v3/ActCode)">discharge diagnosis</span>
                           </td>
                           <td>
                              <span title="lage rugpijn (L03 - sid/icpc-1-nl)">lage rugpijn</span>
                           </td>
                        </tr>
                     </tbody>
                  </table>
               </div>
            </text>
            <status value="final"/>
            <code>
               <coding>
                  <system value="http://fhir.nl/fhir/NamingSystem/journaalregeltypen"/>
                  <code value="E"/>
                  <display value="Evaluatie"/>
               </coding>
            </code>
            <subject>
               <reference value="urn:uuid:bc32b4a6-54b4-11eb-4949-020000000000"/>
               <display value="H. XXX_Mulders"/>
            </subject>
            <context>
               <identifier>
                  <system value="urn:oid:2.16.840.1.113883.2.4.3.111.19.1"/>
                  <value value="MedMijHG_contactmoment04"/>
               </identifier>
               <display value="Contact ID: MedMijHG_contactmoment04 2.16.840.1.113883.2.4.3.111.19.1"/>
            </context>
            <valueString value="lage rugpijn"/>
            <component>
               <code>
                  <coding>
                     <system value="http://hl7.org/fhir/v3/ActCode"/>
                     <code value="DISDX"/>
                     <display value="discharge diagnosis"/>
                  </coding>
               </code>
               <valueCodeableConcept>
                  <coding>
                     <system value="http://hl7.org/fhir/sid/icpc-1-nl"/>
                     <code value="L03"/>
                     <display value="lage rugpijn"/>
                  </coding>
               </valueCodeableConcept>
            </component>
         </Observation>
      </resource>
      <search>
         <mode value="include"/>
      </search>
   </entry>
   <entry>
      <fullUrl value="urn:uuid:bc329dbf-54b4-11eb-4949-020000000000"/>
      <resource>
         <Observation>
            <meta>
               <profile value="http://nictiz.nl/fhir/StructureDefinition/gp-JournalEntry"/>
            </meta>
            <text>
               <status value="extensions"/>
               <div xmlns="http://www.w3.org/1999/xhtml">
                  <table>
                     <caption>Observatie/bepaling. Subject: H. XXX_Mulders. Status: definitief</caption>
                     <tbody>
                        <tr>
                           <th>Context</th>
                           <td>Contact ID: MedMijHG_contactmoment06 2.16.840.1.113883.2.4.3.111.19.1 (Id: MedMijHG_contactmoment06 (urn:oid:2.16.840.1.113883.2.4.3.111.19.1))</td>
                        </tr>
                        <tr>
                           <th>Code</th>
                           <th>Waarde</th>
                        </tr>
                        <tr>
                           <td>
                              <span title="Evaluatie (E - http://fhir.nl/fhir/NamingSystem/journaalregeltypen)">Evaluatie</span>
                           </td>
                           <td>Keelpijn eci.</td>
                        </tr>
                        <tr>
                           <td>
                              <span title="discharge diagnosis (DISDX - v3/ActCode)">discharge diagnosis</span>
                           </td>
                           <td>
                              <span title="Keelpijn (R21.01 - sid/icpc-1-nl)">Keelpijn</span>
                           </td>
                        </tr>
                     </tbody>
                  </table>
               </div>
            </text>
            <status value="final"/>
            <code>
               <coding>
                  <system value="http://fhir.nl/fhir/NamingSystem/journaalregeltypen"/>
                  <code value="E"/>
                  <display value="Evaluatie"/>
               </coding>
            </code>
            <subject>
               <reference value="urn:uuid:bc32b4a6-54b4-11eb-4949-020000000000"/>
               <display value="H. XXX_Mulders"/>
            </subject>
            <context>
               <identifier>
                  <system value="urn:oid:2.16.840.1.113883.2.4.3.111.19.1"/>
                  <value value="MedMijHG_contactmoment06"/>
               </identifier>
               <display value="Contact ID: MedMijHG_contactmoment06 2.16.840.1.113883.2.4.3.111.19.1"/>
            </context>
            <valueString value="Keelpijn eci."/>
            <component>
               <code>
                  <coding>
                     <system value="http://hl7.org/fhir/v3/ActCode"/>
                     <code value="DISDX"/>
                     <display value="discharge diagnosis"/>
                  </coding>
               </code>
               <valueCodeableConcept>
                  <coding>
                     <system value="http://hl7.org/fhir/sid/icpc-1-nl"/>
                     <code value="R21.01"/>
                     <display value="Keelpijn"/>
                  </coding>
               </valueCodeableConcept>
            </component>
         </Observation>
      </resource>
      <search>
         <mode value="include"/>
      </search>
   </entry>
   <entry>
      <fullUrl value="urn:uuid:bc329dc9-54b4-11eb-4949-020000000000"/>
      <resource>
         <Observation>
            <meta>
               <profile value="http://nictiz.nl/fhir/StructureDefinition/gp-JournalEntry"/>
            </meta>
            <text>
               <status value="extensions"/>
               <div xmlns="http://www.w3.org/1999/xhtml">
                  <table>
                     <caption>Observatie/bepaling. Subject: H. XXX_Mulders. Status: definitief</caption>
                     <tbody>
                        <tr>
                           <th>Context</th>
                           <td>Contact ID: MedMijHG_contactmoment06 2.16.840.1.113883.2.4.3.111.19.1 (Id: MedMijHG_contactmoment06 (urn:oid:2.16.840.1.113883.2.4.3.111.19.1))</td>
                        </tr>
                        <tr>
                           <th>Code</th>
                           <th>Waarde</th>
                        </tr>
                        <tr>
                           <td>
                              <span title="Plan (P - http://fhir.nl/fhir/NamingSystem/journaalregeltypen)">Plan</span>
                           </td>
                           <td>Afwachten, zn. Pcm, tijdens feest paracod.</td>
                        </tr>
                     </tbody>
                  </table>
               </div>
            </text>
            <status value="final"/>
            <code>
               <coding>
                  <system value="http://fhir.nl/fhir/NamingSystem/journaalregeltypen"/>
                  <code value="P"/>
                  <display value="Plan"/>
               </coding>
            </code>
            <subject>
               <reference value="urn:uuid:bc32b4a6-54b4-11eb-4949-020000000000"/>
               <display value="H. XXX_Mulders"/>
            </subject>
            <context>
               <identifier>
                  <system value="urn:oid:2.16.840.1.113883.2.4.3.111.19.1"/>
                  <value value="MedMijHG_contactmoment06"/>
               </identifier>
               <display value="Contact ID: MedMijHG_contactmoment06 2.16.840.1.113883.2.4.3.111.19.1"/>
            </context>
            <valueString value="Afwachten, zn. Pcm, tijdens feest paracod."/>
         </Observation>
      </resource>
      <search>
         <mode value="include"/>
      </search>
   </entry>
   <entry>
      <fullUrl value="urn:uuid:bc329dde-54b4-11eb-4949-020000000000"/>
      <resource>
         <Observation>
            <meta>
               <profile value="http://nictiz.nl/fhir/StructureDefinition/gp-JournalEntry"/>
            </meta>
            <text>
               <status value="extensions"/>
               <div xmlns="http://www.w3.org/1999/xhtml">
                  <table>
                     <caption>Observatie/bepaling. Subject: H. XXX_Mulders. Status: definitief</caption>
                     <tbody>
                        <tr>
                           <th>Context</th>
                           <td>Contact ID: MedMijHG_contactmomentMMK 2.16.840.1.113883.2.4.3.111.19.1 (Id: MedMijHG_contactmomentMMK (urn:oid:2.16.840.1.113883.2.4.3.111.19.1))</td>
                        </tr>
                        <tr>
                           <th>Code</th>
                           <th>Waarde</th>
                        </tr>
                        <tr>
                           <td>
                              <span title="Evaluatie (E - http://fhir.nl/fhir/NamingSystem/journaalregeltypen)">Evaluatie</span>
                           </td>
                           <td>astma</td>
                        </tr>
                        <tr>
                           <td>
                              <span title="discharge diagnosis (DISDX - v3/ActCode)">discharge diagnosis</span>
                           </td>
                           <td>
                              <span title="Astma (R96 - sid/icpc-1-nl)">Astma</span>
                           </td>
                        </tr>
                     </tbody>
                  </table>
               </div>
            </text>
            <status value="final"/>
            <code>
               <coding>
                  <system value="http://fhir.nl/fhir/NamingSystem/journaalregeltypen"/>
                  <code value="E"/>
                  <display value="Evaluatie"/>
               </coding>
            </code>
            <subject>
               <reference value="urn:uuid:bc32b4a6-54b4-11eb-4949-020000000000"/>
               <display value="H. XXX_Mulders"/>
            </subject>
            <context>
               <identifier>
                  <system value="urn:oid:2.16.840.1.113883.2.4.3.111.19.1"/>
                  <value value="MedMijHG_contactmomentMMK"/>
               </identifier>
               <display value="Contact ID: MedMijHG_contactmomentMMK 2.16.840.1.113883.2.4.3.111.19.1"/>
            </context>
            <valueString value="astma"/>
            <component>
               <code>
                  <coding>
                     <system value="http://hl7.org/fhir/v3/ActCode"/>
                     <code value="DISDX"/>
                     <display value="discharge diagnosis"/>
                  </coding>
               </code>
               <valueCodeableConcept>
                  <coding>
                     <system value="http://hl7.org/fhir/sid/icpc-1-nl"/>
                     <code value="R96"/>
                     <display value="Astma"/>
                  </coding>
               </valueCodeableConcept>
            </component>
         </Observation>
      </resource>
      <search>
         <mode value="include"/>
      </search>
   </entry>
   <entry>
      <fullUrl value="urn:uuid:bc329de8-54b4-11eb-4949-020000000000"/>
      <resource>
         <Observation>
            <meta>
               <profile value="http://nictiz.nl/fhir/StructureDefinition/gp-JournalEntry"/>
            </meta>
            <text>
               <status value="extensions"/>
               <div xmlns="http://www.w3.org/1999/xhtml">
                  <table>
                     <caption>Observatie/bepaling. Subject: H. XXX_Mulders. Status: definitief</caption>
                     <tbody>
                        <tr>
                           <th>Context</th>
                           <td>Contact ID: MedMijHG_contactmomentMMK 2.16.840.1.113883.2.4.3.111.19.1 (Id: MedMijHG_contactmomentMMK (urn:oid:2.16.840.1.113883.2.4.3.111.19.1))</td>
                        </tr>
                        <tr>
                           <th>Code</th>
                           <th>Waarde</th>
                        </tr>
                        <tr>
                           <td>
                              <span title="Plan (P - http://fhir.nl/fhir/NamingSystem/journaalregeltypen)">Plan</span>
                           </td>
                           <td>Salbutamol half uur voor het sporten.</td>
                        </tr>
                     </tbody>
                  </table>
               </div>
            </text>
            <status value="final"/>
            <code>
               <coding>
                  <system value="http://fhir.nl/fhir/NamingSystem/journaalregeltypen"/>
                  <code value="P"/>
                  <display value="Plan"/>
               </coding>
            </code>
            <subject>
               <reference value="urn:uuid:bc32b4a6-54b4-11eb-4949-020000000000"/>
               <display value="H. XXX_Mulders"/>
            </subject>
            <context>
               <identifier>
                  <system value="urn:oid:2.16.840.1.113883.2.4.3.111.19.1"/>
                  <value value="MedMijHG_contactmomentMMK"/>
               </identifier>
               <display value="Contact ID: MedMijHG_contactmomentMMK 2.16.840.1.113883.2.4.3.111.19.1"/>
            </context>
            <valueString value="Salbutamol half uur voor het sporten."/>
         </Observation>
      </resource>
      <search>
         <mode value="include"/>
      </search>
   </entry>
   <entry>
      <fullUrl value="urn:uuid:bc329dfd-54b4-11eb-4949-020000000000"/>
      <resource>
         <Observation>
            <meta>
               <profile value="http://nictiz.nl/fhir/StructureDefinition/gp-JournalEntry"/>
            </meta>
            <text>
               <status value="extensions"/>
               <div xmlns="http://www.w3.org/1999/xhtml">
                  <table>
                     <caption>Observatie/bepaling. Subject: H. XXX_Mulders. Status: definitief</caption>
                     <tbody>
                        <tr>
                           <th>Context</th>
                           <td>Contact ID: MedMijHG_contactmoment08 2.16.840.1.113883.2.4.3.111.19.1 (Id: MedMijHG_contactmoment08 (urn:oid:2.16.840.1.113883.2.4.3.111.19.1))</td>
                        </tr>
                        <tr>
                           <th>Code</th>
                           <th>Waarde</th>
                        </tr>
                        <tr>
                           <td>
                              <span title="Evaluatie (E - http://fhir.nl/fhir/NamingSystem/journaalregeltypen)">Evaluatie</span>
                           </td>
                           <td>Onder mandibula re. glad weinig mobile zwelling, lijkt speekselkl.</td>
                        </tr>
                     </tbody>
                  </table>
               </div>
            </text>
            <status value="final"/>
            <code>
               <coding>
                  <system value="http://fhir.nl/fhir/NamingSystem/journaalregeltypen"/>
                  <code value="E"/>
                  <display value="Evaluatie"/>
               </coding>
            </code>
            <subject>
               <reference value="urn:uuid:bc32b4a6-54b4-11eb-4949-020000000000"/>
               <display value="H. XXX_Mulders"/>
            </subject>
            <context>
               <identifier>
                  <system value="urn:oid:2.16.840.1.113883.2.4.3.111.19.1"/>
                  <value value="MedMijHG_contactmoment08"/>
               </identifier>
               <display value="Contact ID: MedMijHG_contactmoment08 2.16.840.1.113883.2.4.3.111.19.1"/>
            </context>
            <valueString value="Onder mandibula re. glad weinig mobile zwelling, lijkt speekselkl."/>
         </Observation>
      </resource>
      <search>
         <mode value="include"/>
      </search>
   </entry>
   <entry>
      <fullUrl value="urn:uuid:bc329e00-54b4-11eb-4949-020000000000"/>
      <resource>
         <Observation>
            <meta>
               <profile value="http://nictiz.nl/fhir/StructureDefinition/gp-JournalEntry"/>
            </meta>
            <text>
               <status value="extensions"/>
               <div xmlns="http://www.w3.org/1999/xhtml">
                  <table>
                     <caption>Observatie/bepaling. Subject: H. XXX_Mulders. Status: definitief</caption>
                     <tbody>
                        <tr>
                           <th>Context</th>
                           <td>Contact ID: MedMijHG_contactmoment08 2.16.840.1.113883.2.4.3.111.19.1 (Id: MedMijHG_contactmoment08 (urn:oid:2.16.840.1.113883.2.4.3.111.19.1))</td>
                        </tr>
                        <tr>
                           <th>Code</th>
                           <th>Waarde</th>
                        </tr>
                        <tr>
                           <td>
                              <span title="Plan (P - http://fhir.nl/fhir/NamingSystem/journaalregeltypen)">Plan</span>
                           </td>
                           <td>Echo</td>
                        </tr>
                     </tbody>
                  </table>
               </div>
            </text>
            <status value="final"/>
            <code>
               <coding>
                  <system value="http://fhir.nl/fhir/NamingSystem/journaalregeltypen"/>
                  <code value="P"/>
                  <display value="Plan"/>
               </coding>
            </code>
            <subject>
               <reference value="urn:uuid:bc32b4a6-54b4-11eb-4949-020000000000"/>
               <display value="H. XXX_Mulders"/>
            </subject>
            <context>
               <identifier>
                  <system value="urn:oid:2.16.840.1.113883.2.4.3.111.19.1"/>
                  <value value="MedMijHG_contactmoment08"/>
               </identifier>
               <display value="Contact ID: MedMijHG_contactmoment08 2.16.840.1.113883.2.4.3.111.19.1"/>
            </context>
            <valueString value="Echo"/>
         </Observation>
      </resource>
      <search>
         <mode value="include"/>
      </search>
   </entry>
   <entry>
      <fullUrl value="urn:uuid:bc329e14-54b4-11eb-4949-020000000000"/>
      <resource>
         <Observation>
            <meta>
               <profile value="http://nictiz.nl/fhir/StructureDefinition/gp-JournalEntry"/>
            </meta>
            <text>
               <status value="extensions"/>
               <div xmlns="http://www.w3.org/1999/xhtml">
                  <table>
                     <caption>Observatie/bepaling. Subject: H. XXX_Mulders. Status: definitief</caption>
                     <tbody>
                        <tr>
                           <th>Context</th>
                           <td>Contact ID: MedMijHG_contactmoment03 2.16.840.1.113883.2.4.3.111.19.1 (Id: MedMijHG_contactmoment03 (urn:oid:2.16.840.1.113883.2.4.3.111.19.1))</td>
                        </tr>
                        <tr>
                           <th>Code</th>
                           <th>Waarde</th>
                        </tr>
                        <tr>
                           <td>
                              <span title="Plan (P - http://fhir.nl/fhir/NamingSystem/journaalregeltypen)">Plan</span>
                           </td>
                           <td>Over paar weken RR thuis.</td>
                        </tr>
                     </tbody>
                  </table>
               </div>
            </text>
            <status value="final"/>
            <code>
               <coding>
                  <system value="http://fhir.nl/fhir/NamingSystem/journaalregeltypen"/>
                  <code value="P"/>
                  <display value="Plan"/>
               </coding>
            </code>
            <subject>
               <reference value="urn:uuid:bc32b4a6-54b4-11eb-4949-020000000000"/>
               <display value="H. XXX_Mulders"/>
            </subject>
            <context>
               <identifier>
                  <system value="urn:oid:2.16.840.1.113883.2.4.3.111.19.1"/>
                  <value value="MedMijHG_contactmoment03"/>
               </identifier>
               <display value="Contact ID: MedMijHG_contactmoment03 2.16.840.1.113883.2.4.3.111.19.1"/>
            </context>
            <valueString value="Over paar weken RR thuis."/>
         </Observation>
      </resource>
      <search>
         <mode value="include"/>
      </search>
   </entry>
   <entry>
      <fullUrl value="urn:uuid:bc329e28-54b4-11eb-4949-020000000000"/>
      <resource>
         <Observation>
            <meta>
               <profile value="http://nictiz.nl/fhir/StructureDefinition/gp-JournalEntry"/>
            </meta>
            <text>
               <status value="extensions"/>
               <div xmlns="http://www.w3.org/1999/xhtml">
                  <table>
                     <caption>Observatie/bepaling. Subject: H. XXX_Mulders. Status: definitief</caption>
                     <tbody>
                        <tr>
                           <th>Context</th>
                           <td>Contact ID: MedMijHG_contactmoment02 2.16.840.1.113883.2.4.3.111.19.1 (Id: MedMijHG_contactmoment02 (urn:oid:2.16.840.1.113883.2.4.3.111.19.1))</td>
                        </tr>
                        <tr>
                           <th>Code</th>
                           <th>Waarde</th>
                        </tr>
                        <tr>
                           <td>
                              <span title="Plan (P - http://fhir.nl/fhir/NamingSystem/journaalregeltypen)">Plan</span>
                           </td>
                           <td>Na vakantie nogmaals.</td>
                        </tr>
                     </tbody>
                  </table>
               </div>
            </text>
            <status value="final"/>
            <code>
               <coding>
                  <system value="http://fhir.nl/fhir/NamingSystem/journaalregeltypen"/>
                  <code value="P"/>
                  <display value="Plan"/>
               </coding>
            </code>
            <subject>
               <reference value="urn:uuid:bc32b4a6-54b4-11eb-4949-020000000000"/>
               <display value="H. XXX_Mulders"/>
            </subject>
            <context>
               <identifier>
                  <system value="urn:oid:2.16.840.1.113883.2.4.3.111.19.1"/>
                  <value value="MedMijHG_contactmoment02"/>
               </identifier>
               <display value="Contact ID: MedMijHG_contactmoment02 2.16.840.1.113883.2.4.3.111.19.1"/>
            </context>
            <valueString value="Na vakantie nogmaals."/>
         </Observation>
      </resource>
      <search>
         <mode value="include"/>
      </search>
   </entry>
   <entry>
      <fullUrl value="urn:uuid:bc329e3d-54b4-11eb-4949-020000000000"/>
      <resource>
         <Observation>
            <meta>
               <profile value="http://nictiz.nl/fhir/StructureDefinition/gp-JournalEntry"/>
            </meta>
            <text>
               <status value="extensions"/>
               <div xmlns="http://www.w3.org/1999/xhtml">
                  <table>
                     <caption>Observatie/bepaling. Subject: H. XXX_Mulders. Status: definitief</caption>
                     <tbody>
                        <tr>
                           <th>Context</th>
                           <td>Contact ID: MedMijHG_contactmoment01 2.16.840.1.113883.2.4.3.111.19.1 (Id: MedMijHG_contactmoment01 (urn:oid:2.16.840.1.113883.2.4.3.111.19.1))</td>
                        </tr>
                        <tr>
                           <th>Code</th>
                           <th>Waarde</th>
                        </tr>
                        <tr>
                           <td>
                              <span title="Evaluatie (E - http://fhir.nl/fhir/NamingSystem/journaalregeltypen)">Evaluatie</span>
                           </td>
                           <td>Ritmestoornis</td>
                        </tr>
                        <tr>
                           <td>
                              <span title="discharge diagnosis (DISDX - v3/ActCode)">discharge diagnosis</span>
                           </td>
                           <td>
                              <span title="Boezemfibrilleren/-fladderen (K78 - sid/icpc-1-nl)">Boezemfibrilleren/-fladderen</span>
                           </td>
                        </tr>
                     </tbody>
                  </table>
               </div>
            </text>
            <status value="final"/>
            <code>
               <coding>
                  <system value="http://fhir.nl/fhir/NamingSystem/journaalregeltypen"/>
                  <code value="E"/>
                  <display value="Evaluatie"/>
               </coding>
            </code>
            <subject>
               <reference value="urn:uuid:bc32b4a6-54b4-11eb-4949-020000000000"/>
               <display value="H. XXX_Mulders"/>
            </subject>
            <context>
               <identifier>
                  <system value="urn:oid:2.16.840.1.113883.2.4.3.111.19.1"/>
                  <value value="MedMijHG_contactmoment01"/>
               </identifier>
               <display value="Contact ID: MedMijHG_contactmoment01 2.16.840.1.113883.2.4.3.111.19.1"/>
            </context>
            <valueString value="Ritmestoornis"/>
            <component>
               <code>
                  <coding>
                     <system value="http://hl7.org/fhir/v3/ActCode"/>
                     <code value="DISDX"/>
                     <display value="discharge diagnosis"/>
                  </coding>
               </code>
               <valueCodeableConcept>
                  <coding>
                     <system value="http://hl7.org/fhir/sid/icpc-1-nl"/>
                     <code value="K78"/>
                     <display value="Boezemfibrilleren/-fladderen"/>
                  </coding>
               </valueCodeableConcept>
            </component>
         </Observation>
      </resource>
      <search>
         <mode value="include"/>
      </search>
   </entry>
   <entry>
      <fullUrl value="urn:uuid:bc329e47-54b4-11eb-4949-020000000000"/>
      <resource>
         <Observation>
            <meta>
               <profile value="http://nictiz.nl/fhir/StructureDefinition/gp-JournalEntry"/>
            </meta>
            <text>
               <status value="extensions"/>
               <div xmlns="http://www.w3.org/1999/xhtml">
                  <table>
                     <caption>Observatie/bepaling. Subject: H. XXX_Mulders. Status: definitief</caption>
                     <tbody>
                        <tr>
                           <th>Context</th>
                           <td>Contact ID: MedMijHG_contactmoment01 2.16.840.1.113883.2.4.3.111.19.1 (Id: MedMijHG_contactmoment01 (urn:oid:2.16.840.1.113883.2.4.3.111.19.1))</td>
                        </tr>
                        <tr>
                           <th>Code</th>
                           <th>Waarde</th>
                        </tr>
                        <tr>
                           <td>
                              <span title="Plan (P - http://fhir.nl/fhir/NamingSystem/journaalregeltypen)">Plan</span>
                           </td>
                           <td>Naar SEH.</td>
                        </tr>
                     </tbody>
                  </table>
               </div>
            </text>
            <status value="final"/>
            <code>
               <coding>
                  <system value="http://fhir.nl/fhir/NamingSystem/journaalregeltypen"/>
                  <code value="P"/>
                  <display value="Plan"/>
               </coding>
            </code>
            <subject>
               <reference value="urn:uuid:bc32b4a6-54b4-11eb-4949-020000000000"/>
               <display value="H. XXX_Mulders"/>
            </subject>
            <context>
               <identifier>
                  <system value="urn:oid:2.16.840.1.113883.2.4.3.111.19.1"/>
                  <value value="MedMijHG_contactmoment01"/>
               </identifier>
               <display value="Contact ID: MedMijHG_contactmoment01 2.16.840.1.113883.2.4.3.111.19.1"/>
            </context>
            <valueString value="Naar SEH."/>
         </Observation>
      </resource>
      <search>
         <mode value="include"/>
      </search>
   </entry>
   <entry>
      <fullUrl value="urn:uuid:bc329e5c-54b4-11eb-4949-020000000000"/>
      <resource>
         <Observation>
            <meta>
               <profile value="http://nictiz.nl/fhir/StructureDefinition/gp-JournalEntry"/>
            </meta>
            <text>
               <status value="extensions"/>
               <div xmlns="http://www.w3.org/1999/xhtml">
                  <table>
                     <caption>Observatie/bepaling. Subject: H. XXX_Mulders. Status: definitief</caption>
                     <tbody>
                        <tr>
                           <th>Context</th>
                           <td>Contact ID: MedMijHG_contactmoment11 2.16.840.1.113883.2.4.3.111.19.1 (Id: MedMijHG_contactmoment11 (urn:oid:2.16.840.1.113883.2.4.3.111.19.1))</td>
                        </tr>
                        <tr>
                           <th>Code</th>
                           <th>Waarde</th>
                        </tr>
                        <tr>
                           <td>
                              <span title="Evaluatie (E - http://fhir.nl/fhir/NamingSystem/journaalregeltypen)">Evaluatie</span>
                           </td>
                           <td>Keelpijn eci.</td>
                        </tr>
                        <tr>
                           <td>
                              <span title="discharge diagnosis (DISDX - v3/ActCode)">discharge diagnosis</span>
                           </td>
                           <td>
                              <span title="Keelpijn (R21.01 - sid/icpc-1-nl)">Keelpijn</span>
                           </td>
                        </tr>
                     </tbody>
                  </table>
               </div>
            </text>
            <status value="final"/>
            <code>
               <coding>
                  <system value="http://fhir.nl/fhir/NamingSystem/journaalregeltypen"/>
                  <code value="E"/>
                  <display value="Evaluatie"/>
               </coding>
            </code>
            <subject>
               <reference value="urn:uuid:bc32b4a6-54b4-11eb-4949-020000000000"/>
               <display value="H. XXX_Mulders"/>
            </subject>
            <context>
               <identifier>
                  <system value="urn:oid:2.16.840.1.113883.2.4.3.111.19.1"/>
                  <value value="MedMijHG_contactmoment11"/>
               </identifier>
               <display value="Contact ID: MedMijHG_contactmoment11 2.16.840.1.113883.2.4.3.111.19.1"/>
            </context>
            <valueString value="Keelpijn eci."/>
            <component>
               <code>
                  <coding>
                     <system value="http://hl7.org/fhir/v3/ActCode"/>
                     <code value="DISDX"/>
                     <display value="discharge diagnosis"/>
                  </coding>
               </code>
               <valueCodeableConcept>
                  <coding>
                     <system value="http://hl7.org/fhir/sid/icpc-1-nl"/>
                     <code value="R21.01"/>
                     <display value="Keelpijn"/>
                  </coding>
               </valueCodeableConcept>
            </component>
         </Observation>
      </resource>
      <search>
         <mode value="include"/>
      </search>
   </entry>
   <entry>
      <fullUrl value="urn:uuid:bc329e66-54b4-11eb-4949-020000000000"/>
      <resource>
         <Observation>
            <meta>
               <profile value="http://nictiz.nl/fhir/StructureDefinition/gp-JournalEntry"/>
            </meta>
            <text>
               <status value="extensions"/>
               <div xmlns="http://www.w3.org/1999/xhtml">
                  <table>
                     <caption>Observatie/bepaling. Subject: H. XXX_Mulders. Status: definitief</caption>
                     <tbody>
                        <tr>
                           <th>Context</th>
                           <td>Contact ID: MedMijHG_contactmoment11 2.16.840.1.113883.2.4.3.111.19.1 (Id: MedMijHG_contactmoment11 (urn:oid:2.16.840.1.113883.2.4.3.111.19.1))</td>
                        </tr>
                        <tr>
                           <th>Code</th>
                           <th>Waarde</th>
                        </tr>
                        <tr>
                           <td>
                              <span title="Plan (P - http://fhir.nl/fhir/NamingSystem/journaalregeltypen)">Plan</span>
                           </td>
                           <td>Kweek van aanslag keel</td>
                        </tr>
                     </tbody>
                  </table>
               </div>
            </text>
            <status value="final"/>
            <code>
               <coding>
                  <system value="http://fhir.nl/fhir/NamingSystem/journaalregeltypen"/>
                  <code value="P"/>
                  <display value="Plan"/>
               </coding>
            </code>
            <subject>
               <reference value="urn:uuid:bc32b4a6-54b4-11eb-4949-020000000000"/>
               <display value="H. XXX_Mulders"/>
            </subject>
            <context>
               <identifier>
                  <system value="urn:oid:2.16.840.1.113883.2.4.3.111.19.1"/>
                  <value value="MedMijHG_contactmoment11"/>
               </identifier>
               <display value="Contact ID: MedMijHG_contactmoment11 2.16.840.1.113883.2.4.3.111.19.1"/>
            </context>
            <valueString value="Kweek van aanslag keel"/>
         </Observation>
      </resource>
      <search>
         <mode value="include"/>
      </search>
   </entry>
   <entry>
      <fullUrl value="urn:uuid:bc329e7b-54b4-11eb-4949-020000000000"/>
      <resource>
         <Observation>
            <meta>
               <profile value="http://nictiz.nl/fhir/StructureDefinition/gp-JournalEntry"/>
            </meta>
            <text>
               <status value="extensions"/>
               <div xmlns="http://www.w3.org/1999/xhtml">
                  <table>
                     <caption>Observatie/bepaling. Subject: H. XXX_Mulders. Status: definitief</caption>
                     <tbody>
                        <tr>
                           <th>Context</th>
                           <td>Contact ID: MedMijHG_contactmoment05 2.16.840.1.113883.2.4.3.111.19.1 (Id: MedMijHG_contactmoment05 (urn:oid:2.16.840.1.113883.2.4.3.111.19.1))</td>
                        </tr>
                        <tr>
                           <th>Code</th>
                           <th>Waarde</th>
                        </tr>
                        <tr>
                           <td>
                              <span title="Evaluatie (E - http://fhir.nl/fhir/NamingSystem/journaalregeltypen)">Evaluatie</span>
                           </td>
                           <td>Maag/duodenum problemen?</td>
                        </tr>
                        <tr>
                           <td>
                              <span title="discharge diagnosis (DISDX - v3/ActCode)">discharge diagnosis</span>
                           </td>
                           <td>
                              <span title="lage rugpijn (L03 - sid/icpc-1-nl)">lage rugpijn</span>
                           </td>
                        </tr>
                     </tbody>
                  </table>
               </div>
            </text>
            <status value="final"/>
            <code>
               <coding>
                  <system value="http://fhir.nl/fhir/NamingSystem/journaalregeltypen"/>
                  <code value="E"/>
                  <display value="Evaluatie"/>
               </coding>
            </code>
            <subject>
               <reference value="urn:uuid:bc32b4a6-54b4-11eb-4949-020000000000"/>
               <display value="H. XXX_Mulders"/>
            </subject>
            <context>
               <identifier>
                  <system value="urn:oid:2.16.840.1.113883.2.4.3.111.19.1"/>
                  <value value="MedMijHG_contactmoment05"/>
               </identifier>
               <display value="Contact ID: MedMijHG_contactmoment05 2.16.840.1.113883.2.4.3.111.19.1"/>
            </context>
            <valueString value="Maag/duodenum problemen?"/>
            <component>
               <code>
                  <coding>
                     <system value="http://hl7.org/fhir/v3/ActCode"/>
                     <code value="DISDX"/>
                     <display value="discharge diagnosis"/>
                  </coding>
               </code>
               <valueCodeableConcept>
                  <coding>
                     <system value="http://hl7.org/fhir/sid/icpc-1-nl"/>
                     <code value="L03"/>
                     <display value="lage rugpijn"/>
                  </coding>
               </valueCodeableConcept>
            </component>
         </Observation>
      </resource>
      <search>
         <mode value="include"/>
      </search>
   </entry>
   <entry>
      <fullUrl value="urn:uuid:bc329e85-54b4-11eb-4949-020000000000"/>
      <resource>
         <Observation>
            <meta>
               <profile value="http://nictiz.nl/fhir/StructureDefinition/gp-JournalEntry"/>
            </meta>
            <text>
               <status value="extensions"/>
               <div xmlns="http://www.w3.org/1999/xhtml">
                  <table>
                     <caption>Observatie/bepaling. Subject: H. XXX_Mulders. Status: definitief</caption>
                     <tbody>
                        <tr>
                           <th>Context</th>
                           <td>Contact ID: MedMijHG_contactmoment05 2.16.840.1.113883.2.4.3.111.19.1 (Id: MedMijHG_contactmoment05 (urn:oid:2.16.840.1.113883.2.4.3.111.19.1))</td>
                        </tr>
                        <tr>
                           <th>Code</th>
                           <th>Waarde</th>
                        </tr>
                        <tr>
                           <td>
                              <span title="Plan (P - http://fhir.nl/fhir/NamingSystem/journaalregeltypen)">Plan</span>
                           </td>
                           <td>Cesar of Mensendieck.</td>
                        </tr>
                     </tbody>
                  </table>
               </div>
            </text>
            <status value="final"/>
            <code>
               <coding>
                  <system value="http://fhir.nl/fhir/NamingSystem/journaalregeltypen"/>
                  <code value="P"/>
                  <display value="Plan"/>
               </coding>
            </code>
            <subject>
               <reference value="urn:uuid:bc32b4a6-54b4-11eb-4949-020000000000"/>
               <display value="H. XXX_Mulders"/>
            </subject>
            <context>
               <identifier>
                  <system value="urn:oid:2.16.840.1.113883.2.4.3.111.19.1"/>
                  <value value="MedMijHG_contactmoment05"/>
               </identifier>
               <display value="Contact ID: MedMijHG_contactmoment05 2.16.840.1.113883.2.4.3.111.19.1"/>
            </context>
            <valueString value="Cesar of Mensendieck."/>
         </Observation>
      </resource>
      <search>
         <mode value="include"/>
      </search>
   </entry>
</Bundle>