<?xml-model href="http://hl7.org/fhir/STU3/bundle.sch" type="application/xml" schematypens="http://purl.oclc.org/dsdl/schematron"?>
<Bundle xsi:schemaLocation="http://hl7.org/fhir http://hl7.org/fhir/STU3/fhir-all.xsd"
        xmlns:xsi="http://www.w3.org/2001/XMLSchema-instance"
        xmlns="http://hl7.org/fhir">
   <id value="802a59ee-a2da-11ef-6298-020000000000"/>
   <type value="searchset"/>
   <total value="29"/>
   <link>
      <relation value="self"/>
      <url value="http://dummy.nictiz.nl/dummyquery"/>
   </link>
   <entry>
      <fullUrl value="https://example.org/fhir/Observation/2.16.840.1.113883.2.4.6.6.90000258.4.7-21120"/>
      <resource>
         <Observation>
            <id value="2.16.840.1.113883.2.4.6.6.90000258.4.7-21120"/>
            <meta>
               <profile value="http://nictiz.nl/fhir/StructureDefinition/gp-LaboratoryResult"/>
               <profile value="http://nictiz.nl/fhir/StructureDefinition/zib-LaboratoryTestResult-Observation"/>
            </meta>
            <text>
               <status value="extensions"/>
               <div xmlns="http://www.w3.org/1999/xhtml">
                  <table>
                     <caption>Observatie/bepaling. Subject: E. XXX_Zegers. Id: 21120 (urn:oid:2.16.840.1.113883.2.4.6.6.90000258.4.7), Categorie: 
<span title="bevinding betreffende laboratoriumonderzoek (49581000146104 - SNOMED CT)">bevinding betreffende laboratoriumonderzoek</span>, Status: definitief</caption>
                     <tbody>
                        <tr>
                           <th>Bepalingdatum/tijd</th>
                           <td>30 januari 2019</td>
                        </tr>
                        <tr>
                           <th>Code</th>
                           <th>Waarde</th>
                        </tr>
                        <tr>
                           <td>
                              <span title="Multi-rast (Phadiatop) (852 - nhg-tabel-45-diagnostische-bepalingen)">Multi-rast (Phadiatop)</span>
                           </td>
                           <td>
                              <span title="positief (32 - nhg-tabel-45-diagnostische-bepalingen#resultaten)">positief</span>
                           </td>
                        </tr>
                     </tbody>
                  </table>
               </div>
            </text>
            <identifier>
               <system value="urn:oid:2.16.840.1.113883.2.4.6.6.90000258.4.7"/>
               <value value="21120"/>
            </identifier>
            <status value="final">
               <extension url="http://nictiz.nl/fhir/StructureDefinition/code-specification">
                  <valueCodeableConcept>
                     <coding>
                        <system value="urn:oid:2.16.840.1.113883.2.4.3.11.60.40.4.16.1"/>
                        <code value="final"/>
                        <display value="Final"/>
                     </coding>
                  </valueCodeableConcept>
               </extension>
            </status>
            <category>
               <coding>
                  <system value="http://snomed.info/sct"/>
                  <code value="49581000146104"/>
                  <display value="bevinding betreffende laboratoriumonderzoek"/>
               </coding>
            </category>
            <code>
               <coding>
                  <system value="https://referentiemodel.nhg.org/tabellen/nhg-tabel-45-diagnostische-bepalingen"/>
                  <version value="v29"/>
                  <code value="852"/>
                  <display value="Multi-rast (Phadiatop)"/>
               </coding>
            </code>
            <subject>
               <reference value="urn:uuid:802a42d4-a2da-11ef-6298-020000000000"/>
               <display value="E. XXX_Zegers"/>
            </subject>
            <effectiveDateTime value="2019-01-30"/>
            <valueCodeableConcept>
               <coding>
                  <system value="https://referentiemodel.nhg.org/tabellen/nhg-tabel-45-diagnostische-bepalingen#resultaten"/>
                  <code value="32"/>
                  <display value="positief"/>
               </coding>
            </valueCodeableConcept>
         </Observation>
      </resource>
      <search>
         <mode value="match"/>
      </search>
   </entry>
   <entry>
      <fullUrl value="https://example.org/fhir/Observation/2.16.840.1.113883.2.4.6.6.90000258.4.7-21121"/>
      <resource>
         <Observation>
            <id value="2.16.840.1.113883.2.4.6.6.90000258.4.7-21121"/>
            <meta>
               <profile value="http://nictiz.nl/fhir/StructureDefinition/gp-LaboratoryResult"/>
               <profile value="http://nictiz.nl/fhir/StructureDefinition/zib-LaboratoryTestResult-Observation"/>
            </meta>
            <text>
               <status value="extensions"/>
               <div xmlns="http://www.w3.org/1999/xhtml">
                  <table>
                     <caption>Observatie/bepaling. Subject: E. XXX_Zegers. Id: 21121 (urn:oid:2.16.840.1.113883.2.4.6.6.90000258.4.7), Categorie: 
<span title="bevinding betreffende laboratoriumonderzoek (49581000146104 - SNOMED CT)">bevinding betreffende laboratoriumonderzoek</span>, Status: definitief</caption>
                     <tbody>
                        <tr>
                           <th>Bepalingdatum/tijd</th>
                           <td colspan="2">30 januari 2019</td>
                        </tr>
                        <tr>
                           <th>Code</th>
                           <th>Waarde</th>
                           <th>Referentiewaarden</th>
                        </tr>
                        <tr>
                           <td>
                              <span title="zuurstofsaturatie (pulsoximeter) (2680 - nhg-tabel-45-diagnostische-bepalingen)">zuurstofsaturatie (pulsoximeter)</span>
                           </td>
                           <td>97 %</td>
                           <td>
                              <div>
                                 <span title="Normal Range (normal - referencerange-meaning)">Normal Range</span> 95 % - 99 %</div>
                           </td>
                        </tr>
                     </tbody>
                  </table>
               </div>
            </text>
            <identifier>
               <system value="urn:oid:2.16.840.1.113883.2.4.6.6.90000258.4.7"/>
               <value value="21121"/>
            </identifier>
            <status value="final">
               <extension url="http://nictiz.nl/fhir/StructureDefinition/code-specification">
                  <valueCodeableConcept>
                     <coding>
                        <system value="urn:oid:2.16.840.1.113883.2.4.3.11.60.40.4.16.1"/>
                        <code value="final"/>
                        <display value="Final"/>
                     </coding>
                  </valueCodeableConcept>
               </extension>
            </status>
            <category>
               <coding>
                  <system value="http://snomed.info/sct"/>
                  <code value="49581000146104"/>
                  <display value="bevinding betreffende laboratoriumonderzoek"/>
               </coding>
            </category>
            <code>
               <coding>
                  <system value="https://referentiemodel.nhg.org/tabellen/nhg-tabel-45-diagnostische-bepalingen"/>
                  <version value="v29"/>
                  <code value="2680"/>
                  <display value="zuurstofsaturatie (pulsoximeter)"/>
               </coding>
            </code>
            <subject>
               <reference value="urn:uuid:802a42d4-a2da-11ef-6298-020000000000"/>
               <display value="E. XXX_Zegers"/>
            </subject>
            <effectiveDateTime value="2019-01-30"/>
            <valueQuantity>
               <value value="97"/>
               <unit value="%"/>
               <system value="http://unitsofmeasure.org"/>
               <code value="%"/>
            </valueQuantity>
            <referenceRange>
               <low>
                  <value value="95"/>
                  <unit value="%"/>
                  <system value="http://unitsofmeasure.org"/>
                  <code value="%"/>
               </low>
               <high>
                  <value value="99"/>
                  <unit value="%"/>
                  <system value="http://unitsofmeasure.org"/>
                  <code value="%"/>
               </high>
               <type>
                  <coding>
                     <system value="http://hl7.org/fhir/referencerange-meaning"/>
                     <code value="normal"/>
                     <display value="Normal Range"/>
                  </coding>
               </type>
            </referenceRange>
         </Observation>
      </resource>
      <search>
         <mode value="match"/>
      </search>
   </entry>
   <entry>
      <fullUrl value="https://example.org/fhir/Observation/2.16.840.1.113883.2.4.6.6.90000258.4.7-21123"/>
      <resource>
         <Observation>
            <id value="2.16.840.1.113883.2.4.6.6.90000258.4.7-21123"/>
            <meta>
               <profile value="http://nictiz.nl/fhir/StructureDefinition/gp-LaboratoryResult"/>
               <profile value="http://nictiz.nl/fhir/StructureDefinition/zib-LaboratoryTestResult-Observation"/>
            </meta>
            <text>
               <status value="extensions"/>
               <div xmlns="http://www.w3.org/1999/xhtml">
                  <table>
                     <caption>Observatie/bepaling. Subject: E. XXX_Zegers. Id: 21123 (urn:oid:2.16.840.1.113883.2.4.6.6.90000258.4.7), Categorie: 
<span title="bevinding betreffende laboratoriumonderzoek (49581000146104 - SNOMED CT)">bevinding betreffende laboratoriumonderzoek</span>, Status: definitief</caption>
                     <tbody>
                        <tr>
                           <th>Bepalingdatum/tijd</th>
                           <td>3 februari 2019</td>
                        </tr>
                        <tr>
                           <th>Code</th>
                           <th>Waarde</th>
                        </tr>
                        <tr>
                           <td>
                              <span title="huidtest hond epitheel (2626 - nhg-tabel-45-diagnostische-bepalingen)">huidtest hond epitheel</span>
                           </td>
                           <td>
                              <span title="twijfelachtig (312 - nhg-tabel-45-diagnostische-bepalingen#resultaten)">twijfelachtig</span>
                           </td>
                        </tr>
                     </tbody>
                  </table>
               </div>
            </text>
            <identifier>
               <system value="urn:oid:2.16.840.1.113883.2.4.6.6.90000258.4.7"/>
               <value value="21123"/>
            </identifier>
            <status value="final">
               <extension url="http://nictiz.nl/fhir/StructureDefinition/code-specification">
                  <valueCodeableConcept>
                     <coding>
                        <system value="urn:oid:2.16.840.1.113883.2.4.3.11.60.40.4.16.1"/>
                        <code value="final"/>
                        <display value="Final"/>
                     </coding>
                  </valueCodeableConcept>
               </extension>
            </status>
            <category>
               <coding>
                  <system value="http://snomed.info/sct"/>
                  <code value="49581000146104"/>
                  <display value="bevinding betreffende laboratoriumonderzoek"/>
               </coding>
            </category>
            <code>
               <coding>
                  <system value="https://referentiemodel.nhg.org/tabellen/nhg-tabel-45-diagnostische-bepalingen"/>
                  <version value="v29"/>
                  <code value="2626"/>
                  <display value="huidtest hond epitheel"/>
               </coding>
            </code>
            <subject>
               <reference value="urn:uuid:802a42d4-a2da-11ef-6298-020000000000"/>
               <display value="E. XXX_Zegers"/>
            </subject>
            <effectiveDateTime value="2019-02-03"/>
            <valueCodeableConcept>
               <coding>
                  <system value="https://referentiemodel.nhg.org/tabellen/nhg-tabel-45-diagnostische-bepalingen#resultaten"/>
                  <code value="312"/>
                  <display value="twijfelachtig"/>
               </coding>
            </valueCodeableConcept>
         </Observation>
      </resource>
      <search>
         <mode value="match"/>
      </search>
   </entry>
   <entry>
      <fullUrl value="https://example.org/fhir/Observation/2.16.840.1.113883.2.4.6.6.90000258.4.7-21124"/>
      <resource>
         <Observation>
            <id value="2.16.840.1.113883.2.4.6.6.90000258.4.7-21124"/>
            <meta>
               <profile value="http://nictiz.nl/fhir/StructureDefinition/gp-LaboratoryResult"/>
               <profile value="http://nictiz.nl/fhir/StructureDefinition/zib-LaboratoryTestResult-Observation"/>
            </meta>
            <text>
               <status value="extensions"/>
               <div xmlns="http://www.w3.org/1999/xhtml">
                  <table>
                     <caption>Observatie/bepaling. Subject: E. XXX_Zegers. Id: 21124 (urn:oid:2.16.840.1.113883.2.4.6.6.90000258.4.7), Categorie: 
<span title="bevinding betreffende laboratoriumonderzoek (49581000146104 - SNOMED CT)">bevinding betreffende laboratoriumonderzoek</span>, Status: definitief</caption>
                     <tbody>
                        <tr>
                           <th>Bepalingdatum/tijd</th>
                           <td colspan="2">5 februari 2019</td>
                        </tr>
                        <tr>
                           <th>Code</th>
                           <th>Waarde</th>
                           <th>Referentiewaarden</th>
                        </tr>
                        <tr>
                           <td>
                              <span title="glucose nuchter, veneus (lab) (372 - nhg-tabel-45-diagnostische-bepalingen)">glucose nuchter, veneus (lab)</span>
                           </td>
                           <td>4.5 mmol/L</td>
                           <td>
                              <div>
                                 <span title="Normal Range (normal - referencerange-meaning)">Normal Range</span> 4 mmol/L - 8 mmol/L</div>
                           </td>
                        </tr>
                     </tbody>
                  </table>
               </div>
            </text>
            <identifier>
               <system value="urn:oid:2.16.840.1.113883.2.4.6.6.90000258.4.7"/>
               <value value="21124"/>
            </identifier>
            <status value="final">
               <extension url="http://nictiz.nl/fhir/StructureDefinition/code-specification">
                  <valueCodeableConcept>
                     <coding>
                        <system value="urn:oid:2.16.840.1.113883.2.4.3.11.60.40.4.16.1"/>
                        <code value="final"/>
                        <display value="Final"/>
                     </coding>
                  </valueCodeableConcept>
               </extension>
            </status>
            <category>
               <coding>
                  <system value="http://snomed.info/sct"/>
                  <code value="49581000146104"/>
                  <display value="bevinding betreffende laboratoriumonderzoek"/>
               </coding>
            </category>
            <code>
               <coding>
                  <system value="https://referentiemodel.nhg.org/tabellen/nhg-tabel-45-diagnostische-bepalingen"/>
                  <version value="v29"/>
                  <code value="372"/>
                  <display value="glucose nuchter, veneus (lab)"/>
               </coding>
            </code>
            <subject>
               <reference value="urn:uuid:802a42d4-a2da-11ef-6298-020000000000"/>
               <display value="E. XXX_Zegers"/>
            </subject>
            <effectiveDateTime value="2019-02-05"/>
            <valueQuantity>
               <value value="4.5"/>
               <unit value="mmol/L"/>
               <system value="http://unitsofmeasure.org"/>
               <code value="mmol/L"/>
            </valueQuantity>
            <referenceRange>
               <low>
                  <value value="4"/>
                  <unit value="mmol/L"/>
                  <system value="http://unitsofmeasure.org"/>
                  <code value="mmol/L"/>
               </low>
               <high>
                  <value value="8"/>
                  <unit value="mmol/L"/>
                  <system value="http://unitsofmeasure.org"/>
                  <code value="mmol/L"/>
               </high>
               <type>
                  <coding>
                     <system value="http://hl7.org/fhir/referencerange-meaning"/>
                     <code value="normal"/>
                     <display value="Normal Range"/>
                  </coding>
               </type>
            </referenceRange>
         </Observation>
      </resource>
      <search>
         <mode value="match"/>
      </search>
   </entry>
   <entry>
      <fullUrl value="https://example.org/fhir/Observation/2.16.840.1.113883.2.4.6.6.90000258.4.7-21132"/>
      <resource>
         <Observation>
            <id value="2.16.840.1.113883.2.4.6.6.90000258.4.7-21132"/>
            <meta>
               <profile value="http://nictiz.nl/fhir/StructureDefinition/gp-LaboratoryResult"/>
               <profile value="http://nictiz.nl/fhir/StructureDefinition/zib-LaboratoryTestResult-Observation"/>
            </meta>
            <text>
               <status value="extensions"/>
               <div xmlns="http://www.w3.org/1999/xhtml">
                  <table>
                     <caption>Observatie/bepaling. Subject: E. XXX_Zegers. Id: 21132 (urn:oid:2.16.840.1.113883.2.4.6.6.90000258.4.7), Categorie: 
<span title="bevinding betreffende laboratoriumonderzoek (49581000146104 - SNOMED CT)">bevinding betreffende laboratoriumonderzoek</span>, Status: definitief</caption>
                     <tbody>
                        <tr>
                           <th>Bepalingdatum/tijd</th>
                           <td colspan="2">2 februari 2019</td>
                        </tr>
                        <tr>
                           <th>Code</th>
                           <th>Waarde</th>
                           <th>Referentiewaarden</th>
                        </tr>
                        <tr>
                           <td>
                              <span title="zuurstofsaturatie (pulsoximeter) (2680 - nhg-tabel-45-diagnostische-bepalingen)">zuurstofsaturatie (pulsoximeter)</span>
                           </td>
                           <td>95 %</td>
                           <td>
                              <div>
                                 <span title="Normal Range (normal - referencerange-meaning)">Normal Range</span> 95 % - 99 %</div>
                           </td>
                        </tr>
                     </tbody>
                  </table>
               </div>
            </text>
            <identifier>
               <system value="urn:oid:2.16.840.1.113883.2.4.6.6.90000258.4.7"/>
               <value value="21132"/>
            </identifier>
            <status value="final">
               <extension url="http://nictiz.nl/fhir/StructureDefinition/code-specification">
                  <valueCodeableConcept>
                     <coding>
                        <system value="urn:oid:2.16.840.1.113883.2.4.3.11.60.40.4.16.1"/>
                        <code value="final"/>
                        <display value="Final"/>
                     </coding>
                  </valueCodeableConcept>
               </extension>
            </status>
            <category>
               <coding>
                  <system value="http://snomed.info/sct"/>
                  <code value="49581000146104"/>
                  <display value="bevinding betreffende laboratoriumonderzoek"/>
               </coding>
            </category>
            <code>
               <coding>
                  <system value="https://referentiemodel.nhg.org/tabellen/nhg-tabel-45-diagnostische-bepalingen"/>
                  <version value="v29"/>
                  <code value="2680"/>
                  <display value="zuurstofsaturatie (pulsoximeter)"/>
               </coding>
            </code>
            <subject>
               <reference value="urn:uuid:802a42d4-a2da-11ef-6298-020000000000"/>
               <display value="E. XXX_Zegers"/>
            </subject>
            <effectiveDateTime value="2019-02-02"/>
            <valueQuantity>
               <value value="95"/>
               <unit value="%"/>
               <system value="http://unitsofmeasure.org"/>
               <code value="%"/>
            </valueQuantity>
            <referenceRange>
               <low>
                  <value value="95"/>
                  <unit value="%"/>
                  <system value="http://unitsofmeasure.org"/>
                  <code value="%"/>
               </low>
               <high>
                  <value value="99"/>
                  <unit value="%"/>
                  <system value="http://unitsofmeasure.org"/>
                  <code value="%"/>
               </high>
               <type>
                  <coding>
                     <system value="http://hl7.org/fhir/referencerange-meaning"/>
                     <code value="normal"/>
                     <display value="Normal Range"/>
                  </coding>
               </type>
            </referenceRange>
         </Observation>
      </resource>
      <search>
         <mode value="match"/>
      </search>
   </entry>
   <entry>
      <fullUrl value="https://example.org/fhir/Observation/2.16.840.1.113883.2.4.6.6.90000258.4.7-21103"/>
      <resource>
         <Observation>
            <id value="2.16.840.1.113883.2.4.6.6.90000258.4.7-21103"/>
            <meta>
               <profile value="http://nictiz.nl/fhir/StructureDefinition/gp-DiagnosticResult"/>
            </meta>
            <text>
               <status value="extensions"/>
               <div xmlns="http://www.w3.org/1999/xhtml">
                  <table>
                     <caption>Observatie/bepaling. Subject: E. XXX_Zegers. Id: 21103 (urn:oid:2.16.840.1.113883.2.4.6.6.90000258.4.7), Status: definitief
<span style="display: block;">Uitvoerende: Responsible Party</span>
                     </caption>
                     <tbody>
                        <tr>
                           <th>Context</th>
                           <td colspan="3">
                              <ul>
                                 <li>Episode ID: hc657498ft562.9895 2.16.528.1.1007.3.3.765332.1.12 (Id: hc657498ft562.9895 (urn:oid:2.16.528.1.1007.3.3.765332.1.12))</li>
                                 <li>Contact ID: 996624 2.16.840.1.113883.2.4.6.6.90000258.4.1 (Id: 996624 (urn:oid:2.16.840.1.113883.2.4.6.6.90000258.4.1))</li>
                              </ul>
                           </td>
                        </tr>
                        <tr>
                           <th>Bepalingdatum/tijd</th>
                           <td colspan="3">9 juli 2017</td>
                        </tr>
                        <tr>
                           <th>Code</th>
                           <th>Waarde</th>
                           <th>Interpretatie</th>
                           <th>Referentiewaarden</th>
                        </tr>
                        <tr>
                           <td>
                              <span title="systolische bloeddruk (1744 - nhg-tabel-45-diagnostische-bepalingen)">systolische bloeddruk</span>
                           </td>
                           <td>184 mm[Hg]</td>
                           <td>
                              <span title="High (H - v2/0078)">High</span>
                           </td>
                           <td>
                              <div>
                                 <span title="Normal Range (normal - referencerange-meaning)">Normal Range</span>  - 140 mm[Hg]</div>
                           </td>
                        </tr>
                     </tbody>
                  </table>
               </div>
            </text>
            <extension url="http://nictiz.nl/fhir/StructureDefinition/extension-context-nl-core-episodeofcare">
               <valueReference>
                  <identifier>
                     <system value="urn:oid:2.16.528.1.1007.3.3.765332.1.12"/>
                     <value value="hc657498ft562.9895"/>
                  </identifier>
                  <display value="Episode ID: hc657498ft562.9895 2.16.528.1.1007.3.3.765332.1.12"/>
               </valueReference>
            </extension>
            <identifier>
               <system value="urn:oid:2.16.840.1.113883.2.4.6.6.90000258.4.7"/>
               <value value="21103"/>
            </identifier>
            <status value="final"/>
            <code>
               <coding>
                  <system value="https://referentiemodel.nhg.org/tabellen/nhg-tabel-45-diagnostische-bepalingen"/>
                  <version value="v29"/>
                  <code value="1744"/>
                  <display value="systolische bloeddruk"/>
               </coding>
            </code>
            <subject>
               <reference value="urn:uuid:802a42d4-a2da-11ef-6298-020000000000"/>
               <display value="E. XXX_Zegers"/>
            </subject>
            <context>
               <identifier>
                  <system value="urn:oid:2.16.840.1.113883.2.4.6.6.90000258.4.1"/>
                  <value value="996624"/>
               </identifier>
               <display value="Contact ID: 996624 2.16.840.1.113883.2.4.6.6.90000258.4.1"/>
            </context>
            <effectiveDateTime value="2017-07-09"/>
            <performer>
               <extension url="http://nictiz.nl/fhir/StructureDefinition/practitionerrole-reference">
                  <valueReference>
                     <reference value="urn:uuid:802a4305-a2da-11ef-6298-020000000000"/>
                     <display value="Responsible Party"/>
                  </valueReference>
               </extension>
               <reference value="https://example.org/fhir/Practitioner/2.16.528.1.1007.3.1-900014718"/>
               <display value="Responsible Party"/>
            </performer>
            <valueQuantity>
               <value value="184"/>
               <unit value="mm[Hg]"/>
               <system value="http://unitsofmeasure.org"/>
               <code value="mm[Hg]"/>
            </valueQuantity>
            <interpretation>
               <coding>
                  <system value="http://hl7.org/fhir/v2/0078"/>
                  <code value="H"/>
                  <display value="High"/>
               </coding>
            </interpretation>
            <referenceRange>
               <low>
                  <extension url="http://hl7.org/fhir/StructureDefinition/iso21090-nullFlavor">
                     <valueCode value="NINF"/>
                  </extension>
               </low>
               <high>
                  <value value="140"/>
                  <unit value="mm[Hg]"/>
                  <system value="http://unitsofmeasure.org"/>
                  <code value="mm[Hg]"/>
               </high>
               <type>
                  <coding>
                     <system value="http://hl7.org/fhir/referencerange-meaning"/>
                     <code value="normal"/>
                     <display value="Normal Range"/>
                  </coding>
               </type>
            </referenceRange>
         </Observation>
      </resource>
      <search>
         <mode value="match"/>
      </search>
   </entry>
   <entry>
      <fullUrl value="https://example.org/fhir/Observation/2.16.840.1.113883.2.4.6.6.90000258.4.7-21104"/>
      <resource>
         <Observation>
            <id value="2.16.840.1.113883.2.4.6.6.90000258.4.7-21104"/>
            <meta>
               <profile value="http://nictiz.nl/fhir/StructureDefinition/gp-DiagnosticResult"/>
            </meta>
            <text>
               <status value="extensions"/>
               <div xmlns="http://www.w3.org/1999/xhtml">
                  <table>
                     <caption>Observatie/bepaling. Subject: E. XXX_Zegers. Id: 21104 (urn:oid:2.16.840.1.113883.2.4.6.6.90000258.4.7), Status: definitief
<span style="display: block;">Uitvoerende: Responsible Party</span>
                     </caption>
                     <tbody>
                        <tr>
                           <th>Bepalingdatum/tijd</th>
                           <td colspan="3">9 juli 2017</td>
                        </tr>
                        <tr>
                           <th>Code</th>
                           <th>Waarde</th>
                           <th>Interpretatie</th>
                           <th>Referentiewaarden</th>
                        </tr>
                        <tr>
                           <td>
                              <span title="diastolische bloeddruk (1740 - nhg-tabel-45-diagnostische-bepalingen)">diastolische bloeddruk</span>
                           </td>
                           <td>93 mm[Hg]</td>
                           <td>
                              <span title="High (H - v2/0078)">High</span>
                           </td>
                           <td>
                              <div>
                                 <span title="Normal Range (normal - referencerange-meaning)">Normal Range</span>  - 89 mm[Hg]</div>
                           </td>
                        </tr>
                     </tbody>
                  </table>
               </div>
            </text>
            <identifier>
               <system value="urn:oid:2.16.840.1.113883.2.4.6.6.90000258.4.7"/>
               <value value="21104"/>
            </identifier>
            <status value="final"/>
            <code>
               <coding>
                  <system value="https://referentiemodel.nhg.org/tabellen/nhg-tabel-45-diagnostische-bepalingen"/>
                  <version value="v29"/>
                  <code value="1740"/>
                  <display value="diastolische bloeddruk"/>
               </coding>
            </code>
            <subject>
               <reference value="urn:uuid:802a42d4-a2da-11ef-6298-020000000000"/>
               <display value="E. XXX_Zegers"/>
            </subject>
            <effectiveDateTime value="2017-07-09"/>
            <performer>
               <extension url="http://nictiz.nl/fhir/StructureDefinition/practitionerrole-reference">
                  <valueReference>
                     <reference value="urn:uuid:802a4305-a2da-11ef-6298-020000000000"/>
                     <display value="Responsible Party"/>
                  </valueReference>
               </extension>
               <reference value="https://example.org/fhir/Practitioner/2.16.528.1.1007.3.1-900014718"/>
               <display value="Responsible Party"/>
            </performer>
            <valueQuantity>
               <value value="93"/>
               <unit value="mm[Hg]"/>
               <system value="http://unitsofmeasure.org"/>
               <code value="mm[Hg]"/>
            </valueQuantity>
            <interpretation>
               <coding>
                  <system value="http://hl7.org/fhir/v2/0078"/>
                  <code value="H"/>
                  <display value="High"/>
               </coding>
            </interpretation>
            <referenceRange>
               <low>
                  <extension url="http://hl7.org/fhir/StructureDefinition/iso21090-nullFlavor">
                     <valueCode value="NINF"/>
                  </extension>
               </low>
               <high>
                  <value value="89"/>
                  <unit value="mm[Hg]"/>
                  <system value="http://unitsofmeasure.org"/>
                  <code value="mm[Hg]"/>
               </high>
               <type>
                  <coding>
                     <system value="http://hl7.org/fhir/referencerange-meaning"/>
                     <code value="normal"/>
                     <display value="Normal Range"/>
                  </coding>
               </type>
            </referenceRange>
         </Observation>
      </resource>
      <search>
         <mode value="match"/>
      </search>
   </entry>
   <entry>
      <fullUrl value="https://example.org/fhir/Observation/2.16.840.1.113883.2.4.6.6.90000258.4.7-21105"/>
      <resource>
         <Observation>
            <id value="2.16.840.1.113883.2.4.6.6.90000258.4.7-21105"/>
            <meta>
               <profile value="http://nictiz.nl/fhir/StructureDefinition/gp-DiagnosticResult"/>
            </meta>
            <text>
               <status value="extensions"/>
               <div xmlns="http://www.w3.org/1999/xhtml">
                  <table>
                     <caption>Observatie/bepaling. Subject: E. XXX_Zegers. Id: 21105 (urn:oid:2.16.840.1.113883.2.4.6.6.90000258.4.7), Status: definitief
<span style="display: block;">Uitvoerende: Responsible Party</span>
                     </caption>
                     <tbody>
                        <tr>
                           <th>Bepalingdatum/tijd</th>
                           <td colspan="3">9 juli 2017</td>
                        </tr>
                        <tr>
                           <th>Code</th>
                           <th>Waarde</th>
                           <th>Interpretatie</th>
                           <th>Referentiewaarden</th>
                        </tr>
                        <tr>
                           <td>
                              <span title="polsfrequentie (1875 - nhg-tabel-45-diagnostische-bepalingen)">polsfrequentie</span>
                           </td>
                           <td>120 /min</td>
                           <td>
                              <span title="High (H - v2/0078)">High</span>
                           </td>
                           <td>
                              <div>
                                 <span title="Normal Range (normal - referencerange-meaning)">Normal Range</span> 60 /min - 100 /min</div>
                           </td>
                        </tr>
                     </tbody>
                  </table>
               </div>
            </text>
            <identifier>
               <system value="urn:oid:2.16.840.1.113883.2.4.6.6.90000258.4.7"/>
               <value value="21105"/>
            </identifier>
            <status value="final"/>
            <code>
               <coding>
                  <system value="https://referentiemodel.nhg.org/tabellen/nhg-tabel-45-diagnostische-bepalingen"/>
                  <version value="v29"/>
                  <code value="1875"/>
                  <display value="polsfrequentie"/>
               </coding>
            </code>
            <subject>
               <reference value="urn:uuid:802a42d4-a2da-11ef-6298-020000000000"/>
               <display value="E. XXX_Zegers"/>
            </subject>
            <effectiveDateTime value="2017-07-09"/>
            <performer>
               <extension url="http://nictiz.nl/fhir/StructureDefinition/practitionerrole-reference">
                  <valueReference>
                     <reference value="urn:uuid:802a4305-a2da-11ef-6298-020000000000"/>
                     <display value="Responsible Party"/>
                  </valueReference>
               </extension>
               <reference value="https://example.org/fhir/Practitioner/2.16.528.1.1007.3.1-900014718"/>
               <display value="Responsible Party"/>
            </performer>
            <valueQuantity>
               <value value="120"/>
               <unit value="/min"/>
               <system value="http://unitsofmeasure.org"/>
               <code value="/min"/>
            </valueQuantity>
            <interpretation>
               <coding>
                  <system value="http://hl7.org/fhir/v2/0078"/>
                  <code value="H"/>
                  <display value="High"/>
               </coding>
            </interpretation>
            <referenceRange>
               <low>
                  <value value="60"/>
                  <unit value="/min"/>
                  <system value="http://unitsofmeasure.org"/>
                  <code value="/min"/>
               </low>
               <high>
                  <value value="100"/>
                  <unit value="/min"/>
                  <system value="http://unitsofmeasure.org"/>
                  <code value="/min"/>
               </high>
               <type>
                  <coding>
                     <system value="http://hl7.org/fhir/referencerange-meaning"/>
                     <code value="normal"/>
                     <display value="Normal Range"/>
                  </coding>
               </type>
            </referenceRange>
         </Observation>
      </resource>
      <search>
         <mode value="match"/>
      </search>
   </entry>
   <entry>
      <fullUrl value="https://example.org/fhir/Observation/2.16.840.1.113883.2.4.6.6.90000258.4.7-21106"/>
      <resource>
         <Observation>
            <id value="2.16.840.1.113883.2.4.6.6.90000258.4.7-21106"/>
            <meta>
               <profile value="http://nictiz.nl/fhir/StructureDefinition/gp-DiagnosticResult"/>
            </meta>
            <text>
               <status value="extensions"/>
               <div xmlns="http://www.w3.org/1999/xhtml">
                  <table>
                     <caption>Observatie/bepaling. Subject: E. XXX_Zegers. Id: 21106 (urn:oid:2.16.840.1.113883.2.4.6.6.90000258.4.7), Status: definitief
<span style="display: block;">Uitvoerende: Responsible Party</span>
                     </caption>
                     <tbody>
                        <tr>
                           <th>Bepalingdatum/tijd</th>
                           <td>9 juli 2017</td>
                        </tr>
                        <tr>
                           <th>Code</th>
                           <th>Waarde</th>
                        </tr>
                        <tr>
                           <td>
                              <span title="polsritme (2102 - nhg-tabel-45-diagnostische-bepalingen)">polsritme</span>
                           </td>
                           <td>
                              <span title="irregulair (202 - nhg-tabel-45-diagnostische-bepalingen#resultaten)">irregulair</span>
                           </td>
                        </tr>
                     </tbody>
                  </table>
               </div>
            </text>
            <identifier>
               <system value="urn:oid:2.16.840.1.113883.2.4.6.6.90000258.4.7"/>
               <value value="21106"/>
            </identifier>
            <status value="final"/>
            <code>
               <coding>
                  <system value="https://referentiemodel.nhg.org/tabellen/nhg-tabel-45-diagnostische-bepalingen"/>
                  <version value="v29"/>
                  <code value="2102"/>
                  <display value="polsritme"/>
               </coding>
            </code>
            <subject>
               <reference value="urn:uuid:802a42d4-a2da-11ef-6298-020000000000"/>
               <display value="E. XXX_Zegers"/>
            </subject>
            <effectiveDateTime value="2017-07-09"/>
            <performer>
               <extension url="http://nictiz.nl/fhir/StructureDefinition/practitionerrole-reference">
                  <valueReference>
                     <reference value="urn:uuid:802a4305-a2da-11ef-6298-020000000000"/>
                     <display value="Responsible Party"/>
                  </valueReference>
               </extension>
               <reference value="https://example.org/fhir/Practitioner/2.16.528.1.1007.3.1-900014718"/>
               <display value="Responsible Party"/>
            </performer>
            <valueCodeableConcept>
               <coding>
                  <system value="https://referentiemodel.nhg.org/tabellen/nhg-tabel-45-diagnostische-bepalingen#resultaten"/>
                  <code value="202"/>
                  <display value="irregulair"/>
               </coding>
            </valueCodeableConcept>
         </Observation>
      </resource>
      <search>
         <mode value="match"/>
      </search>
   </entry>
   <entry>
      <fullUrl value="https://example.org/fhir/Observation/2.16.840.1.113883.2.4.6.6.90000258.4.7-21107"/>
      <resource>
         <Observation>
            <id value="2.16.840.1.113883.2.4.6.6.90000258.4.7-21107"/>
            <meta>
               <profile value="http://nictiz.nl/fhir/StructureDefinition/gp-DiagnosticResult"/>
            </meta>
            <text>
               <status value="extensions"/>
               <div xmlns="http://www.w3.org/1999/xhtml">
                  <table>
                     <caption>Observatie/bepaling. Subject: E. XXX_Zegers. Id: 21107 (urn:oid:2.16.840.1.113883.2.4.6.6.90000258.4.7), Status: definitief
<span style="display: block;">Uitvoerende: Responsible Party</span>
                     </caption>
                     <tbody>
                        <tr>
                           <th>Bepalingdatum/tijd</th>
                           <td>9 juli 2017</td>
                        </tr>
                        <tr>
                           <th>Code</th>
                           <th>Waarde</th>
                        </tr>
                        <tr>
                           <td>
                              <span title="pols opmerkingen (2126 - nhg-tabel-45-diagnostische-bepalingen)">pols opmerkingen</span>
                           </td>
                           <td>linker pols C01@ST-600@</td>
                        </tr>
                     </tbody>
                  </table>
               </div>
            </text>
            <identifier>
               <system value="urn:oid:2.16.840.1.113883.2.4.6.6.90000258.4.7"/>
               <value value="21107"/>
            </identifier>
            <status value="final"/>
            <code>
               <coding>
                  <system value="https://referentiemodel.nhg.org/tabellen/nhg-tabel-45-diagnostische-bepalingen"/>
                  <version value="v29"/>
                  <code value="2126"/>
                  <display value="pols opmerkingen"/>
               </coding>
            </code>
            <subject>
               <reference value="urn:uuid:802a42d4-a2da-11ef-6298-020000000000"/>
               <display value="E. XXX_Zegers"/>
            </subject>
            <effectiveDateTime value="2017-07-09"/>
            <performer>
               <extension url="http://nictiz.nl/fhir/StructureDefinition/practitionerrole-reference">
                  <valueReference>
                     <reference value="urn:uuid:802a4305-a2da-11ef-6298-020000000000"/>
                     <display value="Responsible Party"/>
                  </valueReference>
               </extension>
               <reference value="https://example.org/fhir/Practitioner/2.16.528.1.1007.3.1-900014718"/>
               <display value="Responsible Party"/>
            </performer>
            <valueString value="linker pols C01@ST-600@"/>
         </Observation>
      </resource>
      <search>
         <mode value="match"/>
      </search>
   </entry>
   <entry>
      <fullUrl value="https://example.org/fhir/Observation/2.16.840.1.113883.2.4.6.6.90000258.4.7-21108"/>
      <resource>
         <Observation>
            <id value="2.16.840.1.113883.2.4.6.6.90000258.4.7-21108"/>
            <meta>
               <profile value="http://nictiz.nl/fhir/StructureDefinition/gp-DiagnosticResult"/>
            </meta>
            <text>
               <status value="extensions"/>
               <div xmlns="http://www.w3.org/1999/xhtml">
                  <table>
                     <caption>Observatie/bepaling. Subject: E. XXX_Zegers. Id: 21108 (urn:oid:2.16.840.1.113883.2.4.6.6.90000258.4.7), Status: definitief
<span style="display: block;">Uitvoerende: Responsible Party</span>
                     </caption>
                     <tbody>
                        <tr>
                           <th>Bepalingdatum/tijd</th>
                           <td colspan="3">30 januari 2019</td>
                        </tr>
                        <tr>
                           <th>Code</th>
                           <th>Waarde</th>
                           <th>Interpretatie</th>
                           <th>Referentiewaarden</th>
                        </tr>
                        <tr>
                           <td>
                              <span title="systolische bloeddruk (1744 - nhg-tabel-45-diagnostische-bepalingen)">systolische bloeddruk</span>
                           </td>
                           <td>180 mm[Hg]</td>
                           <td>
                              <span title="High (H - v2/0078)">High</span>
                           </td>
                           <td>
                              <div>
                                 <span title="Normal Range (normal - referencerange-meaning)">Normal Range</span>  - 140 mm[Hg]</div>
                           </td>
                        </tr>
                     </tbody>
                  </table>
               </div>
            </text>
            <identifier>
               <system value="urn:oid:2.16.840.1.113883.2.4.6.6.90000258.4.7"/>
               <value value="21108"/>
            </identifier>
            <status value="final"/>
            <code>
               <coding>
                  <system value="https://referentiemodel.nhg.org/tabellen/nhg-tabel-45-diagnostische-bepalingen"/>
                  <version value="v29"/>
                  <code value="1744"/>
                  <display value="systolische bloeddruk"/>
               </coding>
            </code>
            <subject>
               <reference value="urn:uuid:802a42d4-a2da-11ef-6298-020000000000"/>
               <display value="E. XXX_Zegers"/>
            </subject>
            <effectiveDateTime value="2019-01-30"/>
            <performer>
               <extension url="http://nictiz.nl/fhir/StructureDefinition/practitionerrole-reference">
                  <valueReference>
                     <reference value="urn:uuid:802a4305-a2da-11ef-6298-020000000000"/>
                     <display value="Responsible Party"/>
                  </valueReference>
               </extension>
               <reference value="https://example.org/fhir/Practitioner/2.16.528.1.1007.3.1-900014718"/>
               <display value="Responsible Party"/>
            </performer>
            <valueQuantity>
               <value value="180"/>
               <unit value="mm[Hg]"/>
               <system value="http://unitsofmeasure.org"/>
               <code value="mm[Hg]"/>
            </valueQuantity>
            <interpretation>
               <coding>
                  <system value="http://hl7.org/fhir/v2/0078"/>
                  <code value="H"/>
                  <display value="High"/>
               </coding>
            </interpretation>
            <referenceRange>
               <low>
                  <extension url="http://hl7.org/fhir/StructureDefinition/iso21090-nullFlavor">
                     <valueCode value="NINF"/>
                  </extension>
               </low>
               <high>
                  <value value="140"/>
                  <unit value="mm[Hg]"/>
                  <system value="http://unitsofmeasure.org"/>
                  <code value="mm[Hg]"/>
               </high>
               <type>
                  <coding>
                     <system value="http://hl7.org/fhir/referencerange-meaning"/>
                     <code value="normal"/>
                     <display value="Normal Range"/>
                  </coding>
               </type>
            </referenceRange>
         </Observation>
      </resource>
      <search>
         <mode value="match"/>
      </search>
   </entry>
   <entry>
      <fullUrl value="https://example.org/fhir/Observation/2.16.840.1.113883.2.4.6.6.90000258.4.7-21109"/>
      <resource>
         <Observation>
            <id value="2.16.840.1.113883.2.4.6.6.90000258.4.7-21109"/>
            <meta>
               <profile value="http://nictiz.nl/fhir/StructureDefinition/gp-DiagnosticResult"/>
            </meta>
            <text>
               <status value="extensions"/>
               <div xmlns="http://www.w3.org/1999/xhtml">
                  <table>
                     <caption>Observatie/bepaling. Subject: E. XXX_Zegers. Id: 21109 (urn:oid:2.16.840.1.113883.2.4.6.6.90000258.4.7), Status: definitief
<span style="display: block;">Uitvoerende: Responsible Party</span>
                     </caption>
                     <tbody>
                        <tr>
                           <th>Bepalingdatum/tijd</th>
                           <td colspan="2">30 januari 2019</td>
                        </tr>
                        <tr>
                           <th>Code</th>
                           <th>Waarde</th>
                           <th>Referentiewaarden</th>
                        </tr>
                        <tr>
                           <td>
                              <span title="diastolische bloeddruk (1740 - nhg-tabel-45-diagnostische-bepalingen)">diastolische bloeddruk</span>
                           </td>
                           <td>89 mm[Hg]</td>
                           <td>
                              <div>
                                 <span title="Normal Range (normal - referencerange-meaning)">Normal Range</span>  - 89 mm[Hg]</div>
                           </td>
                        </tr>
                     </tbody>
                  </table>
               </div>
            </text>
            <identifier>
               <system value="urn:oid:2.16.840.1.113883.2.4.6.6.90000258.4.7"/>
               <value value="21109"/>
            </identifier>
            <status value="final"/>
            <code>
               <coding>
                  <system value="https://referentiemodel.nhg.org/tabellen/nhg-tabel-45-diagnostische-bepalingen"/>
                  <version value="v29"/>
                  <code value="1740"/>
                  <display value="diastolische bloeddruk"/>
               </coding>
            </code>
            <subject>
               <reference value="urn:uuid:802a42d4-a2da-11ef-6298-020000000000"/>
               <display value="E. XXX_Zegers"/>
            </subject>
            <effectiveDateTime value="2019-01-30"/>
            <performer>
               <extension url="http://nictiz.nl/fhir/StructureDefinition/practitionerrole-reference">
                  <valueReference>
                     <reference value="urn:uuid:802a4305-a2da-11ef-6298-020000000000"/>
                     <display value="Responsible Party"/>
                  </valueReference>
               </extension>
               <reference value="https://example.org/fhir/Practitioner/2.16.528.1.1007.3.1-900014718"/>
               <display value="Responsible Party"/>
            </performer>
            <valueQuantity>
               <value value="89"/>
               <unit value="mm[Hg]"/>
               <system value="http://unitsofmeasure.org"/>
               <code value="mm[Hg]"/>
            </valueQuantity>
            <referenceRange>
               <low>
                  <extension url="http://hl7.org/fhir/StructureDefinition/iso21090-nullFlavor">
                     <valueCode value="NINF"/>
                  </extension>
               </low>
               <high>
                  <value value="89"/>
                  <unit value="mm[Hg]"/>
                  <system value="http://unitsofmeasure.org"/>
                  <code value="mm[Hg]"/>
               </high>
               <type>
                  <coding>
                     <system value="http://hl7.org/fhir/referencerange-meaning"/>
                     <code value="normal"/>
                     <display value="Normal Range"/>
                  </coding>
               </type>
            </referenceRange>
         </Observation>
      </resource>
      <search>
         <mode value="match"/>
      </search>
   </entry>
   <entry>
      <fullUrl value="https://example.org/fhir/Observation/2.16.840.1.113883.2.4.6.6.90000258.4.7-21110"/>
      <resource>
         <Observation>
            <id value="2.16.840.1.113883.2.4.6.6.90000258.4.7-21110"/>
            <meta>
               <profile value="http://nictiz.nl/fhir/StructureDefinition/gp-DiagnosticResult"/>
            </meta>
            <text>
               <status value="extensions"/>
               <div xmlns="http://www.w3.org/1999/xhtml">
                  <table>
                     <caption>Observatie/bepaling. Subject: E. XXX_Zegers. Id: 21110 (urn:oid:2.16.840.1.113883.2.4.6.6.90000258.4.7), Status: definitief
<span style="display: block;">Uitvoerende: Responsible Party</span>
                     </caption>
                     <tbody>
                        <tr>
                           <th>Bepalingdatum/tijd</th>
                           <td>30 januari 2019</td>
                        </tr>
                        <tr>
                           <th>Code</th>
                           <th>Waarde</th>
                        </tr>
                        <tr>
                           <td>
                              <span title="polsritme (2102 - nhg-tabel-45-diagnostische-bepalingen)">polsritme</span>
                           </td>
                           <td>
                              <span title="regulair (201 - nhg-tabel-45-diagnostische-bepalingen#resultaten)">regulair</span>
                           </td>
                        </tr>
                     </tbody>
                  </table>
               </div>
            </text>
            <identifier>
               <system value="urn:oid:2.16.840.1.113883.2.4.6.6.90000258.4.7"/>
               <value value="21110"/>
            </identifier>
            <status value="final"/>
            <code>
               <coding>
                  <system value="https://referentiemodel.nhg.org/tabellen/nhg-tabel-45-diagnostische-bepalingen"/>
                  <version value="v29"/>
                  <code value="2102"/>
                  <display value="polsritme"/>
               </coding>
            </code>
            <subject>
               <reference value="urn:uuid:802a42d4-a2da-11ef-6298-020000000000"/>
               <display value="E. XXX_Zegers"/>
            </subject>
            <effectiveDateTime value="2019-01-30"/>
            <performer>
               <extension url="http://nictiz.nl/fhir/StructureDefinition/practitionerrole-reference">
                  <valueReference>
                     <reference value="urn:uuid:802a4305-a2da-11ef-6298-020000000000"/>
                     <display value="Responsible Party"/>
                  </valueReference>
               </extension>
               <reference value="https://example.org/fhir/Practitioner/2.16.528.1.1007.3.1-900014718"/>
               <display value="Responsible Party"/>
            </performer>
            <valueCodeableConcept>
               <coding>
                  <system value="https://referentiemodel.nhg.org/tabellen/nhg-tabel-45-diagnostische-bepalingen#resultaten"/>
                  <code value="201"/>
                  <display value="regulair"/>
               </coding>
            </valueCodeableConcept>
         </Observation>
      </resource>
      <search>
         <mode value="match"/>
      </search>
   </entry>
   <entry>
      <fullUrl value="https://example.org/fhir/Observation/2.16.840.1.113883.2.4.6.6.90000258.4.7-21111"/>
      <resource>
         <Observation>
            <id value="2.16.840.1.113883.2.4.6.6.90000258.4.7-21111"/>
            <meta>
               <profile value="http://nictiz.nl/fhir/StructureDefinition/gp-DiagnosticResult"/>
            </meta>
            <text>
               <status value="extensions"/>
               <div xmlns="http://www.w3.org/1999/xhtml">
                  <table>
                     <caption>Observatie/bepaling. Subject: E. XXX_Zegers. Id: 21111 (urn:oid:2.16.840.1.113883.2.4.6.6.90000258.4.7), Status: definitief
<span style="display: block;">Uitvoerende: Responsible Party</span>
                     </caption>
                     <tbody>
                        <tr>
                           <th>Bepalingdatum/tijd</th>
                           <td>30 januari 2019</td>
                        </tr>
                        <tr>
                           <th>Code</th>
                           <th>Waarde</th>
                        </tr>
                        <tr>
                           <td>
                              <span title="lengte patiënt (560 - nhg-tabel-45-diagnostische-bepalingen)">lengte patiënt</span>
                           </td>
                           <td>1.72 m</td>
                        </tr>
                     </tbody>
                  </table>
               </div>
            </text>
            <identifier>
               <system value="urn:oid:2.16.840.1.113883.2.4.6.6.90000258.4.7"/>
               <value value="21111"/>
            </identifier>
            <status value="final"/>
            <code>
               <coding>
                  <system value="https://referentiemodel.nhg.org/tabellen/nhg-tabel-45-diagnostische-bepalingen"/>
                  <version value="v29"/>
                  <code value="560"/>
                  <display value="lengte patiënt"/>
               </coding>
            </code>
            <subject>
               <reference value="urn:uuid:802a42d4-a2da-11ef-6298-020000000000"/>
               <display value="E. XXX_Zegers"/>
            </subject>
            <effectiveDateTime value="2019-01-30"/>
            <performer>
               <extension url="http://nictiz.nl/fhir/StructureDefinition/practitionerrole-reference">
                  <valueReference>
                     <reference value="urn:uuid:802a4305-a2da-11ef-6298-020000000000"/>
                     <display value="Responsible Party"/>
                  </valueReference>
               </extension>
               <reference value="https://example.org/fhir/Practitioner/2.16.528.1.1007.3.1-900014718"/>
               <display value="Responsible Party"/>
            </performer>
            <valueQuantity>
               <value value="1.72"/>
               <unit value="m"/>
               <system value="http://unitsofmeasure.org"/>
               <code value="m"/>
            </valueQuantity>
         </Observation>
      </resource>
      <search>
         <mode value="match"/>
      </search>
   </entry>
   <entry>
      <fullUrl value="https://example.org/fhir/Observation/2.16.840.1.113883.2.4.6.6.90000258.4.7-21112"/>
      <resource>
         <Observation>
            <id value="2.16.840.1.113883.2.4.6.6.90000258.4.7-21112"/>
            <meta>
               <profile value="http://nictiz.nl/fhir/StructureDefinition/gp-DiagnosticResult"/>
            </meta>
            <text>
               <status value="extensions"/>
               <div xmlns="http://www.w3.org/1999/xhtml">
                  <table>
                     <caption>Observatie/bepaling. Subject: E. XXX_Zegers. Id: 21112 (urn:oid:2.16.840.1.113883.2.4.6.6.90000258.4.7), Status: definitief
<span style="display: block;">Uitvoerende: Responsible Party</span>
                     </caption>
                     <tbody>
                        <tr>
                           <th>Bepalingdatum/tijd</th>
                           <td>30 januari 2019</td>
                        </tr>
                        <tr>
                           <th>Code</th>
                           <th>Waarde</th>
                        </tr>
                        <tr>
                           <td>
                              <span title="gewicht patiënt (357 - nhg-tabel-45-diagnostische-bepalingen)">gewicht patiënt</span>
                           </td>
                           <td>80 kg</td>
                        </tr>
                     </tbody>
                  </table>
               </div>
            </text>
            <identifier>
               <system value="urn:oid:2.16.840.1.113883.2.4.6.6.90000258.4.7"/>
               <value value="21112"/>
            </identifier>
            <status value="final"/>
            <code>
               <coding>
                  <system value="https://referentiemodel.nhg.org/tabellen/nhg-tabel-45-diagnostische-bepalingen"/>
                  <version value="v29"/>
                  <code value="357"/>
                  <display value="gewicht patiënt"/>
               </coding>
            </code>
            <subject>
               <reference value="urn:uuid:802a42d4-a2da-11ef-6298-020000000000"/>
               <display value="E. XXX_Zegers"/>
            </subject>
            <effectiveDateTime value="2019-01-30"/>
            <performer>
               <extension url="http://nictiz.nl/fhir/StructureDefinition/practitionerrole-reference">
                  <valueReference>
                     <reference value="urn:uuid:802a4305-a2da-11ef-6298-020000000000"/>
                     <display value="Responsible Party"/>
                  </valueReference>
               </extension>
               <reference value="https://example.org/fhir/Practitioner/2.16.528.1.1007.3.1-900014718"/>
               <display value="Responsible Party"/>
            </performer>
            <valueQuantity>
               <value value="80"/>
               <unit value="kg"/>
               <system value="http://unitsofmeasure.org"/>
               <code value="kg"/>
            </valueQuantity>
         </Observation>
      </resource>
      <search>
         <mode value="match"/>
      </search>
   </entry>
   <entry>
      <fullUrl value="https://example.org/fhir/Observation/2.16.840.1.113883.2.4.6.6.90000258.4.7-21113"/>
      <resource>
         <Observation>
            <id value="2.16.840.1.113883.2.4.6.6.90000258.4.7-21113"/>
            <meta>
               <profile value="http://nictiz.nl/fhir/StructureDefinition/gp-DiagnosticResult"/>
            </meta>
            <text>
               <status value="extensions"/>
               <div xmlns="http://www.w3.org/1999/xhtml">
                  <table>
                     <caption>Observatie/bepaling. Subject: E. XXX_Zegers. Id: 21113 (urn:oid:2.16.840.1.113883.2.4.6.6.90000258.4.7), Status: definitief
<span style="display: block;">Uitvoerende: Responsible Party</span>
                     </caption>
                     <tbody>
                        <tr>
                           <th>Bepalingdatum/tijd</th>
                           <td colspan="2">30 januari 2019</td>
                        </tr>
                        <tr>
                           <th>Code</th>
                           <th>Waarde</th>
                           <th>Referentiewaarden</th>
                        </tr>
                        <tr>
                           <td>
                              <span title="ademhalingsfrequentie (1589 - nhg-tabel-45-diagnostische-bepalingen)">ademhalingsfrequentie</span>
                           </td>
                           <td>19 /min</td>
                           <td>
                              <div>
                                 <span title="Normal Range (normal - referencerange-meaning)">Normal Range</span>  - 20 /min</div>
                           </td>
                        </tr>
                     </tbody>
                  </table>
               </div>
            </text>
            <identifier>
               <system value="urn:oid:2.16.840.1.113883.2.4.6.6.90000258.4.7"/>
               <value value="21113"/>
            </identifier>
            <status value="final"/>
            <code>
               <coding>
                  <system value="https://referentiemodel.nhg.org/tabellen/nhg-tabel-45-diagnostische-bepalingen"/>
                  <version value="v29"/>
                  <code value="1589"/>
                  <display value="ademhalingsfrequentie"/>
               </coding>
            </code>
            <subject>
               <reference value="urn:uuid:802a42d4-a2da-11ef-6298-020000000000"/>
               <display value="E. XXX_Zegers"/>
            </subject>
            <effectiveDateTime value="2019-01-30"/>
            <performer>
               <extension url="http://nictiz.nl/fhir/StructureDefinition/practitionerrole-reference">
                  <valueReference>
                     <reference value="urn:uuid:802a4305-a2da-11ef-6298-020000000000"/>
                     <display value="Responsible Party"/>
                  </valueReference>
               </extension>
               <reference value="https://example.org/fhir/Practitioner/2.16.528.1.1007.3.1-900014718"/>
               <display value="Responsible Party"/>
            </performer>
            <valueQuantity>
               <value value="19"/>
               <unit value="/min"/>
               <system value="http://unitsofmeasure.org"/>
               <code value="/min"/>
            </valueQuantity>
            <referenceRange>
               <low>
                  <extension url="http://hl7.org/fhir/StructureDefinition/iso21090-nullFlavor">
                     <valueCode value="NINF"/>
                  </extension>
               </low>
               <high>
                  <value value="20"/>
                  <unit value="/min"/>
                  <system value="http://unitsofmeasure.org"/>
                  <code value="/min"/>
               </high>
               <type>
                  <coding>
                     <system value="http://hl7.org/fhir/referencerange-meaning"/>
                     <code value="normal"/>
                     <display value="Normal Range"/>
                  </coding>
               </type>
            </referenceRange>
         </Observation>
      </resource>
      <search>
         <mode value="match"/>
      </search>
   </entry>
   <entry>
      <fullUrl value="https://example.org/fhir/Observation/2.16.840.1.113883.2.4.6.6.90000258.4.7-21114"/>
      <resource>
         <Observation>
            <id value="2.16.840.1.113883.2.4.6.6.90000258.4.7-21114"/>
            <meta>
               <profile value="http://nictiz.nl/fhir/StructureDefinition/gp-DiagnosticResult"/>
            </meta>
            <text>
               <status value="extensions"/>
               <div xmlns="http://www.w3.org/1999/xhtml">
                  <table>
                     <caption>Observatie/bepaling. Subject: E. XXX_Zegers. Id: 21114 (urn:oid:2.16.840.1.113883.2.4.6.6.90000258.4.7), Status: definitief
<span style="display: block;">Uitvoerende: Responsible Party</span>
                     </caption>
                     <tbody>
                        <tr>
                           <th>Bepalingdatum/tijd</th>
                           <td colspan="3">30 januari 2019</td>
                        </tr>
                        <tr>
                           <th>Code</th>
                           <th>Waarde</th>
                           <th>Interpretatie</th>
                           <th>Referentiewaarden</th>
                        </tr>
                        <tr>
                           <td>
                              <span title="FEV1/FVC ratio pré-BD (1675 - nhg-tabel-45-diagnostische-bepalingen)">FEV1/FVC ratio pré-BD</span>
                           </td>
                           <td>66 %</td>
                           <td>
                              <span title="Low (L - v2/0078)">Low</span>
                           </td>
                           <td>
                              <div>
                                 <span title="Normal Range (normal - referencerange-meaning)">Normal Range</span> 70 % - </div>
                           </td>
                        </tr>
                     </tbody>
                  </table>
               </div>
            </text>
            <identifier>
               <system value="urn:oid:2.16.840.1.113883.2.4.6.6.90000258.4.7"/>
               <value value="21114"/>
            </identifier>
            <status value="final"/>
            <code>
               <coding>
                  <system value="https://referentiemodel.nhg.org/tabellen/nhg-tabel-45-diagnostische-bepalingen"/>
                  <version value="v29"/>
                  <code value="1675"/>
                  <display value="FEV1/FVC ratio pré-BD"/>
               </coding>
            </code>
            <subject>
               <reference value="urn:uuid:802a42d4-a2da-11ef-6298-020000000000"/>
               <display value="E. XXX_Zegers"/>
            </subject>
            <effectiveDateTime value="2019-01-30"/>
            <performer>
               <extension url="http://nictiz.nl/fhir/StructureDefinition/practitionerrole-reference">
                  <valueReference>
                     <reference value="urn:uuid:802a4305-a2da-11ef-6298-020000000000"/>
                     <display value="Responsible Party"/>
                  </valueReference>
               </extension>
               <reference value="https://example.org/fhir/Practitioner/2.16.528.1.1007.3.1-900014718"/>
               <display value="Responsible Party"/>
            </performer>
            <valueQuantity>
               <value value="66"/>
               <unit value="%"/>
               <system value="http://unitsofmeasure.org"/>
               <code value="%"/>
            </valueQuantity>
            <interpretation>
               <coding>
                  <system value="http://hl7.org/fhir/v2/0078"/>
                  <code value="L"/>
                  <display value="Low"/>
               </coding>
            </interpretation>
            <referenceRange>
               <low>
                  <value value="70"/>
                  <unit value="%"/>
                  <system value="http://unitsofmeasure.org"/>
                  <code value="%"/>
               </low>
               <high>
                  <extension url="http://hl7.org/fhir/StructureDefinition/iso21090-nullFlavor">
                     <valueCode value="PINF"/>
                  </extension>
               </high>
               <type>
                  <coding>
                     <system value="http://hl7.org/fhir/referencerange-meaning"/>
                     <code value="normal"/>
                     <display value="Normal Range"/>
                  </coding>
               </type>
            </referenceRange>
         </Observation>
      </resource>
      <search>
         <mode value="match"/>
      </search>
   </entry>
   <entry>
      <fullUrl value="https://example.org/fhir/Observation/2.16.840.1.113883.2.4.6.6.90000258.4.7-21115"/>
      <resource>
         <Observation>
            <id value="2.16.840.1.113883.2.4.6.6.90000258.4.7-21115"/>
            <meta>
               <profile value="http://nictiz.nl/fhir/StructureDefinition/gp-DiagnosticResult"/>
            </meta>
            <text>
               <status value="extensions"/>
               <div xmlns="http://www.w3.org/1999/xhtml">
                  <table>
                     <caption>Observatie/bepaling. Subject: E. XXX_Zegers. Id: 21115 (urn:oid:2.16.840.1.113883.2.4.6.6.90000258.4.7), Status: definitief
<span style="display: block;">Uitvoerende: Responsible Party</span>
                     </caption>
                     <tbody>
                        <tr>
                           <th>Bepalingdatum/tijd</th>
                           <td>30 januari 2019</td>
                        </tr>
                        <tr>
                           <th>Code</th>
                           <th>Waarde</th>
                        </tr>
                        <tr>
                           <td>
                              <span title="conclusie longfunctieonderzoek (1704 - nhg-tabel-45-diagnostische-bepalingen)">conclusie longfunctieonderzoek</span>
                           </td>
                           <td>CPOD C03@ST-30@</td>
                        </tr>
                     </tbody>
                  </table>
               </div>
            </text>
            <identifier>
               <system value="urn:oid:2.16.840.1.113883.2.4.6.6.90000258.4.7"/>
               <value value="21115"/>
            </identifier>
            <status value="final"/>
            <code>
               <coding>
                  <system value="https://referentiemodel.nhg.org/tabellen/nhg-tabel-45-diagnostische-bepalingen"/>
                  <version value="v29"/>
                  <code value="1704"/>
                  <display value="conclusie longfunctieonderzoek"/>
               </coding>
            </code>
            <subject>
               <reference value="urn:uuid:802a42d4-a2da-11ef-6298-020000000000"/>
               <display value="E. XXX_Zegers"/>
            </subject>
            <effectiveDateTime value="2019-01-30"/>
            <performer>
               <extension url="http://nictiz.nl/fhir/StructureDefinition/practitionerrole-reference">
                  <valueReference>
                     <reference value="urn:uuid:802a4305-a2da-11ef-6298-020000000000"/>
                     <display value="Responsible Party"/>
                  </valueReference>
               </extension>
               <reference value="https://example.org/fhir/Practitioner/2.16.528.1.1007.3.1-900014718"/>
               <display value="Responsible Party"/>
            </performer>
            <valueString value="CPOD C03@ST-30@"/>
         </Observation>
      </resource>
      <search>
         <mode value="match"/>
      </search>
   </entry>
   <entry>
      <fullUrl value="https://example.org/fhir/Observation/2.16.840.1.113883.2.4.6.6.90000258.4.7-21116"/>
      <resource>
         <Observation>
            <id value="2.16.840.1.113883.2.4.6.6.90000258.4.7-21116"/>
            <meta>
               <profile value="http://nictiz.nl/fhir/StructureDefinition/gp-DiagnosticResult"/>
            </meta>
            <text>
               <status value="extensions"/>
               <div xmlns="http://www.w3.org/1999/xhtml">
                  <table>
                     <caption>Observatie/bepaling. Subject: E. XXX_Zegers. Id: 21116 (urn:oid:2.16.840.1.113883.2.4.6.6.90000258.4.7), Status: definitief
<span style="display: block;">Uitvoerende: Responsible Party</span>
                     </caption>
                     <tbody>
                        <tr>
                           <th>Bepalingdatum/tijd</th>
                           <td>30 januari 2019</td>
                        </tr>
                        <tr>
                           <th>Code</th>
                           <th>Waarde</th>
                        </tr>
                        <tr>
                           <td>
                              <span title="roken (1739 - nhg-tabel-45-diagnostische-bepalingen)">roken</span>
                           </td>
                           <td>
                              <span title="voorheen (4 - nhg-tabel-45-diagnostische-bepalingen#resultaten)">voorheen</span>
                           </td>
                        </tr>
                     </tbody>
                  </table>
               </div>
            </text>
            <identifier>
               <system value="urn:oid:2.16.840.1.113883.2.4.6.6.90000258.4.7"/>
               <value value="21116"/>
            </identifier>
            <status value="final"/>
            <code>
               <coding>
                  <system value="https://referentiemodel.nhg.org/tabellen/nhg-tabel-45-diagnostische-bepalingen"/>
                  <version value="v29"/>
                  <code value="1739"/>
                  <display value="roken"/>
               </coding>
            </code>
            <subject>
               <reference value="urn:uuid:802a42d4-a2da-11ef-6298-020000000000"/>
               <display value="E. XXX_Zegers"/>
            </subject>
            <effectiveDateTime value="2019-01-30"/>
            <performer>
               <extension url="http://nictiz.nl/fhir/StructureDefinition/practitionerrole-reference">
                  <valueReference>
                     <reference value="urn:uuid:802a4305-a2da-11ef-6298-020000000000"/>
                     <display value="Responsible Party"/>
                  </valueReference>
               </extension>
               <reference value="https://example.org/fhir/Practitioner/2.16.528.1.1007.3.1-900014718"/>
               <display value="Responsible Party"/>
            </performer>
            <valueCodeableConcept>
               <coding>
                  <system value="https://referentiemodel.nhg.org/tabellen/nhg-tabel-45-diagnostische-bepalingen#resultaten"/>
                  <code value="4"/>
                  <display value="voorheen"/>
               </coding>
            </valueCodeableConcept>
         </Observation>
      </resource>
      <search>
         <mode value="match"/>
      </search>
   </entry>
   <entry>
      <fullUrl value="https://example.org/fhir/Observation/2.16.840.1.113883.2.4.6.6.90000258.4.7-21117"/>
      <resource>
         <Observation>
            <id value="2.16.840.1.113883.2.4.6.6.90000258.4.7-21117"/>
            <meta>
               <profile value="http://nictiz.nl/fhir/StructureDefinition/gp-DiagnosticResult"/>
            </meta>
            <text>
               <status value="extensions"/>
               <div xmlns="http://www.w3.org/1999/xhtml">
                  <table>
                     <caption>Observatie/bepaling. Subject: E. XXX_Zegers. Id: 21117 (urn:oid:2.16.840.1.113883.2.4.6.6.90000258.4.7), Status: definitief
<span style="display: block;">Uitvoerende: Responsible Party</span>
                     </caption>
                     <tbody>
                        <tr>
                           <th>Bepalingdatum/tijd</th>
                           <td>30 januari 2019</td>
                        </tr>
                        <tr>
                           <th>Code</th>
                           <th>Waarde</th>
                        </tr>
                        <tr>
                           <td>
                              <span title="aantal jaren gerookt (1991 - nhg-tabel-45-diagnostische-bepalingen)">aantal jaren gerookt</span>
                           </td>
                           <td>10 a</td>
                        </tr>
                     </tbody>
                  </table>
               </div>
            </text>
            <identifier>
               <system value="urn:oid:2.16.840.1.113883.2.4.6.6.90000258.4.7"/>
               <value value="21117"/>
            </identifier>
            <status value="final"/>
            <code>
               <coding>
                  <system value="https://referentiemodel.nhg.org/tabellen/nhg-tabel-45-diagnostische-bepalingen"/>
                  <version value="v29"/>
                  <code value="1991"/>
                  <display value="aantal jaren gerookt"/>
               </coding>
            </code>
            <subject>
               <reference value="urn:uuid:802a42d4-a2da-11ef-6298-020000000000"/>
               <display value="E. XXX_Zegers"/>
            </subject>
            <effectiveDateTime value="2019-01-30"/>
            <performer>
               <extension url="http://nictiz.nl/fhir/StructureDefinition/practitionerrole-reference">
                  <valueReference>
                     <reference value="urn:uuid:802a4305-a2da-11ef-6298-020000000000"/>
                     <display value="Responsible Party"/>
                  </valueReference>
               </extension>
               <reference value="https://example.org/fhir/Practitioner/2.16.528.1.1007.3.1-900014718"/>
               <display value="Responsible Party"/>
            </performer>
            <valueQuantity>
               <value value="10"/>
               <unit value="a"/>
               <system value="http://unitsofmeasure.org"/>
               <code value="a"/>
            </valueQuantity>
         </Observation>
      </resource>
      <search>
         <mode value="match"/>
      </search>
   </entry>
   <entry>
      <fullUrl value="https://example.org/fhir/Observation/2.16.840.1.113883.2.4.6.6.90000258.4.7-21118.0.97"/>
      <resource>
         <Observation>
            <id value="2.16.840.1.113883.2.4.6.6.90000258.4.7-21118.0.97"/>
            <meta>
               <profile value="http://nictiz.nl/fhir/StructureDefinition/gp-DiagnosticResult"/>
            </meta>
            <text>
               <status value="extensions"/>
               <div xmlns="http://www.w3.org/1999/xhtml">
                  <table>
                     <caption>Observatie/bepaling. Subject: E. XXX_Zegers. Id: 21118.0.97 (urn:oid:2.16.840.1.113883.2.4.6.6.90000258.4.7), Status: definitief
<span style="display: block;">Uitvoerende: Responsible Party</span>
                     </caption>
                     <tbody>
                        <tr>
                           <th>Bepalingdatum/tijd</th>
                           <td>30 januari 2019</td>
                        </tr>
                        <tr>
                           <th>Code</th>
                           <th>Waarde</th>
                        </tr>
                        <tr>
                           <td>
                              <span title="specificatie longaandoeningen in familie (2025 - nhg-tabel-45-diagnostische-bepalingen)">specificatie longaandoeningen in familie</span>
                           </td>
                           <td>
                              <span title="astma (97 - nhg-tabel-45-diagnostische-bepalingen#resultaten)">astma</span>
                           </td>
                        </tr>
                     </tbody>
                  </table>
               </div>
            </text>
            <identifier>
               <system value="urn:oid:2.16.840.1.113883.2.4.6.6.90000258.4.7"/>
               <value value="21118.0.97"/>
            </identifier>
            <status value="final"/>
            <code>
               <coding>
                  <system value="https://referentiemodel.nhg.org/tabellen/nhg-tabel-45-diagnostische-bepalingen"/>
                  <version value="v29"/>
                  <code value="2025"/>
                  <display value="specificatie longaandoeningen in familie"/>
               </coding>
            </code>
            <subject>
               <reference value="urn:uuid:802a42d4-a2da-11ef-6298-020000000000"/>
               <display value="E. XXX_Zegers"/>
            </subject>
            <effectiveDateTime value="2019-01-30"/>
            <performer>
               <extension url="http://nictiz.nl/fhir/StructureDefinition/practitionerrole-reference">
                  <valueReference>
                     <reference value="urn:uuid:802a4305-a2da-11ef-6298-020000000000"/>
                     <display value="Responsible Party"/>
                  </valueReference>
               </extension>
               <reference value="https://example.org/fhir/Practitioner/2.16.528.1.1007.3.1-900014718"/>
               <display value="Responsible Party"/>
            </performer>
            <valueCodeableConcept>
               <coding>
                  <system value="https://referentiemodel.nhg.org/tabellen/nhg-tabel-45-diagnostische-bepalingen#resultaten"/>
                  <code value="97"/>
                  <display value="astma"/>
               </coding>
            </valueCodeableConcept>
         </Observation>
      </resource>
      <search>
         <mode value="match"/>
      </search>
   </entry>
   <entry>
      <fullUrl value="https://example.org/fhir/Observation/2.16.840.1.113883.2.4.6.6.90000258.4.7-21122"/>
      <resource>
         <Observation>
            <id value="2.16.840.1.113883.2.4.6.6.90000258.4.7-21122"/>
            <meta>
               <profile value="http://nictiz.nl/fhir/StructureDefinition/gp-DiagnosticResult"/>
            </meta>
            <text>
               <status value="extensions"/>
               <div xmlns="http://www.w3.org/1999/xhtml">
                  <table>
                     <caption>Observatie/bepaling. Subject: E. XXX_Zegers. Id: 21122 (urn:oid:2.16.840.1.113883.2.4.6.6.90000258.4.7), Status: definitief
<span style="display: block;">Uitvoerende: Responsible Party</span>
                     </caption>
                     <tbody>
                        <tr>
                           <th>Bepalingdatum/tijd</th>
                           <td colspan="2">3 februari 2019</td>
                        </tr>
                        <tr>
                           <th>Code</th>
                           <th>Waarde</th>
                           <th>Referentiewaarden</th>
                        </tr>
                        <tr>
                           <td>
                              <span title="Quetelet-index (BMI) patiënt (1272 - nhg-tabel-45-diagnostische-bepalingen)">Quetelet-index (BMI) patiënt</span>
                           </td>
                           <td>27 kg/m2</td>
                           <td>
                              <div>
                                 <span title="Normal Range (normal - referencerange-meaning)">Normal Range</span>  - 27 kg/m2</div>
                           </td>
                        </tr>
                     </tbody>
                  </table>
               </div>
            </text>
            <identifier>
               <system value="urn:oid:2.16.840.1.113883.2.4.6.6.90000258.4.7"/>
               <value value="21122"/>
            </identifier>
            <status value="final"/>
            <code>
               <coding>
                  <system value="https://referentiemodel.nhg.org/tabellen/nhg-tabel-45-diagnostische-bepalingen"/>
                  <version value="v29"/>
                  <code value="1272"/>
                  <display value="Quetelet-index (BMI) patiënt"/>
               </coding>
            </code>
            <subject>
               <reference value="urn:uuid:802a42d4-a2da-11ef-6298-020000000000"/>
               <display value="E. XXX_Zegers"/>
            </subject>
            <effectiveDateTime value="2019-02-03"/>
            <performer>
               <extension url="http://nictiz.nl/fhir/StructureDefinition/practitionerrole-reference">
                  <valueReference>
                     <reference value="urn:uuid:802a4305-a2da-11ef-6298-020000000000"/>
                     <display value="Responsible Party"/>
                  </valueReference>
               </extension>
               <reference value="https://example.org/fhir/Practitioner/2.16.528.1.1007.3.1-900014718"/>
               <display value="Responsible Party"/>
            </performer>
            <valueQuantity>
               <value value="27"/>
               <unit value="kg/m2"/>
               <system value="http://unitsofmeasure.org"/>
               <code value="kg/m2"/>
            </valueQuantity>
            <referenceRange>
               <low>
                  <extension url="http://hl7.org/fhir/StructureDefinition/iso21090-nullFlavor">
                     <valueCode value="NINF"/>
                  </extension>
               </low>
               <high>
                  <value value="27"/>
                  <unit value="kg/m2"/>
                  <system value="http://unitsofmeasure.org"/>
                  <code value="kg/m2"/>
               </high>
               <type>
                  <coding>
                     <system value="http://hl7.org/fhir/referencerange-meaning"/>
                     <code value="normal"/>
                     <display value="Normal Range"/>
                  </coding>
               </type>
            </referenceRange>
         </Observation>
      </resource>
      <search>
         <mode value="match"/>
      </search>
   </entry>
   <entry>
      <fullUrl value="https://example.org/fhir/Observation/2.16.840.1.113883.2.4.6.6.90000258.4.7-21125"/>
      <resource>
         <Observation>
            <id value="2.16.840.1.113883.2.4.6.6.90000258.4.7-21125"/>
            <meta>
               <profile value="http://nictiz.nl/fhir/StructureDefinition/gp-DiagnosticResult"/>
            </meta>
            <text>
               <status value="extensions"/>
               <div xmlns="http://www.w3.org/1999/xhtml">
                  <table>
                     <caption>Observatie/bepaling. Subject: E. XXX_Zegers. Id: 21125 (urn:oid:2.16.840.1.113883.2.4.6.6.90000258.4.7), Status: definitief
<span style="display: block;">Uitvoerende: Responsible Party</span>
                     </caption>
                     <tbody>
                        <tr>
                           <th>Bepalingdatum/tijd</th>
                           <td colspan="3">2 februari 2019</td>
                        </tr>
                        <tr>
                           <th>Code</th>
                           <th>Waarde</th>
                           <th>Interpretatie</th>
                           <th>Referentiewaarden</th>
                        </tr>
                        <tr>
                           <td>
                              <span title="systolische bloeddruk (1744 - nhg-tabel-45-diagnostische-bepalingen)">systolische bloeddruk</span>
                           </td>
                           <td>160 mm[Hg]</td>
                           <td>
                              <span title="High (H - v2/0078)">High</span>
                           </td>
                           <td>
                              <div>
                                 <span title="Normal Range (normal - referencerange-meaning)">Normal Range</span>  - 140 mm[Hg]</div>
                           </td>
                        </tr>
                     </tbody>
                  </table>
               </div>
            </text>
            <identifier>
               <system value="urn:oid:2.16.840.1.113883.2.4.6.6.90000258.4.7"/>
               <value value="21125"/>
            </identifier>
            <status value="final"/>
            <code>
               <coding>
                  <system value="https://referentiemodel.nhg.org/tabellen/nhg-tabel-45-diagnostische-bepalingen"/>
                  <version value="v29"/>
                  <code value="1744"/>
                  <display value="systolische bloeddruk"/>
               </coding>
            </code>
            <subject>
               <reference value="urn:uuid:802a42d4-a2da-11ef-6298-020000000000"/>
               <display value="E. XXX_Zegers"/>
            </subject>
            <effectiveDateTime value="2019-02-02"/>
            <performer>
               <extension url="http://nictiz.nl/fhir/StructureDefinition/practitionerrole-reference">
                  <valueReference>
                     <reference value="urn:uuid:802a4305-a2da-11ef-6298-020000000000"/>
                     <display value="Responsible Party"/>
                  </valueReference>
               </extension>
               <reference value="https://example.org/fhir/Practitioner/2.16.528.1.1007.3.1-900014718"/>
               <display value="Responsible Party"/>
            </performer>
            <valueQuantity>
               <value value="160"/>
               <unit value="mm[Hg]"/>
               <system value="http://unitsofmeasure.org"/>
               <code value="mm[Hg]"/>
            </valueQuantity>
            <interpretation>
               <coding>
                  <system value="http://hl7.org/fhir/v2/0078"/>
                  <code value="H"/>
                  <display value="High"/>
               </coding>
            </interpretation>
            <referenceRange>
               <low>
                  <extension url="http://hl7.org/fhir/StructureDefinition/iso21090-nullFlavor">
                     <valueCode value="NINF"/>
                  </extension>
               </low>
               <high>
                  <value value="140"/>
                  <unit value="mm[Hg]"/>
                  <system value="http://unitsofmeasure.org"/>
                  <code value="mm[Hg]"/>
               </high>
               <type>
                  <coding>
                     <system value="http://hl7.org/fhir/referencerange-meaning"/>
                     <code value="normal"/>
                     <display value="Normal Range"/>
                  </coding>
               </type>
            </referenceRange>
         </Observation>
      </resource>
      <search>
         <mode value="match"/>
      </search>
   </entry>
   <entry>
      <fullUrl value="https://example.org/fhir/Observation/2.16.840.1.113883.2.4.6.6.90000258.4.7-21126"/>
      <resource>
         <Observation>
            <id value="2.16.840.1.113883.2.4.6.6.90000258.4.7-21126"/>
            <meta>
               <profile value="http://nictiz.nl/fhir/StructureDefinition/gp-DiagnosticResult"/>
            </meta>
            <text>
               <status value="extensions"/>
               <div xmlns="http://www.w3.org/1999/xhtml">
                  <table>
                     <caption>Observatie/bepaling. Subject: E. XXX_Zegers. Id: 21126 (urn:oid:2.16.840.1.113883.2.4.6.6.90000258.4.7), Status: definitief
<span style="display: block;">Uitvoerende: Responsible Party</span>
                     </caption>
                     <tbody>
                        <tr>
                           <th>Bepalingdatum/tijd</th>
                           <td colspan="2">2 februari 2019</td>
                        </tr>
                        <tr>
                           <th>Code</th>
                           <th>Waarde</th>
                           <th>Referentiewaarden</th>
                        </tr>
                        <tr>
                           <td>
                              <span title="diastolische bloeddruk (1740 - nhg-tabel-45-diagnostische-bepalingen)">diastolische bloeddruk</span>
                           </td>
                           <td>80 mm[Hg]</td>
                           <td>
                              <div>
                                 <span title="Normal Range (normal - referencerange-meaning)">Normal Range</span>  - 89 mm[Hg]</div>
                           </td>
                        </tr>
                     </tbody>
                  </table>
               </div>
            </text>
            <identifier>
               <system value="urn:oid:2.16.840.1.113883.2.4.6.6.90000258.4.7"/>
               <value value="21126"/>
            </identifier>
            <status value="final"/>
            <code>
               <coding>
                  <system value="https://referentiemodel.nhg.org/tabellen/nhg-tabel-45-diagnostische-bepalingen"/>
                  <version value="v29"/>
                  <code value="1740"/>
                  <display value="diastolische bloeddruk"/>
               </coding>
            </code>
            <subject>
               <reference value="urn:uuid:802a42d4-a2da-11ef-6298-020000000000"/>
               <display value="E. XXX_Zegers"/>
            </subject>
            <effectiveDateTime value="2019-02-02"/>
            <performer>
               <extension url="http://nictiz.nl/fhir/StructureDefinition/practitionerrole-reference">
                  <valueReference>
                     <reference value="urn:uuid:802a4305-a2da-11ef-6298-020000000000"/>
                     <display value="Responsible Party"/>
                  </valueReference>
               </extension>
               <reference value="https://example.org/fhir/Practitioner/2.16.528.1.1007.3.1-900014718"/>
               <display value="Responsible Party"/>
            </performer>
            <valueQuantity>
               <value value="80"/>
               <unit value="mm[Hg]"/>
               <system value="http://unitsofmeasure.org"/>
               <code value="mm[Hg]"/>
            </valueQuantity>
            <referenceRange>
               <low>
                  <extension url="http://hl7.org/fhir/StructureDefinition/iso21090-nullFlavor">
                     <valueCode value="NINF"/>
                  </extension>
               </low>
               <high>
                  <value value="89"/>
                  <unit value="mm[Hg]"/>
                  <system value="http://unitsofmeasure.org"/>
                  <code value="mm[Hg]"/>
               </high>
               <type>
                  <coding>
                     <system value="http://hl7.org/fhir/referencerange-meaning"/>
                     <code value="normal"/>
                     <display value="Normal Range"/>
                  </coding>
               </type>
            </referenceRange>
         </Observation>
      </resource>
      <search>
         <mode value="match"/>
      </search>
   </entry>
   <entry>
      <fullUrl value="https://example.org/fhir/Observation/2.16.840.1.113883.2.4.6.6.90000258.4.7-21127"/>
      <resource>
         <Observation>
            <id value="2.16.840.1.113883.2.4.6.6.90000258.4.7-21127"/>
            <meta>
               <profile value="http://nictiz.nl/fhir/StructureDefinition/gp-DiagnosticResult"/>
            </meta>
            <text>
               <status value="extensions"/>
               <div xmlns="http://www.w3.org/1999/xhtml">
                  <table>
                     <caption>Observatie/bepaling. Subject: E. XXX_Zegers. Id: 21127 (urn:oid:2.16.840.1.113883.2.4.6.6.90000258.4.7), Status: definitief
<span style="display: block;">Uitvoerende: Responsible Party</span>
                     </caption>
                     <tbody>
                        <tr>
                           <th>Bepalingdatum/tijd</th>
                           <td colspan="2">2 februari 2019</td>
                        </tr>
                        <tr>
                           <th>Code</th>
                           <th>Waarde</th>
                           <th>Referentiewaarden</th>
                        </tr>
                        <tr>
                           <td>
                              <span title="polsfrequentie (1875 - nhg-tabel-45-diagnostische-bepalingen)">polsfrequentie</span>
                           </td>
                           <td>72 /min</td>
                           <td>
                              <div>
                                 <span title="Normal Range (normal - referencerange-meaning)">Normal Range</span> 60 /min - 100 /min</div>
                           </td>
                        </tr>
                     </tbody>
                  </table>
               </div>
            </text>
            <identifier>
               <system value="urn:oid:2.16.840.1.113883.2.4.6.6.90000258.4.7"/>
               <value value="21127"/>
            </identifier>
            <status value="final"/>
            <code>
               <coding>
                  <system value="https://referentiemodel.nhg.org/tabellen/nhg-tabel-45-diagnostische-bepalingen"/>
                  <version value="v29"/>
                  <code value="1875"/>
                  <display value="polsfrequentie"/>
               </coding>
            </code>
            <subject>
               <reference value="urn:uuid:802a42d4-a2da-11ef-6298-020000000000"/>
               <display value="E. XXX_Zegers"/>
            </subject>
            <effectiveDateTime value="2019-02-02"/>
            <performer>
               <extension url="http://nictiz.nl/fhir/StructureDefinition/practitionerrole-reference">
                  <valueReference>
                     <reference value="urn:uuid:802a4305-a2da-11ef-6298-020000000000"/>
                     <display value="Responsible Party"/>
                  </valueReference>
               </extension>
               <reference value="https://example.org/fhir/Practitioner/2.16.528.1.1007.3.1-900014718"/>
               <display value="Responsible Party"/>
            </performer>
            <valueQuantity>
               <value value="72"/>
               <unit value="/min"/>
               <system value="http://unitsofmeasure.org"/>
               <code value="/min"/>
            </valueQuantity>
            <referenceRange>
               <low>
                  <value value="60"/>
                  <unit value="/min"/>
                  <system value="http://unitsofmeasure.org"/>
                  <code value="/min"/>
               </low>
               <high>
                  <value value="100"/>
                  <unit value="/min"/>
                  <system value="http://unitsofmeasure.org"/>
                  <code value="/min"/>
               </high>
               <type>
                  <coding>
                     <system value="http://hl7.org/fhir/referencerange-meaning"/>
                     <code value="normal"/>
                     <display value="Normal Range"/>
                  </coding>
               </type>
            </referenceRange>
         </Observation>
      </resource>
      <search>
         <mode value="match"/>
      </search>
   </entry>
   <entry>
      <fullUrl value="https://example.org/fhir/Observation/2.16.840.1.113883.2.4.6.6.90000258.4.7-21128"/>
      <resource>
         <Observation>
            <id value="2.16.840.1.113883.2.4.6.6.90000258.4.7-21128"/>
            <meta>
               <profile value="http://nictiz.nl/fhir/StructureDefinition/gp-DiagnosticResult"/>
            </meta>
            <text>
               <status value="extensions"/>
               <div xmlns="http://www.w3.org/1999/xhtml">
                  <table>
                     <caption>Observatie/bepaling. Subject: E. XXX_Zegers. Id: 21128 (urn:oid:2.16.840.1.113883.2.4.6.6.90000258.4.7), Status: definitief
<span style="display: block;">Uitvoerende: Responsible Party</span>
                     </caption>
                     <tbody>
                        <tr>
                           <th>Bepalingdatum/tijd</th>
                           <td>2 februari 2019</td>
                        </tr>
                        <tr>
                           <th>Code</th>
                           <th>Waarde</th>
                        </tr>
                        <tr>
                           <td>
                              <span title="ernst/stadium COPD (GOLD classificatie) (2209 - nhg-tabel-45-diagnostische-bepalingen)">ernst/stadium COPD (GOLD classificatie)</span>
                           </td>
                           <td>
                              <span title="1: mild COPD (255 - nhg-tabel-45-diagnostische-bepalingen#resultaten)">1: mild COPD</span>
                           </td>
                        </tr>
                     </tbody>
                  </table>
               </div>
            </text>
            <identifier>
               <system value="urn:oid:2.16.840.1.113883.2.4.6.6.90000258.4.7"/>
               <value value="21128"/>
            </identifier>
            <status value="final"/>
            <code>
               <coding>
                  <system value="https://referentiemodel.nhg.org/tabellen/nhg-tabel-45-diagnostische-bepalingen"/>
                  <version value="v29"/>
                  <code value="2209"/>
                  <display value="ernst/stadium COPD (GOLD classificatie)"/>
               </coding>
            </code>
            <subject>
               <reference value="urn:uuid:802a42d4-a2da-11ef-6298-020000000000"/>
               <display value="E. XXX_Zegers"/>
            </subject>
            <effectiveDateTime value="2019-02-02"/>
            <performer>
               <extension url="http://nictiz.nl/fhir/StructureDefinition/practitionerrole-reference">
                  <valueReference>
                     <reference value="urn:uuid:802a4305-a2da-11ef-6298-020000000000"/>
                     <display value="Responsible Party"/>
                  </valueReference>
               </extension>
               <reference value="https://example.org/fhir/Practitioner/2.16.528.1.1007.3.1-900014718"/>
               <display value="Responsible Party"/>
            </performer>
            <valueCodeableConcept>
               <coding>
                  <system value="https://referentiemodel.nhg.org/tabellen/nhg-tabel-45-diagnostische-bepalingen#resultaten"/>
                  <code value="255"/>
                  <display value="1: mild COPD"/>
               </coding>
            </valueCodeableConcept>
         </Observation>
      </resource>
      <search>
         <mode value="match"/>
      </search>
   </entry>
   <entry>
      <fullUrl value="https://example.org/fhir/Observation/2.16.840.1.113883.2.4.6.6.90000258.4.7-21129"/>
      <resource>
         <Observation>
            <id value="2.16.840.1.113883.2.4.6.6.90000258.4.7-21129"/>
            <meta>
               <profile value="http://nictiz.nl/fhir/StructureDefinition/gp-DiagnosticResult"/>
            </meta>
            <text>
               <status value="extensions"/>
               <div xmlns="http://www.w3.org/1999/xhtml">
                  <table>
                     <caption>Observatie/bepaling. Subject: E. XXX_Zegers. Id: 21129 (urn:oid:2.16.840.1.113883.2.4.6.6.90000258.4.7), Status: definitief
<span style="display: block;">Uitvoerende: Responsible Party</span>
                     </caption>
                     <tbody>
                        <tr>
                           <th>Bepalingdatum/tijd</th>
                           <td>2 februari 2019</td>
                        </tr>
                        <tr>
                           <th>Code</th>
                           <th>Waarde</th>
                        </tr>
                        <tr>
                           <td>
                              <span title="temperatuur patiënt (in oor gemeten) (1913 - nhg-tabel-45-diagnostische-bepalingen)">temperatuur patiënt (in oor gemeten)</span>
                           </td>
                           <td>37.5 Cel</td>
                        </tr>
                     </tbody>
                  </table>
               </div>
            </text>
            <identifier>
               <system value="urn:oid:2.16.840.1.113883.2.4.6.6.90000258.4.7"/>
               <value value="21129"/>
            </identifier>
            <status value="final"/>
            <code>
               <coding>
                  <system value="https://referentiemodel.nhg.org/tabellen/nhg-tabel-45-diagnostische-bepalingen"/>
                  <version value="v29"/>
                  <code value="1913"/>
                  <display value="temperatuur patiënt (in oor gemeten)"/>
               </coding>
            </code>
            <subject>
               <reference value="urn:uuid:802a42d4-a2da-11ef-6298-020000000000"/>
               <display value="E. XXX_Zegers"/>
            </subject>
            <effectiveDateTime value="2019-02-02"/>
            <performer>
               <extension url="http://nictiz.nl/fhir/StructureDefinition/practitionerrole-reference">
                  <valueReference>
                     <reference value="urn:uuid:802a4305-a2da-11ef-6298-020000000000"/>
                     <display value="Responsible Party"/>
                  </valueReference>
               </extension>
               <reference value="https://example.org/fhir/Practitioner/2.16.528.1.1007.3.1-900014718"/>
               <display value="Responsible Party"/>
            </performer>
            <valueQuantity>
               <value value="37.5"/>
               <unit value="Cel"/>
               <system value="http://unitsofmeasure.org"/>
               <code value="Cel"/>
            </valueQuantity>
         </Observation>
      </resource>
      <search>
         <mode value="match"/>
      </search>
   </entry>
   <entry>
      <fullUrl value="https://example.org/fhir/Observation/2.16.840.1.113883.2.4.6.6.90000258.4.7-21130"/>
      <resource>
         <Observation>
            <id value="2.16.840.1.113883.2.4.6.6.90000258.4.7-21130"/>
            <meta>
               <profile value="http://nictiz.nl/fhir/StructureDefinition/gp-DiagnosticResult"/>
            </meta>
            <text>
               <status value="extensions"/>
               <div xmlns="http://www.w3.org/1999/xhtml">
                  <table>
                     <caption>Observatie/bepaling. Subject: E. XXX_Zegers. Id: 21130 (urn:oid:2.16.840.1.113883.2.4.6.6.90000258.4.7), Status: definitief
<span style="display: block;">Uitvoerende: Responsible Party</span>
                     </caption>
                     <tbody>
                        <tr>
                           <th>Bepalingdatum/tijd</th>
                           <td>2 februari 2019</td>
                        </tr>
                        <tr>
                           <th>Code</th>
                           <th>Waarde</th>
                        </tr>
                        <tr>
                           <td>
                              <span title="kortademigheid (anamnese) (1659 - nhg-tabel-45-diagnostische-bepalingen)">kortademigheid (anamnese)</span>
                           </td>
                           <td>
                              <span title="ja (1 - nhg-tabel-45-diagnostische-bepalingen#resultaten)">ja</span>
                           </td>
                        </tr>
                     </tbody>
                  </table>
               </div>
            </text>
            <identifier>
               <system value="urn:oid:2.16.840.1.113883.2.4.6.6.90000258.4.7"/>
               <value value="21130"/>
            </identifier>
            <status value="final"/>
            <code>
               <coding>
                  <system value="https://referentiemodel.nhg.org/tabellen/nhg-tabel-45-diagnostische-bepalingen"/>
                  <version value="v29"/>
                  <code value="1659"/>
                  <display value="kortademigheid (anamnese)"/>
               </coding>
            </code>
            <subject>
               <reference value="urn:uuid:802a42d4-a2da-11ef-6298-020000000000"/>
               <display value="E. XXX_Zegers"/>
            </subject>
            <effectiveDateTime value="2019-02-02"/>
            <performer>
               <extension url="http://nictiz.nl/fhir/StructureDefinition/practitionerrole-reference">
                  <valueReference>
                     <reference value="urn:uuid:802a4305-a2da-11ef-6298-020000000000"/>
                     <display value="Responsible Party"/>
                  </valueReference>
               </extension>
               <reference value="https://example.org/fhir/Practitioner/2.16.528.1.1007.3.1-900014718"/>
               <display value="Responsible Party"/>
            </performer>
            <valueCodeableConcept>
               <coding>
                  <system value="https://referentiemodel.nhg.org/tabellen/nhg-tabel-45-diagnostische-bepalingen#resultaten"/>
                  <code value="1"/>
                  <display value="ja"/>
               </coding>
            </valueCodeableConcept>
         </Observation>
      </resource>
      <search>
         <mode value="match"/>
      </search>
   </entry>
   <entry>
      <fullUrl value="https://example.org/fhir/Observation/2.16.840.1.113883.2.4.6.6.90000258.4.7-21131"/>
      <resource>
         <Observation>
            <id value="2.16.840.1.113883.2.4.6.6.90000258.4.7-21131"/>
            <meta>
               <profile value="http://nictiz.nl/fhir/StructureDefinition/gp-DiagnosticResult"/>
            </meta>
            <text>
               <status value="extensions"/>
               <div xmlns="http://www.w3.org/1999/xhtml">
                  <table>
                     <caption>Observatie/bepaling. Subject: E. XXX_Zegers. Id: 21131 (urn:oid:2.16.840.1.113883.2.4.6.6.90000258.4.7), Status: definitief
<span style="display: block;">Uitvoerende: Responsible Party</span>
                     </caption>
                     <tbody>
                        <tr>
                           <th>Bepalingdatum/tijd</th>
                           <td>2 februari 2019</td>
                        </tr>
                        <tr>
                           <th>Code</th>
                           <th>Waarde</th>
                        </tr>
                        <tr>
                           <td>
                              <span title="hartkloppingen (anamnese) (3258 - nhg-tabel-45-diagnostische-bepalingen)">hartkloppingen (anamnese)</span>
                           </td>
                           <td>
                              <span title="onduidelijk (8 - nhg-tabel-45-diagnostische-bepalingen#resultaten)">onduidelijk</span>
                           </td>
                        </tr>
                     </tbody>
                  </table>
               </div>
            </text>
            <identifier>
               <system value="urn:oid:2.16.840.1.113883.2.4.6.6.90000258.4.7"/>
               <value value="21131"/>
            </identifier>
            <status value="final"/>
            <code>
               <coding>
                  <system value="https://referentiemodel.nhg.org/tabellen/nhg-tabel-45-diagnostische-bepalingen"/>
                  <version value="v29"/>
                  <code value="3258"/>
                  <display value="hartkloppingen (anamnese)"/>
               </coding>
            </code>
            <subject>
               <reference value="urn:uuid:802a42d4-a2da-11ef-6298-020000000000"/>
               <display value="E. XXX_Zegers"/>
            </subject>
            <effectiveDateTime value="2019-02-02"/>
            <performer>
               <extension url="http://nictiz.nl/fhir/StructureDefinition/practitionerrole-reference">
                  <valueReference>
                     <reference value="urn:uuid:802a4305-a2da-11ef-6298-020000000000"/>
                     <display value="Responsible Party"/>
                  </valueReference>
               </extension>
               <reference value="https://example.org/fhir/Practitioner/2.16.528.1.1007.3.1-900014718"/>
               <display value="Responsible Party"/>
            </performer>
            <valueCodeableConcept>
               <coding>
                  <system value="https://referentiemodel.nhg.org/tabellen/nhg-tabel-45-diagnostische-bepalingen#resultaten"/>
                  <code value="8"/>
                  <display value="onduidelijk"/>
               </coding>
            </valueCodeableConcept>
         </Observation>
      </resource>
      <search>
         <mode value="match"/>
      </search>
   </entry>
   <entry>
      <fullUrl value="urn:uuid:802a42d4-a2da-11ef-6298-020000000000"/>
      <resource>
         <Patient>
            <meta>
               <profile value="http://fhir.nl/fhir/StructureDefinition/nl-core-patient"/>
            </meta>
            <text>
               <status value="extensions"/>
               <div xmlns="http://www.w3.org/1999/xhtml">
                  <div>Id 
<i>afgeschermd (ontbrekend gegeven)</i> (BSN), 
<span title="Naamsamenstelling: Eigennaam">E. XXX_Zegers</span>, Vrouw, 2 augustus 1964</div>
                  <div>Knolweg 1001, 9999XX STITSWERD, NL (officieel Privé (hoofd) Bezoek)</div>
               </div>
            </text>
            <identifier>
               <system value="http://fhir.nl/fhir/NamingSystem/bsn"/>
               <value>
                  <extension url="http://hl7.org/fhir/StructureDefinition/data-absent-reason">
                     <valueCode value="masked"/>
                  </extension>
               </value>
            </identifier>
            <name>
               <extension url="http://hl7.org/fhir/StructureDefinition/humanname-assembly-order">
                  <valueCode value="NL1"/>
               </extension>
               <family value="XXX_Zegers">
                  <extension url="http://hl7.org/fhir/StructureDefinition/humanname-own-name">
                     <valueString value="XXX_Zegers"/>
                  </extension>
               </family>
               <given value="E.">
                  <extension url="http://hl7.org/fhir/StructureDefinition/iso21090-EN-qualifier">
                     <valueCode value="IN"/>
                  </extension>
               </given>
            </name>
            <gender value="female">
               <extension url="http://nictiz.nl/fhir/StructureDefinition/code-specification">
                  <valueCodeableConcept>
                     <coding>
                        <system value="http://hl7.org/fhir/v3/AdministrativeGender"/>
                        <code value="F"/>
                        <display value="vrouw"/>
                     </coding>
                  </valueCodeableConcept>
               </extension>
            </gender>
            <birthDate value="1964-08-02"/>
            <address>
               <extension url="http://nictiz.nl/fhir/StructureDefinition/zib-AddressInformation-AddressType">
                  <valueCodeableConcept>
                     <coding>
                        <system value="http://hl7.org/fhir/v3/AddressUse"/>
                        <code value="HP"/>
                        <display value="Officieel adres"/>
                     </coding>
                  </valueCodeableConcept>
               </extension>
               <extension url="http://fhir.nl/fhir/StructureDefinition/nl-core-address-official">
                  <valueBoolean value="true"/>
               </extension>
               <extension url="http://hl7.org/fhir/StructureDefinition/iso21090-AD-use">
                  <valueCode value="HP"/>
               </extension>
               <use value="home"/>
               <type value="physical"/>
               <line value="Knolweg 1001">
                  <extension url="http://hl7.org/fhir/StructureDefinition/iso21090-ADXP-streetName">
                     <valueString value="Knolweg"/>
                  </extension>
                  <extension url="http://hl7.org/fhir/StructureDefinition/iso21090-ADXP-houseNumber">
                     <valueString value="1001"/>
                  </extension>
               </line>
               <city value="STITSWERD"/>
               <postalCode value="9999XX"/>
               <country value="NL">
                  <extension url="http://nictiz.nl/fhir/StructureDefinition/code-specification">
                     <valueCodeableConcept>
                        <coding>
                           <system value="urn:iso:std:iso:3166"/>
                           <code value="NL"/>
                           <display value="Nederland"/>
                        </coding>
                     </valueCodeableConcept>
                  </extension>
               </country>
            </address>
         </Patient>
      </resource>
      <search>
         <mode value="include"/>
      </search>
   </entry>
   <entry>
      <fullUrl value="https://example.org/fhir/Practitioner/2.16.528.1.1007.3.1-900014718"/>
      <resource>
         <Practitioner>
            <id value="2.16.528.1.1007.3.1-900014718"/>
            <meta>
               <profile value="http://fhir.nl/fhir/StructureDefinition/nl-core-practitioner"/>
            </meta>
            <text>
               <status value="extensions"/>
               <div xmlns="http://www.w3.org/1999/xhtml">
                  <div>Id 900014718 (UZI-NR-PERS)</div>
               </div>
            </text>
            <identifier>
               <system value="http://fhir.nl/fhir/NamingSystem/uzi-nr-pers"/>
               <value value="900014718"/>
            </identifier>
         </Practitioner>
      </resource>
      <search>
         <mode value="include"/>
      </search>
   </entry>
   <entry>
      <fullUrl value="https://example.org/fhir/Organization/2.16.528.1.1007.3.3-90000381"/>
      <resource>
         <Organization>
            <id value="2.16.528.1.1007.3.3-90000381"/>
            <meta>
               <profile value="http://fhir.nl/fhir/StructureDefinition/nl-core-organization"/>
            </meta>
            <text>
               <status value="extensions"/>
               <div xmlns="http://www.w3.org/1999/xhtml">
                  <table>
                     <caption>Organisatie. Id: 90000381 (URA)</caption>
                     <tbody>
                        <tr>
                           <th>Naam</th>
                           <td>Tést Zorginstelling 04</td>
                        </tr>
                     </tbody>
                  </table>
               </div>
            </text>
            <identifier>
               <system value="http://fhir.nl/fhir/NamingSystem/ura"/>
               <value value="90000381"/>
            </identifier>
            <name value="Tést Zorginstelling 04"/>
         </Organization>
      </resource>
      <search>
         <mode value="include"/>
      </search>
   </entry>
   <entry>
      <fullUrl value="urn:uuid:802a4305-a2da-11ef-6298-020000000000"/>
      <resource>
         <PractitionerRole>
            <meta>
               <profile value="http://fhir.nl/fhir/StructureDefinition/nl-core-practitionerrole"/>
            </meta>
            <text>
               <status value="extensions"/>
               <div xmlns="http://www.w3.org/1999/xhtml">
                  <table>
                     <caption>Zorgverlenerrol. </caption>
                     <tbody>
                        <tr>
                           <th>Zorgverlener</th>
                           <td>
                              <div>
                                 <a href="https://example.org/fhir/Practitioner/2.16.528.1.1007.3.1-900014718">Responsible Party</a>
                              </div>
                           </td>
                        </tr>
                     </tbody>
                  </table>
               </div>
            </text>
            <practitioner>
               <reference value="https://example.org/fhir/Practitioner/2.16.528.1.1007.3.1-900014718"/>
               <display value="Responsible Party"/>
            </practitioner>
         </PractitionerRole>
      </resource>
      <search>
         <mode value="include"/>
      </search>
   </entry>
</Bundle>