<?xml-model href="http://hl7.org/fhir/STU3/bundle.sch" type="application/xml" schematypens="http://purl.oclc.org/dsdl/schematron"?><Bundle xmlns="http://hl7.org/fhir"
        xmlns:xsi="http://www.w3.org/2001/XMLSchema-instance"
        xsi:schemaLocation="http://hl7.org/fhir http://hl7.org/fhir/STU3/fhir-all.xsd">
   <type value="searchset"/>
   <total value="5"/>
   <entry>
      <fullUrl value="urn:oid:2.16.840.1.113883.2.4.6.6.90000258.4.7.21120"/>
      <resource>
         <Observation>
            <meta>
               <profile value="http://nictiz.nl/fhir/StructureDefinition/gp-LaboratoryResult"/>
               <profile value="http://nictiz.nl/fhir/StructureDefinition/zib-LaboratoryTestResult-Observation"/>
            </meta>
            <identifier>
               <system value="urn:oid:2.16.840.1.113883.2.4.6.6.90000258.4.7"/>
               <value value="21120"/>
            </identifier>
            <status value="final">
               <extension url="http://nictiz.nl/fhir/StructureDefinition/code-specification">
                  <valueCodeableConcept>
                     <coding>
                        <system value="urn:oid:2.16.840.1.113883.2.4.3.11.60.40.4.16.1"/>
                        <code value="final"/>
                        <display value="Final"/>
                     </coding>
                  </valueCodeableConcept>
               </extension>
            </status>
            <category>
               <coding>
                  <system value="http://snomed.info/sct"/>
                  <code value="49581000146104"/>
               </coding>
            </category>
            <code>
               <coding>
                  <system value="https://referentiemodel.nhg.org/tabellen/nhg-tabel-45-diagnostische-bepalingen"/>
                  <code value="852"/>
                  <display value="Multi-rast (Phadiatop)"/>
               </coding>
            </code>
            <subject>
               <reference value="urn:uuid:95041c76-b2cb-11e9-1552-28f10e481d92"/>
               <display value="E. XXX_Zegers"/>
            </subject>
            <effectiveDateTime value="2019-01-30"/>
            <performer>
               <extension url="http://nictiz.nl/fhir/StructureDefinition/practitionerrole-reference">
                  <valueReference>
                     <reference value="urn:uuid:95041c83-b2cb-11e9-1552-28f10e481d92"/>
                     <display value="Responsible Party"/>
                  </valueReference>
               </extension>
               <reference value="urn:oid:2.16.528.1.1007.3.1.900014718"/>
               <display value="Responsible Party"/>
            </performer>
            <valueCodeableConcept>
               <coding>
                  <system value="https://referentiemodel.nhg.org/tabellen/nhg-tabel-45-diagnostische-bepalingen#resultaten"/>
                  <code value="32"/>
                  <display value="positief"/>
               </coding>
            </valueCodeableConcept>
         </Observation>
      </resource>
      <search>
         <mode value="match"/>
      </search>
   </entry>
   <entry>
      <fullUrl value="urn:oid:2.16.840.1.113883.2.4.6.6.90000258.4.7.21121"/>
      <resource>
         <Observation>
            <meta>
               <profile value="http://nictiz.nl/fhir/StructureDefinition/gp-LaboratoryResult"/>
               <profile value="http://nictiz.nl/fhir/StructureDefinition/zib-LaboratoryTestResult-Observation"/>
            </meta>
            <identifier>
               <system value="urn:oid:2.16.840.1.113883.2.4.6.6.90000258.4.7"/>
               <value value="21121"/>
            </identifier>
            <status value="final">
               <extension url="http://nictiz.nl/fhir/StructureDefinition/code-specification">
                  <valueCodeableConcept>
                     <coding>
                        <system value="urn:oid:2.16.840.1.113883.2.4.3.11.60.40.4.16.1"/>
                        <code value="final"/>
                        <display value="Final"/>
                     </coding>
                  </valueCodeableConcept>
               </extension>
            </status>
            <category>
               <coding>
                  <system value="http://snomed.info/sct"/>
                  <code value="49581000146104"/>
               </coding>
            </category>
            <code>
               <coding>
                  <system value="https://referentiemodel.nhg.org/tabellen/nhg-tabel-45-diagnostische-bepalingen"/>
                  <code value="2680"/>
                  <display value="zuurstofsaturatie (pulsoximeter)"/>
               </coding>
            </code>
            <subject>
               <reference value="urn:uuid:95041c76-b2cb-11e9-1552-28f10e481d92"/>
               <display value="E. XXX_Zegers"/>
            </subject>
            <effectiveDateTime value="2019-01-30"/>
            <performer>
               <extension url="http://nictiz.nl/fhir/StructureDefinition/practitionerrole-reference">
                  <valueReference>
                     <reference value="urn:uuid:95041c83-b2cb-11e9-1552-28f10e481d92"/>
                     <display value="Responsible Party"/>
                  </valueReference>
               </extension>
               <reference value="urn:oid:2.16.528.1.1007.3.1.900014718"/>
               <display value="Responsible Party"/>
            </performer>
            <valueQuantity>
               <value value="97"/>
               <unit value="%"/>
               <system value="http://unitsofmeasure.org"/>
               <code value="%"/>
            </valueQuantity>
            <interpretation>
               <coding>
                  <system value="http://hl7.org/fhir/v3/ObservationInterpretation"/>
                  <code value="N"/>
                  <display value="Normal"/>
               </coding>
            </interpretation>
         </Observation>
      </resource>
      <search>
         <mode value="match"/>
      </search>
   </entry>
   <entry>
      <fullUrl value="urn:oid:2.16.840.1.113883.2.4.6.6.90000258.4.7.21123"/>
      <resource>
         <Observation>
            <meta>
               <profile value="http://nictiz.nl/fhir/StructureDefinition/gp-LaboratoryResult"/>
               <profile value="http://nictiz.nl/fhir/StructureDefinition/zib-LaboratoryTestResult-Observation"/>
            </meta>
            <identifier>
               <system value="urn:oid:2.16.840.1.113883.2.4.6.6.90000258.4.7"/>
               <value value="21123"/>
            </identifier>
            <status value="final">
               <extension url="http://nictiz.nl/fhir/StructureDefinition/code-specification">
                  <valueCodeableConcept>
                     <coding>
                        <system value="urn:oid:2.16.840.1.113883.2.4.3.11.60.40.4.16.1"/>
                        <code value="final"/>
                        <display value="Final"/>
                     </coding>
                  </valueCodeableConcept>
               </extension>
            </status>
            <category>
               <coding>
                  <system value="http://snomed.info/sct"/>
                  <code value="49581000146104"/>
               </coding>
            </category>
            <code>
               <coding>
                  <system value="https://referentiemodel.nhg.org/tabellen/nhg-tabel-45-diagnostische-bepalingen"/>
                  <code value="2626"/>
                  <display value="huidtest hond epitheel"/>
               </coding>
            </code>
            <subject>
               <reference value="urn:uuid:95041c76-b2cb-11e9-1552-28f10e481d92"/>
               <display value="E. XXX_Zegers"/>
            </subject>
            <effectiveDateTime value="2019-02-03"/>
            <performer>
               <extension url="http://nictiz.nl/fhir/StructureDefinition/practitionerrole-reference">
                  <valueReference>
                     <reference value="urn:uuid:95041c83-b2cb-11e9-1552-28f10e481d92"/>
                     <display value="Responsible Party"/>
                  </valueReference>
               </extension>
               <reference value="urn:oid:2.16.528.1.1007.3.1.900014718"/>
               <display value="Responsible Party"/>
            </performer>
            <valueCodeableConcept>
               <coding>
                  <system value="https://referentiemodel.nhg.org/tabellen/nhg-tabel-45-diagnostische-bepalingen#resultaten"/>
                  <code value="312"/>
                  <display value="twijfelachtig"/>
               </coding>
            </valueCodeableConcept>
         </Observation>
      </resource>
      <search>
         <mode value="match"/>
      </search>
   </entry>
   <entry>
      <fullUrl value="urn:oid:2.16.840.1.113883.2.4.6.6.90000258.4.7.21124"/>
      <resource>
         <Observation>
            <meta>
               <profile value="http://nictiz.nl/fhir/StructureDefinition/gp-LaboratoryResult"/>
               <profile value="http://nictiz.nl/fhir/StructureDefinition/zib-LaboratoryTestResult-Observation"/>
            </meta>
            <identifier>
               <system value="urn:oid:2.16.840.1.113883.2.4.6.6.90000258.4.7"/>
               <value value="21124"/>
            </identifier>
            <status value="final">
               <extension url="http://nictiz.nl/fhir/StructureDefinition/code-specification">
                  <valueCodeableConcept>
                     <coding>
                        <system value="urn:oid:2.16.840.1.113883.2.4.3.11.60.40.4.16.1"/>
                        <code value="final"/>
                        <display value="Final"/>
                     </coding>
                  </valueCodeableConcept>
               </extension>
            </status>
            <category>
               <coding>
                  <system value="http://snomed.info/sct"/>
                  <code value="49581000146104"/>
               </coding>
            </category>
            <code>
               <coding>
                  <system value="https://referentiemodel.nhg.org/tabellen/nhg-tabel-45-diagnostische-bepalingen"/>
                  <code value="372"/>
                  <display value="glucose nuchter, veneus (lab)"/>
               </coding>
            </code>
            <subject>
               <reference value="urn:uuid:95041c76-b2cb-11e9-1552-28f10e481d92"/>
               <display value="E. XXX_Zegers"/>
            </subject>
            <effectiveDateTime value="2019-02-05"/>
            <performer>
               <extension url="http://nictiz.nl/fhir/StructureDefinition/practitionerrole-reference">
                  <valueReference>
                     <reference value="urn:uuid:95041c83-b2cb-11e9-1552-28f10e481d92"/>
                     <display value="Responsible Party"/>
                  </valueReference>
               </extension>
               <reference value="urn:oid:2.16.528.1.1007.3.1.900014718"/>
               <display value="Responsible Party"/>
            </performer>
            <valueQuantity>
               <value value="4.5"/>
               <unit value="mmol/L"/>
               <system value="http://unitsofmeasure.org"/>
               <code value="mmol/L"/>
            </valueQuantity>
            <interpretation>
               <coding>
                  <system value="http://hl7.org/fhir/v3/ObservationInterpretation"/>
                  <code value="N"/>
                  <display value="Normal"/>
               </coding>
            </interpretation>
         </Observation>
      </resource>
      <search>
         <mode value="match"/>
      </search>
   </entry>
   <entry>
      <fullUrl value="urn:oid:2.16.840.1.113883.2.4.6.6.90000258.4.7.21132"/>
      <resource>
         <Observation>
            <meta>
               <profile value="http://nictiz.nl/fhir/StructureDefinition/gp-LaboratoryResult"/>
               <profile value="http://nictiz.nl/fhir/StructureDefinition/zib-LaboratoryTestResult-Observation"/>
            </meta>
            <identifier>
               <system value="urn:oid:2.16.840.1.113883.2.4.6.6.90000258.4.7"/>
               <value value="21132"/>
            </identifier>
            <status value="final">
               <extension url="http://nictiz.nl/fhir/StructureDefinition/code-specification">
                  <valueCodeableConcept>
                     <coding>
                        <system value="urn:oid:2.16.840.1.113883.2.4.3.11.60.40.4.16.1"/>
                        <code value="final"/>
                        <display value="Final"/>
                     </coding>
                  </valueCodeableConcept>
               </extension>
            </status>
            <category>
               <coding>
                  <system value="http://snomed.info/sct"/>
                  <code value="49581000146104"/>
               </coding>
            </category>
            <code>
               <coding>
                  <system value="https://referentiemodel.nhg.org/tabellen/nhg-tabel-45-diagnostische-bepalingen"/>
                  <code value="2680"/>
                  <display value="zuurstofsaturatie (pulsoximeter)"/>
               </coding>
            </code>
            <subject>
               <reference value="urn:uuid:95041c76-b2cb-11e9-1552-28f10e481d92"/>
               <display value="E. XXX_Zegers"/>
            </subject>
            <effectiveDateTime value="2019-02-02"/>
            <performer>
               <extension url="http://nictiz.nl/fhir/StructureDefinition/practitionerrole-reference">
                  <valueReference>
                     <reference value="urn:uuid:95041c83-b2cb-11e9-1552-28f10e481d92"/>
                     <display value="Responsible Party"/>
                  </valueReference>
               </extension>
               <reference value="urn:oid:2.16.528.1.1007.3.1.900014718"/>
               <display value="Responsible Party"/>
            </performer>
            <valueQuantity>
               <value value="95"/>
               <unit value="%"/>
               <system value="http://unitsofmeasure.org"/>
               <code value="%"/>
            </valueQuantity>
            <interpretation>
               <coding>
                  <system value="http://hl7.org/fhir/v3/ObservationInterpretation"/>
                  <code value="N"/>
                  <display value="Normal"/>
               </coding>
            </interpretation>
         </Observation>
      </resource>
      <search>
         <mode value="match"/>
      </search>
   </entry>
   <entry>
      <fullUrl value="urn:uuid:95041c73-b2cb-11e9-1552-28f10e481d92"/>
      <resource>
         <Organization>
            <meta>
               <profile value="http://fhir.nl/fhir/StructureDefinition/nl-core-organization"/>
            </meta>
            <name value="Tést Zorginstelling 09"/>
         </Organization>
      </resource>
      <search>
         <mode value="include"/>
      </search>
   </entry>
   <entry>
      <fullUrl value="urn:uuid:95041c76-b2cb-11e9-1552-28f10e481d92"/>
      <resource>
         <Patient>
            <meta>
               <profile value="http://fhir.nl/fhir/StructureDefinition/nl-core-patient"/>
            </meta>
            <identifier>
               <extension url="http://hl7.org/fhir/StructureDefinition/data-absent-reason">
                  <valueCode value="masked"/>
               </extension>
               <system value="http://fhir.nl/fhir/NamingSystem/bsn"/>
            </identifier>
            <name>
               <extension url="http://hl7.org/fhir/StructureDefinition/humanname-assembly-order">
                  <valueCode value="NL1"/>
               </extension>
               <family value="XXX_Zegers">
                  <extension url="http://hl7.org/fhir/StructureDefinition/humanname-own-name">
                     <valueString value="XXX_Zegers"/>
                  </extension>
               </family>
               <given value="E.">
                  <extension url="http://hl7.org/fhir/StructureDefinition/iso21090-EN-qualifier">
                     <valueCode value="IN"/>
                  </extension>
               </given>
            </name>
            <gender value="female"/>
            <birthDate value="1964-08-02"/>
         </Patient>
      </resource>
      <search>
         <mode value="include"/>
      </search>
   </entry>
   <entry>
      <fullUrl value="urn:uuid:95041c83-b2cb-11e9-1552-28f10e481d92"/>
      <resource>
         <PractitionerRole>
            <meta>
               <profile value="http://fhir.nl/fhir/StructureDefinition/nl-core-practitionerrole"/>
            </meta>
            <practitioner>
               <reference value="urn:oid:2.16.528.1.1007.3.1.900014718"/>
               <display value="Responsible Party"/>
            </practitioner>
            <code>
               <coding>
                  <system value="http://hl7.org/fhir/v3/ParticipationType"/>
                  <code value="RESP"/>
                  <display value="Responsible Party"/>
               </coding>
            </code>
         </PractitionerRole>
      </resource>
      <search>
         <mode value="include"/>
      </search>
   </entry>
   <entry>
      <fullUrl value="urn:oid:2.16.528.1.1007.3.1.900014718"/>
      <resource>
         <Practitioner>
            <meta>
               <profile value="http://fhir.nl/fhir/StructureDefinition/nl-core-practitioner"/>
            </meta>
            <identifier>
               <system value="http://fhir.nl/fhir/NamingSystem/uzi-nr-pers"/>
               <value value="900014718"/>
            </identifier>
         </Practitioner>
      </resource>
      <search>
         <mode value="include"/>
      </search>
   </entry>
</Bundle>