<?xml-model href="http://hl7.org/fhir/STU3/bundle.sch" type="application/xml" schematypens="http://purl.oclc.org/dsdl/schematron"?><Bundle xmlns="http://hl7.org/fhir"
        xmlns:xsi="http://www.w3.org/2001/XMLSchema-instance"
        xsi:schemaLocation="http://hl7.org/fhir http://hl7.org/fhir/STU3/fhir-all.xsd">
   <id value="f5e99db4-5da2-11ec-5379-020000000000"/>
   <type value="searchset"/>
   <total value="7"/>
   <link>
      <relation value="self"/>
      <url value="http://dummy.nictiz.nl/dummyquery"/>
   </link>
   <entry>
      <fullUrl value="https://example.org/fhir/Observation/2.16.840.1.113883.2.4.6.6.90000258.4.7-21120"/>
      <resource>
         <Observation>
            <id value="2.16.840.1.113883.2.4.6.6.90000258.4.7-21120"/>
            <meta>
               <profile value="http://nictiz.nl/fhir/StructureDefinition/gp-LaboratoryResult"/>
               <profile value="http://nictiz.nl/fhir/StructureDefinition/zib-LaboratoryTestResult-Observation"/>
            </meta>
            <text>
               <status value="extensions"/>
               <div xmlns="http://www.w3.org/1999/xhtml">
                  <table>
                     <caption>Observatie/bepaling. Subject: E. XXX_Zegers. Id: 21120 (urn:oid:2.16.840.1.113883.2.4.6.6.90000258.4.7), Categorie: <span title="Laboratory test finding (49581000146104 - SNOMED CT)">Laboratory test finding</span>, Status: definitief<span style="display: block;">Uitvoerende: Responsible Party</span>
                     </caption>
                     <tbody>
                        <tr>
                           <th>Context</th>
                           <td>Contact ID: 996624 2.16.840.1.113883.2.4.6.6.90000258.4.1 (Id: 996624 (urn:oid:2.16.840.1.113883.2.4.6.6.90000258.4.1))</td>
                        </tr>
                        <tr>
                           <th>Bepalingdatum/tijd</th>
                           <td>30 januari 2019</td>
                        </tr>
                        <tr>
                           <th>Code</th>
                           <th>Waarde</th>
                        </tr>
                        <tr>
                           <td>
                              <span title="Multi-rast (Phadiatop) (852 - nhg-tabel-45-diagnostische-bepalingen)">Multi-rast (Phadiatop)</span>
                           </td>
                           <td>
                              <span title="positief (32 - nhg-tabel-45-diagnostische-bepalingen#resultaten)">positief</span>
                           </td>
                        </tr>
                     </tbody>
                  </table>
               </div>
            </text>
            <identifier>
               <system value="urn:oid:2.16.840.1.113883.2.4.6.6.90000258.4.7"/>
               <value value="21120"/>
            </identifier>
            <status value="final">
               <extension url="http://nictiz.nl/fhir/StructureDefinition/code-specification">
                  <valueCodeableConcept>
                     <coding>
                        <system value="urn:oid:2.16.840.1.113883.2.4.3.11.60.40.4.16.1"/>
                        <code value="final"/>
                        <display value="Final"/>
                     </coding>
                  </valueCodeableConcept>
               </extension>
            </status>
            <category>
               <coding>
                  <system value="http://snomed.info/sct"/>
                  <code value="49581000146104"/>
                  <display value="Laboratory test finding"/>
               </coding>
            </category>
            <code>
               <coding>
                  <system value="https://referentiemodel.nhg.org/tabellen/nhg-tabel-45-diagnostische-bepalingen"/>
                  <version value="v29"/>
                  <code value="852"/>
                  <display value="Multi-rast (Phadiatop)"/>
               </coding>
            </code>
            <subject>
               <reference value="urn:uuid:f5e9ad38-5da2-11ec-5379-020000000000"/>
               <display value="E. XXX_Zegers"/>
            </subject>
            <context>
               <identifier>
                  <system value="urn:oid:2.16.840.1.113883.2.4.6.6.90000258.4.1"/>
                  <value value="996624"/>
               </identifier>
               <display value="Contact ID: 996624 2.16.840.1.113883.2.4.6.6.90000258.4.1"/>
            </context>
            <effectiveDateTime value="2019-01-30"/>
            <performer>
               <extension url="http://nictiz.nl/fhir/StructureDefinition/practitionerrole-reference">
                  <valueReference>
                     <reference value="urn:uuid:f5e9ad4f-5da2-11ec-5379-020000000000"/>
                     <display value="Responsible Party"/>
                  </valueReference>
               </extension>
               <reference value="https://example.org/fhir/Practitioner/2.16.528.1.1007.3.1-900014718"/>
               <display value="Responsible Party"/>
            </performer>
            <valueCodeableConcept>
               <coding>
                  <system value="https://referentiemodel.nhg.org/tabellen/nhg-tabel-45-diagnostische-bepalingen#resultaten"/>
                  <code value="32"/>
                  <display value="positief"/>
               </coding>
            </valueCodeableConcept>
         </Observation>
      </resource>
      <search>
         <mode value="match"/>
      </search>
   </entry>
   <entry>
      <fullUrl value="https://example.org/fhir/Observation/2.16.840.1.113883.2.4.6.6.90000258.4.7-21121"/>
      <resource>
         <Observation>
            <id value="2.16.840.1.113883.2.4.6.6.90000258.4.7-21121"/>
            <meta>
               <profile value="http://nictiz.nl/fhir/StructureDefinition/gp-LaboratoryResult"/>
               <profile value="http://nictiz.nl/fhir/StructureDefinition/zib-LaboratoryTestResult-Observation"/>
            </meta>
            <text>
               <status value="extensions"/>
               <div xmlns="http://www.w3.org/1999/xhtml">
                  <table>
                     <caption>Observatie/bepaling. Subject: E. XXX_Zegers. Id: 21121 (urn:oid:2.16.840.1.113883.2.4.6.6.90000258.4.7), Categorie: <span title="Laboratory test finding (49581000146104 - SNOMED CT)">Laboratory test finding</span>, Status: definitief<span style="display: block;">Uitvoerende: Responsible Party</span>
                     </caption>
                     <tbody>
                        <tr>
                           <th>Bepalingdatum/tijd</th>
                           <td colspan="2">30 januari 2019</td>
                        </tr>
                        <tr>
                           <th>Code</th>
                           <th>Waarde</th>
                           <th>Referentiewaarden</th>
                        </tr>
                        <tr>
                           <td>
                              <span title="zuurstofsaturatie (pulsoximeter) (2680 - nhg-tabel-45-diagnostische-bepalingen)">zuurstofsaturatie (pulsoximeter)</span>
                           </td>
                           <td>97 %</td>
                           <td>
                              <div>
                                 <span title="Normal Range (normal - referencerange-meaning)">Normal Range</span> 95 % - 99 %</div>
                           </td>
                        </tr>
                     </tbody>
                  </table>
               </div>
            </text>
            <identifier>
               <system value="urn:oid:2.16.840.1.113883.2.4.6.6.90000258.4.7"/>
               <value value="21121"/>
            </identifier>
            <status value="final">
               <extension url="http://nictiz.nl/fhir/StructureDefinition/code-specification">
                  <valueCodeableConcept>
                     <coding>
                        <system value="urn:oid:2.16.840.1.113883.2.4.3.11.60.40.4.16.1"/>
                        <code value="final"/>
                        <display value="Final"/>
                     </coding>
                  </valueCodeableConcept>
               </extension>
            </status>
            <category>
               <coding>
                  <system value="http://snomed.info/sct"/>
                  <code value="49581000146104"/>
                  <display value="Laboratory test finding"/>
               </coding>
            </category>
            <code>
               <coding>
                  <system value="https://referentiemodel.nhg.org/tabellen/nhg-tabel-45-diagnostische-bepalingen"/>
                  <version value="v29"/>
                  <code value="2680"/>
                  <display value="zuurstofsaturatie (pulsoximeter)"/>
               </coding>
            </code>
            <subject>
               <reference value="urn:uuid:f5e9ad38-5da2-11ec-5379-020000000000"/>
               <display value="E. XXX_Zegers"/>
            </subject>
            <effectiveDateTime value="2019-01-30"/>
            <performer>
               <extension url="http://nictiz.nl/fhir/StructureDefinition/practitionerrole-reference">
                  <valueReference>
                     <reference value="urn:uuid:f5e9ad4f-5da2-11ec-5379-020000000000"/>
                     <display value="Responsible Party"/>
                  </valueReference>
               </extension>
               <reference value="https://example.org/fhir/Practitioner/2.16.528.1.1007.3.1-900014718"/>
               <display value="Responsible Party"/>
            </performer>
            <valueQuantity>
               <value value="97"/>
               <unit value="%"/>
               <system value="http://unitsofmeasure.org"/>
               <code value="%"/>
            </valueQuantity>
            <referenceRange>
               <low>
                  <value value="95"/>
                  <unit value="%"/>
                  <system value="http://unitsofmeasure.org"/>
                  <code value="%"/>
               </low>
               <high>
                  <value value="99"/>
                  <unit value="%"/>
                  <system value="http://unitsofmeasure.org"/>
                  <code value="%"/>
               </high>
               <type>
                  <coding>
                     <system value="http://hl7.org/fhir/referencerange-meaning"/>
                     <code value="normal"/>
                     <display value="Normal Range"/>
                  </coding>
               </type>
            </referenceRange>
         </Observation>
      </resource>
      <search>
         <mode value="match"/>
      </search>
   </entry>
   <entry>
      <fullUrl value="https://example.org/fhir/Observation/2.16.840.1.113883.2.4.6.6.90000258.4.7-21123"/>
      <resource>
         <Observation>
            <id value="2.16.840.1.113883.2.4.6.6.90000258.4.7-21123"/>
            <meta>
               <profile value="http://nictiz.nl/fhir/StructureDefinition/gp-LaboratoryResult"/>
               <profile value="http://nictiz.nl/fhir/StructureDefinition/zib-LaboratoryTestResult-Observation"/>
            </meta>
            <text>
               <status value="extensions"/>
               <div xmlns="http://www.w3.org/1999/xhtml">
                  <table>
                     <caption>Observatie/bepaling. Subject: E. XXX_Zegers. Id: 21123 (urn:oid:2.16.840.1.113883.2.4.6.6.90000258.4.7), Categorie: <span title="Laboratory test finding (49581000146104 - SNOMED CT)">Laboratory test finding</span>, Status: definitief<span style="display: block;">Uitvoerende: Responsible Party</span>
                     </caption>
                     <tbody>
                        <tr>
                           <th>Bepalingdatum/tijd</th>
                           <td>3 februari 2019</td>
                        </tr>
                        <tr>
                           <th>Code</th>
                           <th>Waarde</th>
                        </tr>
                        <tr>
                           <td>
                              <span title="huidtest hond epitheel (2626 - nhg-tabel-45-diagnostische-bepalingen)">huidtest hond epitheel</span>
                           </td>
                           <td>
                              <span title="twijfelachtig (312 - nhg-tabel-45-diagnostische-bepalingen#resultaten)">twijfelachtig</span>
                           </td>
                        </tr>
                     </tbody>
                  </table>
               </div>
            </text>
            <identifier>
               <system value="urn:oid:2.16.840.1.113883.2.4.6.6.90000258.4.7"/>
               <value value="21123"/>
            </identifier>
            <status value="final">
               <extension url="http://nictiz.nl/fhir/StructureDefinition/code-specification">
                  <valueCodeableConcept>
                     <coding>
                        <system value="urn:oid:2.16.840.1.113883.2.4.3.11.60.40.4.16.1"/>
                        <code value="final"/>
                        <display value="Final"/>
                     </coding>
                  </valueCodeableConcept>
               </extension>
            </status>
            <category>
               <coding>
                  <system value="http://snomed.info/sct"/>
                  <code value="49581000146104"/>
                  <display value="Laboratory test finding"/>
               </coding>
            </category>
            <code>
               <coding>
                  <system value="https://referentiemodel.nhg.org/tabellen/nhg-tabel-45-diagnostische-bepalingen"/>
                  <version value="v29"/>
                  <code value="2626"/>
                  <display value="huidtest hond epitheel"/>
               </coding>
            </code>
            <subject>
               <reference value="urn:uuid:f5e9ad38-5da2-11ec-5379-020000000000"/>
               <display value="E. XXX_Zegers"/>
            </subject>
            <effectiveDateTime value="2019-02-03"/>
            <performer>
               <extension url="http://nictiz.nl/fhir/StructureDefinition/practitionerrole-reference">
                  <valueReference>
                     <reference value="urn:uuid:f5e9ad4f-5da2-11ec-5379-020000000000"/>
                     <display value="Responsible Party"/>
                  </valueReference>
               </extension>
               <reference value="https://example.org/fhir/Practitioner/2.16.528.1.1007.3.1-900014718"/>
               <display value="Responsible Party"/>
            </performer>
            <valueCodeableConcept>
               <coding>
                  <system value="https://referentiemodel.nhg.org/tabellen/nhg-tabel-45-diagnostische-bepalingen#resultaten"/>
                  <code value="312"/>
                  <display value="twijfelachtig"/>
               </coding>
            </valueCodeableConcept>
         </Observation>
      </resource>
      <search>
         <mode value="match"/>
      </search>
   </entry>
   <entry>
      <fullUrl value="https://example.org/fhir/Observation/2.16.840.1.113883.2.4.6.6.90000258.4.7-21124"/>
      <resource>
         <Observation>
            <id value="2.16.840.1.113883.2.4.6.6.90000258.4.7-21124"/>
            <meta>
               <profile value="http://nictiz.nl/fhir/StructureDefinition/gp-LaboratoryResult"/>
               <profile value="http://nictiz.nl/fhir/StructureDefinition/zib-LaboratoryTestResult-Observation"/>
            </meta>
            <text>
               <status value="extensions"/>
               <div xmlns="http://www.w3.org/1999/xhtml">
                  <table>
                     <caption>Observatie/bepaling. Subject: E. XXX_Zegers. Id: 21124 (urn:oid:2.16.840.1.113883.2.4.6.6.90000258.4.7), Categorie: <span title="Laboratory test finding (49581000146104 - SNOMED CT)">Laboratory test finding</span>, Status: definitief<span style="display: block;">Uitvoerende: Responsible Party</span>
                     </caption>
                     <tbody>
                        <tr>
                           <th>Bepalingdatum/tijd</th>
                           <td colspan="2">5 februari 2019</td>
                        </tr>
                        <tr>
                           <th>Code</th>
                           <th>Waarde</th>
                           <th>Referentiewaarden</th>
                        </tr>
                        <tr>
                           <td>
                              <span title="glucose nuchter, veneus (lab) (372 - nhg-tabel-45-diagnostische-bepalingen)">glucose nuchter, veneus (lab)</span>
                           </td>
                           <td>4.5 mmol/L</td>
                           <td>
                              <div>
                                 <span title="Normal Range (normal - referencerange-meaning)">Normal Range</span> 4 mmol/L - 8 mmol/L</div>
                           </td>
                        </tr>
                     </tbody>
                  </table>
               </div>
            </text>
            <identifier>
               <system value="urn:oid:2.16.840.1.113883.2.4.6.6.90000258.4.7"/>
               <value value="21124"/>
            </identifier>
            <status value="final">
               <extension url="http://nictiz.nl/fhir/StructureDefinition/code-specification">
                  <valueCodeableConcept>
                     <coding>
                        <system value="urn:oid:2.16.840.1.113883.2.4.3.11.60.40.4.16.1"/>
                        <code value="final"/>
                        <display value="Final"/>
                     </coding>
                  </valueCodeableConcept>
               </extension>
            </status>
            <category>
               <coding>
                  <system value="http://snomed.info/sct"/>
                  <code value="49581000146104"/>
                  <display value="Laboratory test finding"/>
               </coding>
            </category>
            <code>
               <coding>
                  <system value="https://referentiemodel.nhg.org/tabellen/nhg-tabel-45-diagnostische-bepalingen"/>
                  <version value="v29"/>
                  <code value="372"/>
                  <display value="glucose nuchter, veneus (lab)"/>
               </coding>
            </code>
            <subject>
               <reference value="urn:uuid:f5e9ad38-5da2-11ec-5379-020000000000"/>
               <display value="E. XXX_Zegers"/>
            </subject>
            <effectiveDateTime value="2019-02-05"/>
            <performer>
               <extension url="http://nictiz.nl/fhir/StructureDefinition/practitionerrole-reference">
                  <valueReference>
                     <reference value="urn:uuid:f5e9ad4f-5da2-11ec-5379-020000000000"/>
                     <display value="Responsible Party"/>
                  </valueReference>
               </extension>
               <reference value="https://example.org/fhir/Practitioner/2.16.528.1.1007.3.1-900014718"/>
               <display value="Responsible Party"/>
            </performer>
            <valueQuantity>
               <value value="4.5"/>
               <unit value="mmol/L"/>
               <system value="http://unitsofmeasure.org"/>
               <code value="mmol/L"/>
            </valueQuantity>
            <referenceRange>
               <low>
                  <value value="4"/>
                  <unit value="mmol/L"/>
                  <system value="http://unitsofmeasure.org"/>
                  <code value="mmol/L"/>
               </low>
               <high>
                  <value value="8"/>
                  <unit value="mmol/L"/>
                  <system value="http://unitsofmeasure.org"/>
                  <code value="mmol/L"/>
               </high>
               <type>
                  <coding>
                     <system value="http://hl7.org/fhir/referencerange-meaning"/>
                     <code value="normal"/>
                     <display value="Normal Range"/>
                  </coding>
               </type>
            </referenceRange>
         </Observation>
      </resource>
      <search>
         <mode value="match"/>
      </search>
   </entry>
   <entry>
      <fullUrl value="https://example.org/fhir/Observation/2.16.840.1.113883.2.4.6.6.90000258.4.7-21132"/>
      <resource>
         <Observation>
            <id value="2.16.840.1.113883.2.4.6.6.90000258.4.7-21132"/>
            <meta>
               <profile value="http://nictiz.nl/fhir/StructureDefinition/gp-LaboratoryResult"/>
               <profile value="http://nictiz.nl/fhir/StructureDefinition/zib-LaboratoryTestResult-Observation"/>
            </meta>
            <text>
               <status value="extensions"/>
               <div xmlns="http://www.w3.org/1999/xhtml">
                  <table>
                     <caption>Observatie/bepaling. Subject: E. XXX_Zegers. Id: 21132 (urn:oid:2.16.840.1.113883.2.4.6.6.90000258.4.7), Categorie: <span title="Laboratory test finding (49581000146104 - SNOMED CT)">Laboratory test finding</span>, Status: definitief<span style="display: block;">Uitvoerende: Responsible Party</span>
                     </caption>
                     <tbody>
                        <tr>
                           <th>Bepalingdatum/tijd</th>
                           <td colspan="2">2 februari 2019</td>
                        </tr>
                        <tr>
                           <th>Code</th>
                           <th>Waarde</th>
                           <th>Referentiewaarden</th>
                        </tr>
                        <tr>
                           <td>
                              <span title="zuurstofsaturatie (pulsoximeter) (2680 - nhg-tabel-45-diagnostische-bepalingen)">zuurstofsaturatie (pulsoximeter)</span>
                           </td>
                           <td>95 %</td>
                           <td>
                              <div>
                                 <span title="Normal Range (normal - referencerange-meaning)">Normal Range</span> 95 % - 99 %</div>
                           </td>
                        </tr>
                     </tbody>
                  </table>
               </div>
            </text>
            <identifier>
               <system value="urn:oid:2.16.840.1.113883.2.4.6.6.90000258.4.7"/>
               <value value="21132"/>
            </identifier>
            <status value="final">
               <extension url="http://nictiz.nl/fhir/StructureDefinition/code-specification">
                  <valueCodeableConcept>
                     <coding>
                        <system value="urn:oid:2.16.840.1.113883.2.4.3.11.60.40.4.16.1"/>
                        <code value="final"/>
                        <display value="Final"/>
                     </coding>
                  </valueCodeableConcept>
               </extension>
            </status>
            <category>
               <coding>
                  <system value="http://snomed.info/sct"/>
                  <code value="49581000146104"/>
                  <display value="Laboratory test finding"/>
               </coding>
            </category>
            <code>
               <coding>
                  <system value="https://referentiemodel.nhg.org/tabellen/nhg-tabel-45-diagnostische-bepalingen"/>
                  <version value="v29"/>
                  <code value="2680"/>
                  <display value="zuurstofsaturatie (pulsoximeter)"/>
               </coding>
            </code>
            <subject>
               <reference value="urn:uuid:f5e9ad38-5da2-11ec-5379-020000000000"/>
               <display value="E. XXX_Zegers"/>
            </subject>
            <effectiveDateTime value="2019-02-02"/>
            <performer>
               <extension url="http://nictiz.nl/fhir/StructureDefinition/practitionerrole-reference">
                  <valueReference>
                     <reference value="urn:uuid:f5e9ad4f-5da2-11ec-5379-020000000000"/>
                     <display value="Responsible Party"/>
                  </valueReference>
               </extension>
               <reference value="https://example.org/fhir/Practitioner/2.16.528.1.1007.3.1-900014718"/>
               <display value="Responsible Party"/>
            </performer>
            <valueQuantity>
               <value value="95"/>
               <unit value="%"/>
               <system value="http://unitsofmeasure.org"/>
               <code value="%"/>
            </valueQuantity>
            <referenceRange>
               <low>
                  <value value="95"/>
                  <unit value="%"/>
                  <system value="http://unitsofmeasure.org"/>
                  <code value="%"/>
               </low>
               <high>
                  <value value="99"/>
                  <unit value="%"/>
                  <system value="http://unitsofmeasure.org"/>
                  <code value="%"/>
               </high>
               <type>
                  <coding>
                     <system value="http://hl7.org/fhir/referencerange-meaning"/>
                     <code value="normal"/>
                     <display value="Normal Range"/>
                  </coding>
               </type>
            </referenceRange>
         </Observation>
      </resource>
      <search>
         <mode value="match"/>
      </search>
   </entry>
   <entry>
      <fullUrl value="https://example.org/fhir/Observation/2.16.840.1.113883.2.4.6.6.90000258.4.7-21132"/>
      <resource>
         <Observation>
            <id value="2.16.840.1.113883.2.4.6.6.90000258.4.7-21132"/>
            <meta>
               <profile value="http://nictiz.nl/fhir/StructureDefinition/gp-LaboratoryResult"/>
               <profile value="http://nictiz.nl/fhir/StructureDefinition/zib-LaboratoryTestResult-Observation"/>
            </meta>
            <text>
               <status value="extensions"/>
               <div xmlns="http://www.w3.org/1999/xhtml">
                  <table>
                     <caption>Observatie/bepaling. Subject: E. XXX_Zegers. Id: 21132 (urn:oid:2.16.840.1.113883.2.4.6.6.90000258.4.7), Categorie: <span title="Laboratory test finding (49581000146104 - SNOMED CT)">Laboratory test finding</span>, Status: definitief<span style="display: block;">Uitvoerende: Responsible Party</span>
                     </caption>
                     <tbody>
                        <tr>
                           <th>Bepalingdatum/tijd</th>
                           <td colspan="3">2 februari 2019</td>
                        </tr>
                        <tr>
                           <th>Code</th>
                           <th>Waarde</th>
                           <th>Interpretatie</th>
                           <th>Referentiewaarden</th>
                        </tr>
                        <tr>
                           <td>
                              <span title="zuurstofsaturatie (pulsoximeter) (2680 - nhg-tabel-45-diagnostische-bepalingen)">zuurstofsaturatie (pulsoximeter)</span>
                           </td>
                           <td>90 %</td>
                           <td>
                              <span title="Low (L - v2/0078)">Low</span>
                           </td>
                           <td>
                              <div>
                                 <span title="Normal Range (normal - referencerange-meaning)">Normal Range</span> 95 % - 99 %</div>
                           </td>
                        </tr>
                     </tbody>
                  </table>
               </div>
            </text>
            <identifier>
               <system value="urn:oid:2.16.840.1.113883.2.4.6.6.90000258.4.7"/>
               <value value="21132"/>
            </identifier>
            <status value="final">
               <extension url="http://nictiz.nl/fhir/StructureDefinition/code-specification">
                  <valueCodeableConcept>
                     <coding>
                        <system value="urn:oid:2.16.840.1.113883.2.4.3.11.60.40.4.16.1"/>
                        <code value="final"/>
                        <display value="Final"/>
                     </coding>
                  </valueCodeableConcept>
               </extension>
            </status>
            <category>
               <coding>
                  <system value="http://snomed.info/sct"/>
                  <code value="49581000146104"/>
                  <display value="Laboratory test finding"/>
               </coding>
            </category>
            <code>
               <coding>
                  <system value="https://referentiemodel.nhg.org/tabellen/nhg-tabel-45-diagnostische-bepalingen"/>
                  <version value="v29"/>
                  <code value="2680"/>
                  <display value="zuurstofsaturatie (pulsoximeter)"/>
               </coding>
            </code>
            <subject>
               <reference value="urn:uuid:f5e9ad38-5da2-11ec-5379-020000000000"/>
               <display value="E. XXX_Zegers"/>
            </subject>
            <effectiveDateTime value="2019-02-02"/>
            <performer>
               <extension url="http://nictiz.nl/fhir/StructureDefinition/practitionerrole-reference">
                  <valueReference>
                     <reference value="urn:uuid:f5e9ad4f-5da2-11ec-5379-020000000000"/>
                     <display value="Responsible Party"/>
                  </valueReference>
               </extension>
               <reference value="https://example.org/fhir/Practitioner/2.16.528.1.1007.3.1-900014718"/>
               <display value="Responsible Party"/>
            </performer>
            <valueQuantity>
               <value value="90"/>
               <unit value="%"/>
               <system value="http://unitsofmeasure.org"/>
               <code value="%"/>
            </valueQuantity>
            <interpretation>
               <coding>
                  <system value="http://hl7.org/fhir/v2/0078"/>
                  <code value="L"/>
                  <display value="Low"/>
               </coding>
            </interpretation>
            <referenceRange>
               <low>
                  <value value="95"/>
                  <unit value="%"/>
                  <system value="http://unitsofmeasure.org"/>
                  <code value="%"/>
               </low>
               <high>
                  <value value="99"/>
                  <unit value="%"/>
                  <system value="http://unitsofmeasure.org"/>
                  <code value="%"/>
               </high>
               <type>
                  <coding>
                     <system value="http://hl7.org/fhir/referencerange-meaning"/>
                     <code value="normal"/>
                     <display value="Normal Range"/>
                  </coding>
               </type>
            </referenceRange>
         </Observation>
      </resource>
      <search>
         <mode value="match"/>
      </search>
   </entry>
   <entry>
      <fullUrl value="https://example.org/fhir/Observation/2.16.840.1.113883.2.4.6.6.90000258.4.7-21123"/>
      <resource>
         <Observation>
            <id value="2.16.840.1.113883.2.4.6.6.90000258.4.7-21123"/>
            <meta>
               <profile value="http://nictiz.nl/fhir/StructureDefinition/gp-LaboratoryResult"/>
               <profile value="http://nictiz.nl/fhir/StructureDefinition/zib-LaboratoryTestResult-Observation"/>
            </meta>
            <text>
               <status value="extensions"/>
               <div xmlns="http://www.w3.org/1999/xhtml">
                  <table>
                     <caption>Observatie/bepaling. Subject: E. XXX_Zegers. Id: 21123 (urn:oid:2.16.840.1.113883.2.4.6.6.90000258.4.7), Categorie: <span title="Laboratory test finding (49581000146104 - SNOMED CT)">Laboratory test finding</span>, Status: definitief<span style="display: block;">Uitvoerende: Responsible Party</span>
                     </caption>
                     <tbody>
                        <tr>
                           <th>Bepalingdatum/tijd</th>
                           <td>3 februari 2019</td>
                        </tr>
                        <tr>
                           <th>Code</th>
                           <th>Waarde</th>
                        </tr>
                        <tr>
                           <td>
                              <span title="boolean test (3333333333 - nhg-tabel-45-diagnostische-bepalingen)">boolean test</span>
                           </td>
                           <td>ja</td>
                        </tr>
                     </tbody>
                  </table>
               </div>
            </text>
            <identifier>
               <system value="urn:oid:2.16.840.1.113883.2.4.6.6.90000258.4.7"/>
               <value value="21123"/>
            </identifier>
            <status value="final">
               <extension url="http://nictiz.nl/fhir/StructureDefinition/code-specification">
                  <valueCodeableConcept>
                     <coding>
                        <system value="urn:oid:2.16.840.1.113883.2.4.3.11.60.40.4.16.1"/>
                        <code value="final"/>
                        <display value="Final"/>
                     </coding>
                  </valueCodeableConcept>
               </extension>
            </status>
            <category>
               <coding>
                  <system value="http://snomed.info/sct"/>
                  <code value="49581000146104"/>
                  <display value="Laboratory test finding"/>
               </coding>
            </category>
            <code>
               <coding>
                  <system value="https://referentiemodel.nhg.org/tabellen/nhg-tabel-45-diagnostische-bepalingen"/>
                  <version value="v29"/>
                  <code value="3333333333"/>
                  <display value="boolean test"/>
               </coding>
            </code>
            <subject>
               <reference value="urn:uuid:f5e9ad38-5da2-11ec-5379-020000000000"/>
               <display value="E. XXX_Zegers"/>
            </subject>
            <effectiveDateTime value="2019-02-03"/>
            <performer>
               <extension url="http://nictiz.nl/fhir/StructureDefinition/practitionerrole-reference">
                  <valueReference>
                     <reference value="urn:uuid:f5e9ad4f-5da2-11ec-5379-020000000000"/>
                     <display value="Responsible Party"/>
                  </valueReference>
               </extension>
               <reference value="https://example.org/fhir/Practitioner/2.16.528.1.1007.3.1-900014718"/>
               <display value="Responsible Party"/>
            </performer>
            <valueBoolean value="true"/>
         </Observation>
      </resource>
      <search>
         <mode value="match"/>
      </search>
   </entry>
   <entry>
      <fullUrl value="urn:uuid:f5e9ad38-5da2-11ec-5379-020000000000"/>
      <resource>
         <Patient>
            <meta>
               <profile value="http://fhir.nl/fhir/StructureDefinition/nl-core-patient"/>
            </meta>
            <text>
               <status value="extensions"/>
               <div xmlns="http://www.w3.org/1999/xhtml">
                  <div>Id <i>afgeschermd (ontbrekend gegeven)</i> (BSN), E. XXX_Zegers, Vrouw, 2 augustus 1964</div>
                  <div>Knolweg 1001, 9999XX STITSWERD, Nederland (officieel Privé (hoofd) Bezoek)</div>
               </div>
            </text>
            <identifier>
               <system value="http://fhir.nl/fhir/NamingSystem/bsn"/>
               <value>
                  <extension url="http://hl7.org/fhir/StructureDefinition/data-absent-reason">
                     <valueCode value="masked"/>
                  </extension>
               </value>
            </identifier>
            <name>
               <extension url="http://hl7.org/fhir/StructureDefinition/humanname-assembly-order">
                  <valueCode value="NL1"/>
               </extension>
               <family value="XXX_Zegers">
                  <extension url="http://hl7.org/fhir/StructureDefinition/humanname-own-name">
                     <valueString value="XXX_Zegers"/>
                  </extension>
               </family>
               <given value="E.">
                  <extension url="http://hl7.org/fhir/StructureDefinition/iso21090-EN-qualifier">
                     <valueCode value="IN"/>
                  </extension>
               </given>
            </name>
            <gender value="female">
               <extension url="http://nictiz.nl/fhir/StructureDefinition/code-specification">
                  <valueCodeableConcept>
                     <coding>
                        <system value="http://hl7.org/fhir/v3/AdministrativeGender"/>
                        <code value="F"/>
                        <display value="vrouw"/>
                     </coding>
                  </valueCodeableConcept>
               </extension>
            </gender>
            <birthDate value="1964-08-02"/>
            <address>
               <extension url="http://nictiz.nl/fhir/StructureDefinition/zib-AddressInformation-AddressType">
                  <valueCodeableConcept>
                     <coding>
                        <system value="http://hl7.org/fhir/v3/AddressUse"/>
                        <code value="HP"/>
                        <display value="Officieel adres"/>
                     </coding>
                  </valueCodeableConcept>
               </extension>
               <extension url="http://fhir.nl/fhir/StructureDefinition/nl-core-address-official">
                  <valueBoolean value="true"/>
               </extension>
               <extension url="http://hl7.org/fhir/StructureDefinition/iso21090-AD-use">
                  <valueCode value="HP"/>
               </extension>
               <use value="home"/>
               <type value="physical"/>
               <line value="Knolweg 1001">
                  <extension url="http://hl7.org/fhir/StructureDefinition/iso21090-ADXP-streetName">
                     <valueString value="Knolweg"/>
                  </extension>
                  <extension url="http://hl7.org/fhir/StructureDefinition/iso21090-ADXP-houseNumber">
                     <valueString value="1001"/>
                  </extension>
               </line>
               <city value="STITSWERD"/>
               <postalCode value="9999XX"/>
               <country value="Nederland"/>
            </address>
         </Patient>
      </resource>
      <search>
         <mode value="include"/>
      </search>
   </entry>
   <entry>
      <fullUrl value="https://example.org/fhir/Practitioner/2.16.528.1.1007.3.1-900014718"/>
      <resource>
         <Practitioner>
            <id value="2.16.528.1.1007.3.1-900014718"/>
            <meta>
               <profile value="http://fhir.nl/fhir/StructureDefinition/nl-core-practitioner"/>
            </meta>
            <text>
               <status value="extensions"/>
               <div xmlns="http://www.w3.org/1999/xhtml">
                  <div>Id 900014718 (UZI-NR-PERS)</div>
               </div>
            </text>
            <identifier>
               <system value="http://fhir.nl/fhir/NamingSystem/uzi-nr-pers"/>
               <value value="900014718"/>
            </identifier>
         </Practitioner>
      </resource>
      <search>
         <mode value="include"/>
      </search>
   </entry>
   <entry>
      <fullUrl value="urn:uuid:f5e9ad35-5da2-11ec-5379-020000000000"/>
      <resource>
         <Organization>
            <meta>
               <profile value="http://fhir.nl/fhir/StructureDefinition/nl-core-organization"/>
            </meta>
            <text>
               <status value="extensions"/>
               <div xmlns="http://www.w3.org/1999/xhtml">
                  <table>
                     <caption>Organisatie. </caption>
                     <tbody>
                        <tr>
                           <th>Naam</th>
                           <td>Tést Zorginstelling 09</td>
                        </tr>
                     </tbody>
                  </table>
               </div>
            </text>
            <name value="Tést Zorginstelling 09"/>
         </Organization>
      </resource>
      <search>
         <mode value="include"/>
      </search>
   </entry>
   <entry>
      <fullUrl value="urn:uuid:f5e9ad4f-5da2-11ec-5379-020000000000"/>
      <resource>
         <PractitionerRole>
            <meta>
               <profile value="http://fhir.nl/fhir/StructureDefinition/nl-core-practitionerrole"/>
            </meta>
            <text>
               <status value="extensions"/>
               <div xmlns="http://www.w3.org/1999/xhtml">
                  <table>
                     <caption>Zorgverlenerrol. </caption>
                     <tbody>
                        <tr>
                           <th>Zorgverlener</th>
                           <td>
                              <div>
                                 <a href="https://example.org/fhir/Practitioner/2.16.528.1.1007.3.1-900014718">Responsible Party</a>
                              </div>
                           </td>
                        </tr>
                     </tbody>
                  </table>
               </div>
            </text>
            <practitioner>
               <reference value="https://example.org/fhir/Practitioner/2.16.528.1.1007.3.1-900014718"/>
               <display value="Responsible Party"/>
            </practitioner>
         </PractitionerRole>
      </resource>
      <search>
         <mode value="include"/>
      </search>
   </entry>
</Bundle>
