<?xml-model href="http://hl7.org/fhir/STU3/bundle.sch" type="application/xml" schematypens="http://purl.oclc.org/dsdl/schematron"?><Bundle xmlns="http://hl7.org/fhir"
        xmlns:xsi="http://www.w3.org/2001/XMLSchema-instance"
        xsi:schemaLocation="http://hl7.org/fhir http://hl7.org/fhir/STU3/fhir-all.xsd">
   <type value="searchset"/>
   <total value="7"/>
   <entry>
      <fullUrl value="urn:uuid:d21bfde1-8970-11ea-1629-020000000000"/>
      <resource>
         <MedicationRequest>
            <meta>
               <profile value="http://nictiz.nl/fhir/StructureDefinition/zib-MedicationAgreement"/>
            </meta>
            <text>
               <status value="generated"/>
               <div xmlns="http://www.w3.org/1999/xhtml">
                  <table>
                     <caption>Medicatieafspraak. Subject: E. XXX_Zegers. Id: 14996 (urn:oid:2.16.840.1.113883.2.4.6.6.90000258.4.4), Categorie: <span title="Prescription (procedure) (16076005 - SNOMED CT)">Prescription (procedure)</span>, <span style="display: block;">Intentie: aanvraag</span>
                        <span style="display: block;">Aangevraagd door: Huisarts 1 || Huisarts || Tést Zorginstelling 04</span>
                     </caption>
                     <tbody>
                        <tr>
                           <th>Medicamenteuze behandel-id</th>
                           <td>OH-MBH-1551446587306-100008363 (urn:oid:2.16.840.1.113883.2.4.6.6.90000258.1.100008363)</td>
                        </tr>
                        <tr>
                           <th>Context</th>
                           <td>Contact ID: 996624 2.16.840.1.113883.2.4.6.6.90000258.4.1 (Id: 996624 (urn:oid:2.16.840.1.113883.2.4.6.6.90000258.4.1))</td>
                        </tr>
                        <tr>
                           <th>Medicatie</th>
                           <td>PANTOPRAZOL TABLET MSR 40MG</td>
                        </tr>
                        <tr>
                           <th>Gemaakt</th>
                           <td>2018-01-29</td>
                        </tr>
                        <tr>
                           <th>Reden</th>
                           <td>
                              <ul>
                                 <li>Volgens afspraak</li>
                                 <li>Maagpijn</li>
                              </ul>
                           </td>
                        </tr>
                        <tr>
                           <th>Gebruiksduur</th>
                           <td>29 januari 2018 00:00:00 - 12 februari 2018 23:59:59</td>
                        </tr>
                        <tr>
                           <th>Doseerinstructie</th>
                           <td>
                              <div>Volgnummer: 1</div>
                              <div>Tekst: 1 keer per dag 1 tablet</div>
                              <div>Timing: <div>14 dag, dag</div>
                              </div>
                              <div>Toedieningsweg: <span title="ORAAL (9 - G-Standaard thesaurus subtabel 0007)">ORAAL</span>
                              </div>
                              <div>Dosering: 1 STUK</div>
                           </td>
                        </tr>
                     </tbody>
                  </table>
               </div>
            </text>
            <extension url="http://nictiz.nl/fhir/StructureDefinition/zib-Medication-PeriodOfUse">
               <valuePeriod>
                  <start value="2018-01-29T00:00:00+01:00"/>
                  <end value="2018-02-12T23:59:59+01:00"/>
               </valuePeriod>
            </extension>
            <extension url="http://nictiz.nl/fhir/StructureDefinition/zib-Medication-MedicationTreatment">
               <valueIdentifier>
                  <system value="urn:oid:2.16.840.1.113883.2.4.6.6.90000258.1.100008363"/>
                  <value value="OH-MBH-1551446587306-100008363"/>
               </valueIdentifier>
            </extension>
            <extension url="http://nictiz.nl/fhir/StructureDefinition/zib-Medication-CopyIndicator">
               <valueBoolean value="false"/>
            </extension>
            <identifier>
               <system value="urn:oid:2.16.840.1.113883.2.4.6.6.90000258.4.4"/>
               <value value="14996"/>
            </identifier>
            <intent value="order"/>
            <category>
               <coding>
                  <system value="http://snomed.info/sct"/>
                  <code value="16076005"/>
                  <display value="Prescription (procedure)"/>
               </coding>
               <text value="Medicatieafspraak"/>
            </category>
            <medicationReference>
               <reference value="urn:oid:2.16.840.1.113883.2.4.4.10.43044"/>
               <display value="PANTOPRAZOL TABLET MSR 40MG"/>
            </medicationReference>
            <subject>
               <reference value="urn:uuid:d21bf0c8-8970-11ea-1629-020000000000"/>
               <display value="E. XXX_Zegers"/>
            </subject>
            <context>
               <identifier>
                  <system value="urn:oid:2.16.840.1.113883.2.4.6.6.90000258.4.1"/>
                  <value value="996624"/>
               </identifier>
               <display value="Contact ID: 996624 2.16.840.1.113883.2.4.6.6.90000258.4.1"/>
            </context>
            <authoredOn value="2018-01-29"/>
            <requester>
               <agent>
                  <extension url="http://nictiz.nl/fhir/StructureDefinition/practitionerrole-reference">
                     <valueReference>
                        <reference value="urn:uuid:d21bfde8-8970-11ea-1629-020000000000"/>
                        <display value="Huisarts 1 || Huisarts || Tést Zorginstelling 04"/>
                     </valueReference>
                  </extension>
                  <reference value="urn:oid:2.16.528.1.1007.3.1.900013866"/>
                  <display value="Huisarts 1"/>
               </agent>
            </requester>
            <reasonCode>
               <coding>
                  <system value="http://hl7.org/fhir/v3/NullFlavor"/>
                  <code value="OTH"/>
                  <display value="overig"/>
               </coding>
               <text value="Volgens afspraak"/>
            </reasonCode>
            <reasonReference>
               <reference value="urn:uuid:d21bfdfc-8970-11ea-1629-020000000000"/>
               <display value="Maagpijn"/>
            </reasonReference>
            <dosageInstruction>
               <sequence value="1"/>
               <text value="1 keer per dag 1 tablet"/>
               <timing>
                  <repeat>
                     <boundsDuration>
                        <value value="14"/>
                        <unit value="dag"/>
                        <system value="http://unitsofmeasure.org"/>
                        <code value="d"/>
                     </boundsDuration>
                     <period value="1"/>
                     <periodUnit value="d"/>
                  </repeat>
               </timing>
               <route>
                  <coding>
                     <system value="urn:oid:2.16.840.1.113883.2.4.4.9"/>
                     <code value="9"/>
                     <display value="ORAAL"/>
                  </coding>
               </route>
               <doseQuantity>
                  <value value="1"/>
                  <unit value="STUK"/>
                  <system value="urn:oid:2.16.840.1.113883.2.4.4.1.900.2"/>
                  <code value="245"/>
               </doseQuantity>
            </dosageInstruction>
         </MedicationRequest>
      </resource>
      <search>
         <mode value="match"/>
      </search>
   </entry>
   <entry>
      <fullUrl value="urn:uuid:d21bfe12-8970-11ea-1629-020000000000"/>
      <resource>
         <MedicationRequest>
            <meta>
               <profile value="http://nictiz.nl/fhir/StructureDefinition/zib-MedicationAgreement"/>
            </meta>
            <text>
               <status value="generated"/>
               <div xmlns="http://www.w3.org/1999/xhtml">
                  <table>
                     <caption>Medicatieafspraak. Subject: E. XXX_Zegers. Id: 14997 (urn:oid:2.16.840.1.113883.2.4.6.6.90000258.4.4), Categorie: <span title="Prescription (procedure) (16076005 - SNOMED CT)">Prescription (procedure)</span>, <span style="display: block;">Intentie: aanvraag</span>
                        <span style="display: block;">Aangevraagd door: Huisarts 1 || Huisarts || Tést Zorginstelling 04</span>
                     </caption>
                     <tbody>
                        <tr>
                           <th>Medicamenteuze behandel-id</th>
                           <td>OH-MBH-1551446587416-100008364 (urn:oid:2.16.840.1.113883.2.4.6.6.90000258.1.100008364)</td>
                        </tr>
                        <tr>
                           <th>Context</th>
                           <td>Contact ID: 996625 2.16.840.1.113883.2.4.6.6.90000258.4.1 (Id: 996625 (urn:oid:2.16.840.1.113883.2.4.6.6.90000258.4.1))</td>
                        </tr>
                        <tr>
                           <th>Medicatie</th>
                           <td>PARACETAMOL TABLET  500MG</td>
                        </tr>
                        <tr>
                           <th>Gemaakt</th>
                           <td>2019-02-03</td>
                        </tr>
                        <tr>
                           <th>Reden</th>
                           <td>
                              <ul>
                                 <li>Volgens afspraak</li>
                                 <li>Emfyseem/COPD</li>
                              </ul>
                           </td>
                        </tr>
                        <tr>
                           <th>Gebruiksduur</th>
                           <td>3 februari 2019 00:00:00 - 7 februari 2019 23:59:59</td>
                        </tr>
                        <tr>
                           <th>Doseerinstructie</th>
                           <td>
                              <div>Volgnummer: 1</div>
                              <div>Tekst: 6 keer per dag 1 tablet, Zo nodig</div>
                              <div>Instructie: <span title="Zo nodig (1137 - nhg-tabel-25-gebruiksvoorschrift#aanvullend-numeriek)">Zo nodig</span>
                              </div>
                              <div>Timing: <div>4 dag, 0.1667 dagen</div>
                              </div>
                              <div>Zo nodig: <span title="zo nodig (1137 - nhg-tabel-25-gebruiksvoorschrift#aanvullend-numeriek)">zo nodig</span>
                              </div>
                              <div>Toedieningsweg: <span title="ORAAL (9 - G-Standaard thesaurus subtabel 0007)">ORAAL</span>
                              </div>
                              <div>Dosering: 1 STUK</div>
                           </td>
                        </tr>
                     </tbody>
                  </table>
               </div>
            </text>
            <extension url="http://nictiz.nl/fhir/StructureDefinition/zib-Medication-PeriodOfUse">
               <valuePeriod>
                  <start value="2019-02-03T00:00:00+01:00"/>
                  <end value="2019-02-07T23:59:59+01:00"/>
               </valuePeriod>
            </extension>
            <extension url="http://nictiz.nl/fhir/StructureDefinition/zib-Medication-MedicationTreatment">
               <valueIdentifier>
                  <system value="urn:oid:2.16.840.1.113883.2.4.6.6.90000258.1.100008364"/>
                  <value value="OH-MBH-1551446587416-100008364"/>
               </valueIdentifier>
            </extension>
            <extension url="http://nictiz.nl/fhir/StructureDefinition/zib-Medication-CopyIndicator">
               <valueBoolean value="false"/>
            </extension>
            <identifier>
               <system value="urn:oid:2.16.840.1.113883.2.4.6.6.90000258.4.4"/>
               <value value="14997"/>
            </identifier>
            <intent value="order"/>
            <category>
               <coding>
                  <system value="http://snomed.info/sct"/>
                  <code value="16076005"/>
                  <display value="Prescription (procedure)"/>
               </coding>
               <text value="Medicatieafspraak"/>
            </category>
            <medicationReference>
               <reference value="urn:oid:2.16.840.1.113883.2.4.4.10.67903"/>
               <display value="PARACETAMOL TABLET  500MG"/>
            </medicationReference>
            <subject>
               <reference value="urn:uuid:d21bf0c8-8970-11ea-1629-020000000000"/>
               <display value="E. XXX_Zegers"/>
            </subject>
            <context>
               <identifier>
                  <system value="urn:oid:2.16.840.1.113883.2.4.6.6.90000258.4.1"/>
                  <value value="996625"/>
               </identifier>
               <display value="Contact ID: 996625 2.16.840.1.113883.2.4.6.6.90000258.4.1"/>
            </context>
            <authoredOn value="2019-02-03"/>
            <requester>
               <agent>
                  <extension url="http://nictiz.nl/fhir/StructureDefinition/practitionerrole-reference">
                     <valueReference>
                        <reference value="urn:uuid:d21bfde8-8970-11ea-1629-020000000000"/>
                        <display value="Huisarts 1 || Huisarts || Tést Zorginstelling 04"/>
                     </valueReference>
                  </extension>
                  <reference value="urn:oid:2.16.528.1.1007.3.1.900013866"/>
                  <display value="Huisarts 1"/>
               </agent>
            </requester>
            <reasonCode>
               <coding>
                  <system value="http://hl7.org/fhir/v3/NullFlavor"/>
                  <code value="OTH"/>
                  <display value="overig"/>
               </coding>
               <text value="Volgens afspraak"/>
            </reasonCode>
            <reasonReference>
               <reference value="urn:uuid:d21c0b11-8970-11ea-1629-020000000000"/>
               <display value="Emfyseem/COPD"/>
            </reasonReference>
            <dosageInstruction>
               <sequence value="1"/>
               <text value="6 keer per dag 1 tablet, Zo nodig"/>
               <additionalInstruction>
                  <coding>
                     <system value="https://referentiemodel.nhg.org/tabellen/nhg-tabel-25-gebruiksvoorschrift#aanvullend-numeriek"/>
                     <code value="1137"/>
                     <display value="Zo nodig"/>
                  </coding>
               </additionalInstruction>
               <timing>
                  <repeat>
                     <boundsDuration>
                        <value value="4"/>
                        <unit value="dag"/>
                        <system value="http://unitsofmeasure.org"/>
                        <code value="d"/>
                     </boundsDuration>
                     <period value="0.1667"/>
                     <periodUnit value="d"/>
                  </repeat>
               </timing>
               <asNeededCodeableConcept>
                  <coding>
                     <system value="https://referentiemodel.nhg.org/tabellen/nhg-tabel-25-gebruiksvoorschrift#aanvullend-numeriek"/>
                     <code value="1137"/>
                     <display value="zo nodig"/>
                  </coding>
               </asNeededCodeableConcept>
               <route>
                  <coding>
                     <system value="urn:oid:2.16.840.1.113883.2.4.4.9"/>
                     <code value="9"/>
                     <display value="ORAAL"/>
                  </coding>
               </route>
               <doseQuantity>
                  <value value="1"/>
                  <unit value="STUK"/>
                  <system value="urn:oid:2.16.840.1.113883.2.4.4.1.900.2"/>
                  <code value="245"/>
               </doseQuantity>
            </dosageInstruction>
         </MedicationRequest>
      </resource>
      <search>
         <mode value="match"/>
      </search>
   </entry>
   <entry>
      <fullUrl value="urn:uuid:d21c0b2b-8970-11ea-1629-020000000000"/>
      <resource>
         <MedicationRequest>
            <meta>
               <profile value="http://nictiz.nl/fhir/StructureDefinition/zib-MedicationAgreement"/>
            </meta>
            <text>
               <status value="generated"/>
               <div xmlns="http://www.w3.org/1999/xhtml">
                  <table>
                     <caption>Medicatieafspraak. Subject: E. XXX_Zegers. Id: 14998 (urn:oid:2.16.840.1.113883.2.4.6.6.90000258.4.4), Categorie: <span title="Prescription (procedure) (16076005 - SNOMED CT)">Prescription (procedure)</span>, <span style="display: block;">Intentie: aanvraag</span>
                        <span style="display: block;">Aangevraagd door: Huisarts 1 || Huisarts || Tést Zorginstelling 04</span>
                     </caption>
                     <tbody>
                        <tr>
                           <th>Medicamenteuze behandel-id</th>
                           <td>OH-MBH-1551446587464-100008365 (urn:oid:2.16.840.1.113883.2.4.6.6.90000258.1.100008365)</td>
                        </tr>
                        <tr>
                           <th>Context</th>
                           <td>Contact ID: 996625 2.16.840.1.113883.2.4.6.6.90000258.4.1 (Id: 996625 (urn:oid:2.16.840.1.113883.2.4.6.6.90000258.4.1))</td>
                        </tr>
                        <tr>
                           <th>Medicatie</th>
                           <td>FLUTICASON INHALATIEPOEDER 250UG/DO 60DO DISKUS</td>
                        </tr>
                        <tr>
                           <th>Gemaakt</th>
                           <td>2019-02-03</td>
                        </tr>
                        <tr>
                           <th>Reden</th>
                           <td>
                              <ul>
                                 <li>Volgens afspraak</li>
                                 <li>Emfyseem/COPD</li>
                              </ul>
                           </td>
                        </tr>
                        <tr>
                           <th>Gebruiksduur</th>
                           <td>3 februari 2019 00:00:00 - 4 maart 2019 23:59:59</td>
                        </tr>
                        <tr>
                           <th>Doseerinstructie</th>
                           <td>
                              <div>Volgnummer: 1</div>
                              <div>Tekst: 2 keer per dag 1 inhalatie</div>
                              <div>Timing: <div>29 dag, 0.5 dagen</div>
                              </div>
                              <div>Toedieningsweg: <span title="INHALATIE (62 - G-Standaard thesaurus subtabel 0007)">INHALATIE</span>
                              </div>
                              <div>Dosering: 1 DOSIS</div>
                           </td>
                        </tr>
                     </tbody>
                  </table>
               </div>
            </text>
            <extension url="http://nictiz.nl/fhir/StructureDefinition/zib-Medication-PeriodOfUse">
               <valuePeriod>
                  <start value="2019-02-03T00:00:00+01:00"/>
                  <end value="2019-03-04T23:59:59+01:00"/>
               </valuePeriod>
            </extension>
            <extension url="http://nictiz.nl/fhir/StructureDefinition/zib-Medication-MedicationTreatment">
               <valueIdentifier>
                  <system value="urn:oid:2.16.840.1.113883.2.4.6.6.90000258.1.100008365"/>
                  <value value="OH-MBH-1551446587464-100008365"/>
               </valueIdentifier>
            </extension>
            <extension url="http://nictiz.nl/fhir/StructureDefinition/zib-Medication-CopyIndicator">
               <valueBoolean value="false"/>
            </extension>
            <identifier>
               <system value="urn:oid:2.16.840.1.113883.2.4.6.6.90000258.4.4"/>
               <value value="14998"/>
            </identifier>
            <intent value="order"/>
            <category>
               <coding>
                  <system value="http://snomed.info/sct"/>
                  <code value="16076005"/>
                  <display value="Prescription (procedure)"/>
               </coding>
               <text value="Medicatieafspraak"/>
            </category>
            <medicationReference>
               <reference value="urn:oid:2.16.840.1.113883.2.4.4.10.45632"/>
               <display value="FLUTICASON INHALATIEPOEDER 250UG/DO 60DO DISKUS"/>
            </medicationReference>
            <subject>
               <reference value="urn:uuid:d21bf0c8-8970-11ea-1629-020000000000"/>
               <display value="E. XXX_Zegers"/>
            </subject>
            <context>
               <identifier>
                  <system value="urn:oid:2.16.840.1.113883.2.4.6.6.90000258.4.1"/>
                  <value value="996625"/>
               </identifier>
               <display value="Contact ID: 996625 2.16.840.1.113883.2.4.6.6.90000258.4.1"/>
            </context>
            <authoredOn value="2019-02-03"/>
            <requester>
               <agent>
                  <extension url="http://nictiz.nl/fhir/StructureDefinition/practitionerrole-reference">
                     <valueReference>
                        <reference value="urn:uuid:d21bfde8-8970-11ea-1629-020000000000"/>
                        <display value="Huisarts 1 || Huisarts || Tést Zorginstelling 04"/>
                     </valueReference>
                  </extension>
                  <reference value="urn:oid:2.16.528.1.1007.3.1.900013866"/>
                  <display value="Huisarts 1"/>
               </agent>
            </requester>
            <reasonCode>
               <coding>
                  <system value="http://hl7.org/fhir/v3/NullFlavor"/>
                  <code value="OTH"/>
                  <display value="overig"/>
               </coding>
               <text value="Volgens afspraak"/>
            </reasonCode>
            <reasonReference>
               <reference value="urn:uuid:d21c0b11-8970-11ea-1629-020000000000"/>
               <display value="Emfyseem/COPD"/>
            </reasonReference>
            <dosageInstruction>
               <sequence value="1"/>
               <text value="2 keer per dag 1 inhalatie"/>
               <timing>
                  <repeat>
                     <boundsDuration>
                        <value value="29"/>
                        <unit value="dag"/>
                        <system value="http://unitsofmeasure.org"/>
                        <code value="d"/>
                     </boundsDuration>
                     <period value="0.5"/>
                     <periodUnit value="d"/>
                  </repeat>
               </timing>
               <route>
                  <coding>
                     <system value="urn:oid:2.16.840.1.113883.2.4.4.9"/>
                     <code value="62"/>
                     <display value="INHALATIE"/>
                  </coding>
               </route>
               <doseQuantity>
                  <value value="1"/>
                  <unit value="DOSIS"/>
                  <system value="urn:oid:2.16.840.1.113883.2.4.4.1.900.2"/>
                  <code value="208"/>
               </doseQuantity>
            </dosageInstruction>
         </MedicationRequest>
      </resource>
      <search>
         <mode value="match"/>
      </search>
   </entry>
   <entry>
      <fullUrl value="urn:uuid:d21c0b5c-8970-11ea-1629-020000000000"/>
      <resource>
         <MedicationRequest>
            <meta>
               <profile value="http://nictiz.nl/fhir/StructureDefinition/zib-MedicationAgreement"/>
            </meta>
            <text>
               <status value="generated"/>
               <div xmlns="http://www.w3.org/1999/xhtml">
                  <table>
                     <caption>Medicatieafspraak. Subject: E. XXX_Zegers. Id: 14999 (urn:oid:2.16.840.1.113883.2.4.6.6.90000258.4.4), Categorie: <span title="Prescription (procedure) (16076005 - SNOMED CT)">Prescription (procedure)</span>, <span style="display: block;">Intentie: aanvraag</span>
                        <span style="display: block;">Aangevraagd door: Huisarts 1 || Huisarts || Tést Zorginstelling 04</span>
                     </caption>
                     <tbody>
                        <tr>
                           <th>Medicamenteuze behandel-id</th>
                           <td>OH-MBH-1551446587502-100008366 (urn:oid:2.16.840.1.113883.2.4.6.6.90000258.1.100008366)</td>
                        </tr>
                        <tr>
                           <th>Context</th>
                           <td>Contact ID: 996626 2.16.840.1.113883.2.4.6.6.90000258.4.1 (Id: 996626 (urn:oid:2.16.840.1.113883.2.4.6.6.90000258.4.1))</td>
                        </tr>
                        <tr>
                           <th>Medicatie</th>
                           <td>AMOXICILLINE/CLAVULAANZUUR TABLET 500/125MG</td>
                        </tr>
                        <tr>
                           <th>Gemaakt</th>
                           <td>2019-02-06</td>
                        </tr>
                        <tr>
                           <th>Reden</th>
                           <td>
                              <ul>
                                 <li>Volgens afspraak</li>
                                 <li>Emfyseem/COPD</li>
                              </ul>
                           </td>
                        </tr>
                        <tr>
                           <th>Gebruiksduur</th>
                           <td>6 februari 2019 00:00:00 - 12 februari 2019 23:59:59</td>
                        </tr>
                        <tr>
                           <th>Doseerinstructie</th>
                           <td>
                              <div>Volgnummer: 1</div>
                              <div>Tekst: 3 keer per dag 1 tablet</div>
                              <div>Timing: <div>6 dag, 0.3333 dagen</div>
                              </div>
                              <div>Toedieningsweg: <span title="ORAAL (9 - G-Standaard thesaurus subtabel 0007)">ORAAL</span>
                              </div>
                              <div>Dosering: 1 STUK</div>
                           </td>
                        </tr>
                     </tbody>
                  </table>
               </div>
            </text>
            <extension url="http://nictiz.nl/fhir/StructureDefinition/zib-Medication-PeriodOfUse">
               <valuePeriod>
                  <start value="2019-02-06T00:00:00+01:00"/>
                  <end value="2019-02-12T23:59:59+01:00"/>
               </valuePeriod>
            </extension>
            <extension url="http://nictiz.nl/fhir/StructureDefinition/zib-Medication-MedicationTreatment">
               <valueIdentifier>
                  <system value="urn:oid:2.16.840.1.113883.2.4.6.6.90000258.1.100008366"/>
                  <value value="OH-MBH-1551446587502-100008366"/>
               </valueIdentifier>
            </extension>
            <extension url="http://nictiz.nl/fhir/StructureDefinition/zib-Medication-CopyIndicator">
               <valueBoolean value="false"/>
            </extension>
            <identifier>
               <system value="urn:oid:2.16.840.1.113883.2.4.6.6.90000258.4.4"/>
               <value value="14999"/>
            </identifier>
            <intent value="order"/>
            <category>
               <coding>
                  <system value="http://snomed.info/sct"/>
                  <code value="16076005"/>
                  <display value="Prescription (procedure)"/>
               </coding>
               <text value="Medicatieafspraak"/>
            </category>
            <medicationReference>
               <reference value="urn:oid:2.16.840.1.113883.2.4.4.10.17809"/>
               <display value="AMOXICILLINE/CLAVULAANZUUR TABLET 500/125MG"/>
            </medicationReference>
            <subject>
               <reference value="urn:uuid:d21bf0c8-8970-11ea-1629-020000000000"/>
               <display value="E. XXX_Zegers"/>
            </subject>
            <context>
               <identifier>
                  <system value="urn:oid:2.16.840.1.113883.2.4.6.6.90000258.4.1"/>
                  <value value="996626"/>
               </identifier>
               <display value="Contact ID: 996626 2.16.840.1.113883.2.4.6.6.90000258.4.1"/>
            </context>
            <authoredOn value="2019-02-06"/>
            <requester>
               <agent>
                  <extension url="http://nictiz.nl/fhir/StructureDefinition/practitionerrole-reference">
                     <valueReference>
                        <reference value="urn:uuid:d21bfde8-8970-11ea-1629-020000000000"/>
                        <display value="Huisarts 1 || Huisarts || Tést Zorginstelling 04"/>
                     </valueReference>
                  </extension>
                  <reference value="urn:oid:2.16.528.1.1007.3.1.900013866"/>
                  <display value="Huisarts 1"/>
               </agent>
            </requester>
            <reasonCode>
               <coding>
                  <system value="http://hl7.org/fhir/v3/NullFlavor"/>
                  <code value="OTH"/>
                  <display value="overig"/>
               </coding>
               <text value="Volgens afspraak"/>
            </reasonCode>
            <reasonReference>
               <reference value="urn:uuid:d21c0b11-8970-11ea-1629-020000000000"/>
               <display value="Emfyseem/COPD"/>
            </reasonReference>
            <dosageInstruction>
               <sequence value="1"/>
               <text value="3 keer per dag 1 tablet"/>
               <timing>
                  <repeat>
                     <boundsDuration>
                        <value value="6"/>
                        <unit value="dag"/>
                        <system value="http://unitsofmeasure.org"/>
                        <code value="d"/>
                     </boundsDuration>
                     <period value="0.3333"/>
                     <periodUnit value="d"/>
                  </repeat>
               </timing>
               <route>
                  <coding>
                     <system value="urn:oid:2.16.840.1.113883.2.4.4.9"/>
                     <code value="9"/>
                     <display value="ORAAL"/>
                  </coding>
               </route>
               <doseQuantity>
                  <value value="1"/>
                  <unit value="STUK"/>
                  <system value="urn:oid:2.16.840.1.113883.2.4.4.1.900.2"/>
                  <code value="245"/>
               </doseQuantity>
            </dosageInstruction>
         </MedicationRequest>
      </resource>
      <search>
         <mode value="match"/>
      </search>
   </entry>
   <entry>
      <fullUrl value="urn:uuid:d21c0b8d-8970-11ea-1629-020000000000"/>
      <resource>
         <MedicationRequest>
            <meta>
               <profile value="http://nictiz.nl/fhir/StructureDefinition/zib-MedicationAgreement"/>
            </meta>
            <text>
               <status value="generated"/>
               <div xmlns="http://www.w3.org/1999/xhtml">
                  <table>
                     <caption>Medicatieafspraak. Subject: E. XXX_Zegers. Id: 15000 (urn:oid:2.16.840.1.113883.2.4.6.6.90000258.4.4), Categorie: <span title="Prescription (procedure) (16076005 - SNOMED CT)">Prescription (procedure)</span>, <span style="display: block;">Intentie: aanvraag</span>
                        <span style="display: block;">Aangevraagd door: Huisarts 1 || Huisarts || Tést Zorginstelling 04</span>
                     </caption>
                     <tbody>
                        <tr>
                           <th>Medicamenteuze behandel-id</th>
                           <td>OH-MBH-1551446587544-100008367 (urn:oid:2.16.840.1.113883.2.4.6.6.90000258.1.100008367)</td>
                        </tr>
                        <tr>
                           <th>Context</th>
                           <td>Contact ID: 996626 2.16.840.1.113883.2.4.6.6.90000258.4.1 (Id: 996626 (urn:oid:2.16.840.1.113883.2.4.6.6.90000258.4.1))</td>
                        </tr>
                        <tr>
                           <th>Medicatie</th>
                           <td>SALBUTAMOL INHALATIEPOEDER 100UG/DO PATR 200DO</td>
                        </tr>
                        <tr>
                           <th>Gemaakt</th>
                           <td>2019-02-06</td>
                        </tr>
                        <tr>
                           <th>Reden</th>
                           <td>
                              <ul>
                                 <li>Volgens afspraak</li>
                                 <li>Emfyseem/COPD</li>
                              </ul>
                           </td>
                        </tr>
                        <tr>
                           <th>Gebruiksduur</th>
                           <td>Vanaf 00:00:00, 6 februari 2019</td>
                        </tr>
                        <tr>
                           <th>Doseerinstructie</th>
                           <td>
                              <div>Volgnummer: 1</div>
                              <div>Tekst: 3 tot 4 keer per dag 1 inhalatie</div>
                              <div>Timing: <div>3 maal, max frequentie 4 maal per 1.0 dagen</div>
                              </div>
                              <div>Toedieningsweg: <span title="INHALATIE (62 - G-Standaard thesaurus subtabel 0007)">INHALATIE</span>
                              </div>
                              <div>Dosering: 1 DOSIS</div>
                           </td>
                        </tr>
                     </tbody>
                  </table>
               </div>
            </text>
            <extension url="http://nictiz.nl/fhir/StructureDefinition/zib-Medication-PeriodOfUse">
               <valuePeriod>
                  <start value="2019-02-06T00:00:00+01:00"/>
               </valuePeriod>
            </extension>
            <extension url="http://nictiz.nl/fhir/StructureDefinition/zib-Medication-MedicationTreatment">
               <valueIdentifier>
                  <system value="urn:oid:2.16.840.1.113883.2.4.6.6.90000258.1.100008367"/>
                  <value value="OH-MBH-1551446587544-100008367"/>
               </valueIdentifier>
            </extension>
            <extension url="http://nictiz.nl/fhir/StructureDefinition/zib-Medication-CopyIndicator">
               <valueBoolean value="false"/>
            </extension>
            <identifier>
               <system value="urn:oid:2.16.840.1.113883.2.4.6.6.90000258.4.4"/>
               <value value="15000"/>
            </identifier>
            <intent value="order"/>
            <category>
               <coding>
                  <system value="http://snomed.info/sct"/>
                  <code value="16076005"/>
                  <display value="Prescription (procedure)"/>
               </coding>
               <text value="Medicatieafspraak"/>
            </category>
            <medicationReference>
               <reference value="urn:oid:2.16.840.1.113883.2.4.4.10.73040"/>
               <display value="SALBUTAMOL INHALATIEPOEDER 100UG/DO PATR 200DO"/>
            </medicationReference>
            <subject>
               <reference value="urn:uuid:d21bf0c8-8970-11ea-1629-020000000000"/>
               <display value="E. XXX_Zegers"/>
            </subject>
            <context>
               <identifier>
                  <system value="urn:oid:2.16.840.1.113883.2.4.6.6.90000258.4.1"/>
                  <value value="996626"/>
               </identifier>
               <display value="Contact ID: 996626 2.16.840.1.113883.2.4.6.6.90000258.4.1"/>
            </context>
            <authoredOn value="2019-02-06"/>
            <requester>
               <agent>
                  <extension url="http://nictiz.nl/fhir/StructureDefinition/practitionerrole-reference">
                     <valueReference>
                        <reference value="urn:uuid:d21bfde8-8970-11ea-1629-020000000000"/>
                        <display value="Huisarts 1 || Huisarts || Tést Zorginstelling 04"/>
                     </valueReference>
                  </extension>
                  <reference value="urn:oid:2.16.528.1.1007.3.1.900013866"/>
                  <display value="Huisarts 1"/>
               </agent>
            </requester>
            <reasonCode>
               <coding>
                  <system value="http://hl7.org/fhir/v3/NullFlavor"/>
                  <code value="OTH"/>
                  <display value="overig"/>
               </coding>
               <text value="Volgens afspraak"/>
            </reasonCode>
            <reasonReference>
               <reference value="urn:uuid:d21c0b11-8970-11ea-1629-020000000000"/>
               <display value="Emfyseem/COPD"/>
            </reasonReference>
            <dosageInstruction>
               <sequence value="1"/>
               <text value="3 tot 4 keer per dag 1 inhalatie"/>
               <timing>
                  <repeat>
                     <frequency value="3"/>
                     <frequencyMax value="4"/>
                     <period value="1.0"/>
                     <periodUnit value="d"/>
                  </repeat>
               </timing>
               <route>
                  <coding>
                     <system value="urn:oid:2.16.840.1.113883.2.4.4.9"/>
                     <code value="62"/>
                     <display value="INHALATIE"/>
                  </coding>
               </route>
               <doseQuantity>
                  <value value="1"/>
                  <unit value="DOSIS"/>
                  <system value="urn:oid:2.16.840.1.113883.2.4.4.1.900.2"/>
                  <code value="208"/>
               </doseQuantity>
            </dosageInstruction>
         </MedicationRequest>
      </resource>
      <search>
         <mode value="match"/>
      </search>
   </entry>
   <entry>
      <fullUrl value="urn:uuid:d21c0bc0-8970-11ea-1629-020000000000"/>
      <resource>
         <MedicationRequest>
            <meta>
               <profile value="http://nictiz.nl/fhir/StructureDefinition/zib-MedicationAgreement"/>
            </meta>
            <text>
               <status value="generated"/>
               <div xmlns="http://www.w3.org/1999/xhtml">
                  <table>
                     <caption>Medicatieafspraak. Subject: E. XXX_Zegers. Id: 15002 (urn:oid:2.16.840.1.113883.2.4.6.6.90000258.4.4), Categorie: <span title="Prescription (procedure) (16076005 - SNOMED CT)">Prescription (procedure)</span>, <span style="display: block;">Intentie: aanvraag</span>
                        <span style="display: block;">Aangevraagd door: Huisarts 1 || Huisarts || Tést Zorginstelling 04</span>
                     </caption>
                     <tbody>
                        <tr>
                           <th>Medicamenteuze behandel-id</th>
                           <td>OH-MBH-1551446587634-100008369 (urn:oid:2.16.840.1.113883.2.4.6.6.90000258.1.100008369)</td>
                        </tr>
                        <tr>
                           <th>Context</th>
                           <td>Contact ID: 996627 2.16.840.1.113883.2.4.6.6.90000258.4.1 (Id: 996627 (urn:oid:2.16.840.1.113883.2.4.6.6.90000258.4.1))</td>
                        </tr>
                        <tr>
                           <th>Medicatie</th>
                           <td>DESLORATADINE TABLET 5MG</td>
                        </tr>
                        <tr>
                           <th>Gemaakt</th>
                           <td>2019-02-08</td>
                        </tr>
                        <tr>
                           <th>Reden</th>
                           <td>
                              <ul>
                                 <li>Volgens afspraak</li>
                                 <li>Hooikoorts/allergische rhinitis</li>
                              </ul>
                           </td>
                        </tr>
                        <tr>
                           <th>Gebruiksduur</th>
                           <td>8 februari 2019 00:00:00 - 8 mei 2019 23:59:59</td>
                        </tr>
                        <tr>
                           <th>Doseerinstructie</th>
                           <td>
                              <div>Volgnummer: 1</div>
                              <div>Tekst: 1 keer per dag 1 tablet</div>
                              <div>Timing: <div>88 dag, dag</div>
                              </div>
                              <div>Toedieningsweg: <span title="ORAAL (9 - G-Standaard thesaurus subtabel 0007)">ORAAL</span>
                              </div>
                              <div>Dosering: 1 STUK</div>
                           </td>
                        </tr>
                     </tbody>
                  </table>
               </div>
            </text>
            <extension url="http://nictiz.nl/fhir/StructureDefinition/zib-Medication-PeriodOfUse">
               <valuePeriod>
                  <start value="2019-02-08T00:00:00+01:00"/>
                  <end value="2019-05-08T23:59:59+02:00"/>
               </valuePeriod>
            </extension>
            <extension url="http://nictiz.nl/fhir/StructureDefinition/zib-Medication-MedicationTreatment">
               <valueIdentifier>
                  <system value="urn:oid:2.16.840.1.113883.2.4.6.6.90000258.1.100008369"/>
                  <value value="OH-MBH-1551446587634-100008369"/>
               </valueIdentifier>
            </extension>
            <extension url="http://nictiz.nl/fhir/StructureDefinition/zib-Medication-CopyIndicator">
               <valueBoolean value="false"/>
            </extension>
            <identifier>
               <system value="urn:oid:2.16.840.1.113883.2.4.6.6.90000258.4.4"/>
               <value value="15002"/>
            </identifier>
            <intent value="order"/>
            <category>
               <coding>
                  <system value="http://snomed.info/sct"/>
                  <code value="16076005"/>
                  <display value="Prescription (procedure)"/>
               </coding>
               <text value="Medicatieafspraak"/>
            </category>
            <medicationReference>
               <reference value="urn:oid:2.16.840.1.113883.2.4.4.10.59021"/>
               <display value="DESLORATADINE TABLET 5MG"/>
            </medicationReference>
            <subject>
               <reference value="urn:uuid:d21bf0c8-8970-11ea-1629-020000000000"/>
               <display value="E. XXX_Zegers"/>
            </subject>
            <context>
               <identifier>
                  <system value="urn:oid:2.16.840.1.113883.2.4.6.6.90000258.4.1"/>
                  <value value="996627"/>
               </identifier>
               <display value="Contact ID: 996627 2.16.840.1.113883.2.4.6.6.90000258.4.1"/>
            </context>
            <authoredOn value="2019-02-08"/>
            <requester>
               <agent>
                  <extension url="http://nictiz.nl/fhir/StructureDefinition/practitionerrole-reference">
                     <valueReference>
                        <reference value="urn:uuid:d21bfde8-8970-11ea-1629-020000000000"/>
                        <display value="Huisarts 1 || Huisarts || Tést Zorginstelling 04"/>
                     </valueReference>
                  </extension>
                  <reference value="urn:oid:2.16.528.1.1007.3.1.900013866"/>
                  <display value="Huisarts 1"/>
               </agent>
            </requester>
            <reasonCode>
               <coding>
                  <system value="http://hl7.org/fhir/v3/NullFlavor"/>
                  <code value="OTH"/>
                  <display value="overig"/>
               </coding>
               <text value="Volgens afspraak"/>
            </reasonCode>
            <reasonReference>
               <reference value="urn:uuid:d21c0bdb-8970-11ea-1629-020000000000"/>
               <display value="Hooikoorts/allergische rhinitis"/>
            </reasonReference>
            <dosageInstruction>
               <sequence value="1"/>
               <text value="1 keer per dag 1 tablet"/>
               <timing>
                  <repeat>
                     <boundsDuration>
                        <value value="88"/>
                        <unit value="dag"/>
                        <system value="http://unitsofmeasure.org"/>
                        <code value="d"/>
                     </boundsDuration>
                     <period value="1"/>
                     <periodUnit value="d"/>
                  </repeat>
               </timing>
               <route>
                  <coding>
                     <system value="urn:oid:2.16.840.1.113883.2.4.4.9"/>
                     <code value="9"/>
                     <display value="ORAAL"/>
                  </coding>
               </route>
               <doseQuantity>
                  <value value="1"/>
                  <unit value="STUK"/>
                  <system value="urn:oid:2.16.840.1.113883.2.4.4.1.900.2"/>
                  <code value="245"/>
               </doseQuantity>
            </dosageInstruction>
         </MedicationRequest>
      </resource>
      <search>
         <mode value="match"/>
      </search>
   </entry>
   <entry>
      <fullUrl value="urn:uuid:d21c0bf1-8970-11ea-1629-020000000000"/>
      <resource>
         <MedicationRequest>
            <meta>
               <profile value="http://nictiz.nl/fhir/StructureDefinition/zib-MedicationAgreement"/>
            </meta>
            <text>
               <status value="generated"/>
               <div xmlns="http://www.w3.org/1999/xhtml">
                  <table>
                     <caption>Medicatieafspraak. Subject: E. XXX_Zegers. Id: 15001 (urn:oid:2.16.840.1.113883.2.4.6.6.90000258.4.4), Categorie: <span title="Prescription (procedure) (16076005 - SNOMED CT)">Prescription (procedure)</span>, <span style="display: block;">Intentie: aanvraag</span>
                        <span style="display: block;">Aangevraagd door: Huisarts 1 || Huisarts || Tést Zorginstelling 04</span>
                     </caption>
                     <tbody>
                        <tr>
                           <th>Medicamenteuze behandel-id</th>
                           <td>OH-MBH-1551446587591-100008368 (urn:oid:2.16.840.1.113883.2.4.6.6.90000258.1.100008368)</td>
                        </tr>
                        <tr>
                           <th>Context</th>
                           <td>Contact ID: 996628 2.16.840.1.113883.2.4.6.6.90000258.4.1 (Id: 996628 (urn:oid:2.16.840.1.113883.2.4.6.6.90000258.4.1))</td>
                        </tr>
                        <tr>
                           <th>Medicatie</th>
                           <td>CARBASALAATCALCIUM BRUISTABLET 100MG</td>
                        </tr>
                        <tr>
                           <th>Gemaakt</th>
                           <td>2019-02-08</td>
                        </tr>
                        <tr>
                           <th>Reden</th>
                           <td>
                              <ul>
                                 <li>Volgens afspraak</li>
                                 <li>Boezemfibrilleren/-fladderen</li>
                              </ul>
                           </td>
                        </tr>
                        <tr>
                           <th>Gebruiksduur</th>
                           <td>8 februari 2019 00:00:00 - 8 mei 2019 23:59:59</td>
                        </tr>
                        <tr>
                           <th>Doseerinstructie</th>
                           <td>
                              <div>Volgnummer: 1</div>
                              <div>Tekst: 1 keer per dag 1 tablet</div>
                              <div>Timing: <div>88 dag, dag</div>
                              </div>
                              <div>Toedieningsweg: <span title="ORAAL (9 - G-Standaard thesaurus subtabel 0007)">ORAAL</span>
                              </div>
                              <div>Dosering: 1 STUK</div>
                           </td>
                        </tr>
                     </tbody>
                  </table>
               </div>
            </text>
            <extension url="http://nictiz.nl/fhir/StructureDefinition/zib-Medication-PeriodOfUse">
               <valuePeriod>
                  <start value="2019-02-08T00:00:00+01:00"/>
                  <end value="2019-05-08T23:59:59+02:00"/>
               </valuePeriod>
            </extension>
            <extension url="http://nictiz.nl/fhir/StructureDefinition/zib-Medication-MedicationTreatment">
               <valueIdentifier>
                  <system value="urn:oid:2.16.840.1.113883.2.4.6.6.90000258.1.100008368"/>
                  <value value="OH-MBH-1551446587591-100008368"/>
               </valueIdentifier>
            </extension>
            <extension url="http://nictiz.nl/fhir/StructureDefinition/zib-Medication-CopyIndicator">
               <valueBoolean value="false"/>
            </extension>
            <identifier>
               <system value="urn:oid:2.16.840.1.113883.2.4.6.6.90000258.4.4"/>
               <value value="15001"/>
            </identifier>
            <intent value="order"/>
            <category>
               <coding>
                  <system value="http://snomed.info/sct"/>
                  <code value="16076005"/>
                  <display value="Prescription (procedure)"/>
               </coding>
               <text value="Medicatieafspraak"/>
            </category>
            <medicationReference>
               <reference value="urn:oid:2.16.840.1.113883.2.4.4.10.52191"/>
               <display value="CARBASALAATCALCIUM BRUISTABLET 100MG"/>
            </medicationReference>
            <subject>
               <reference value="urn:uuid:d21bf0c8-8970-11ea-1629-020000000000"/>
               <display value="E. XXX_Zegers"/>
            </subject>
            <context>
               <identifier>
                  <system value="urn:oid:2.16.840.1.113883.2.4.6.6.90000258.4.1"/>
                  <value value="996628"/>
               </identifier>
               <display value="Contact ID: 996628 2.16.840.1.113883.2.4.6.6.90000258.4.1"/>
            </context>
            <authoredOn value="2019-02-08"/>
            <requester>
               <agent>
                  <extension url="http://nictiz.nl/fhir/StructureDefinition/practitionerrole-reference">
                     <valueReference>
                        <reference value="urn:uuid:d21bfde8-8970-11ea-1629-020000000000"/>
                        <display value="Huisarts 1 || Huisarts || Tést Zorginstelling 04"/>
                     </valueReference>
                  </extension>
                  <reference value="urn:oid:2.16.528.1.1007.3.1.900013866"/>
                  <display value="Huisarts 1"/>
               </agent>
            </requester>
            <reasonCode>
               <coding>
                  <system value="http://hl7.org/fhir/v3/NullFlavor"/>
                  <code value="OTH"/>
                  <display value="overig"/>
               </coding>
               <text value="Volgens afspraak"/>
            </reasonCode>
            <reasonReference>
               <reference value="urn:uuid:d21c0c0c-8970-11ea-1629-020000000000"/>
               <display value="Boezemfibrilleren/-fladderen"/>
            </reasonReference>
            <dosageInstruction>
               <sequence value="1"/>
               <text value="1 keer per dag 1 tablet"/>
               <timing>
                  <repeat>
                     <boundsDuration>
                        <value value="88"/>
                        <unit value="dag"/>
                        <system value="http://unitsofmeasure.org"/>
                        <code value="d"/>
                     </boundsDuration>
                     <period value="1"/>
                     <periodUnit value="d"/>
                  </repeat>
               </timing>
               <route>
                  <coding>
                     <system value="urn:oid:2.16.840.1.113883.2.4.4.9"/>
                     <code value="9"/>
                     <display value="ORAAL"/>
                  </coding>
               </route>
               <doseQuantity>
                  <value value="1"/>
                  <unit value="STUK"/>
                  <system value="urn:oid:2.16.840.1.113883.2.4.4.1.900.2"/>
                  <code value="245"/>
               </doseQuantity>
            </dosageInstruction>
         </MedicationRequest>
      </resource>
      <search>
         <mode value="match"/>
      </search>
   </entry>
   <entry>
      <fullUrl value="urn:uuid:d21bf0c8-8970-11ea-1629-020000000000"/>
      <resource>
         <Patient>
            <meta>
               <profile value="http://fhir.nl/fhir/StructureDefinition/nl-core-patient"/>
            </meta>
            <text>
               <status value="generated"/>
               <div xmlns="http://www.w3.org/1999/xhtml">
                  <div>Id <i>afgeschermd (ontbrekend gegeven)</i> (BSN), E. XXX_Zegers, Vrouw, 2 augustus 1964</div>
                  <div>
                     <a href="">tel:+31190531770</a> (Privé)</div>
                  <div>Knolweg 1001, 9999 XX STITSWERD, Nederland (Privé (hoofd) Bezoek)</div>
               </div>
            </text>
            <identifier>
               <system value="http://fhir.nl/fhir/NamingSystem/bsn"/>
               <value>
                  <extension url="http://hl7.org/fhir/StructureDefinition/data-absent-reason">
                     <valueCode value="masked"/>
                  </extension>
               </value>
            </identifier>
            <name>
               <extension url="http://hl7.org/fhir/StructureDefinition/humanname-assembly-order">
                  <valueCode value="NL1"/>
               </extension>
               <family value="XXX_Zegers">
                  <extension url="http://hl7.org/fhir/StructureDefinition/humanname-own-name">
                     <valueString value="XXX_Zegers"/>
                  </extension>
               </family>
               <given value="E.">
                  <extension url="http://hl7.org/fhir/StructureDefinition/iso21090-EN-qualifier">
                     <valueCode value="IN"/>
                  </extension>
               </given>
            </name>
            <telecom>
               <system>
                  <extension url="http://hl7.org/fhir/StructureDefinition/data-absent-reason">
                     <valueCode value="unknown"/>
                  </extension>
               </system>
               <value value="tel:+31190531770"/>
               <use value="home">
                  <extension url="http://nictiz.nl/fhir/StructureDefinition/code-specification">
                     <valueCodeableConcept>
                        <coding>
                           <system value="http://hl7.org/fhir/v3/AddressUse"/>
                           <code value="HP"/>
                           <display value="Primary Home"/>
                        </coding>
                     </valueCodeableConcept>
                  </extension>
               </use>
            </telecom>
            <gender value="female"/>
            <birthDate value="1964-08-02"/>
            <address>
               <extension url="http://fhir.nl/fhir/StructureDefinition/nl-core-address-official">
                  <valueCode value="true"/>
               </extension>
               <use value="home">
                  <extension url="http://hl7.org/fhir/StructureDefinition/iso21090-AD-use">
                     <valueCode value="HP"/>
                  </extension>
               </use>
               <type value="physical"/>
               <line value="Knolweg 1001">
                  <extension url="http://hl7.org/fhir/StructureDefinition/iso21090-ADXP-streetName">
                     <valueString value="Knolweg"/>
                  </extension>
                  <extension url="http://hl7.org/fhir/StructureDefinition/iso21090-ADXP-houseNumber">
                     <valueString value="1001"/>
                  </extension>
               </line>
               <city value="STITSWERD"/>
               <postalCode value="9999 XX"/>
               <country value="Nederland"/>
            </address>
         </Patient>
      </resource>
      <search>
         <mode value="include"/>
      </search>
   </entry>
   <entry>
      <fullUrl value="urn:oid:2.16.528.1.1007.3.1.900013866"/>
      <resource>
         <Practitioner>
            <meta>
               <profile value="http://fhir.nl/fhir/StructureDefinition/nl-core-practitioner"/>
            </meta>
            <text>
               <status value="generated"/>
               <div xmlns="http://www.w3.org/1999/xhtml">
                  <div>Id 900013866 (UZI-NR-PERS), Huisarts 1</div>
               </div>
            </text>
            <identifier>
               <system value="http://fhir.nl/fhir/NamingSystem/uzi-nr-pers"/>
               <value value="900013866"/>
            </identifier>
            <name>
               <extension url="http://hl7.org/fhir/StructureDefinition/humanname-assembly-order">
                  <valueCode value="UNK"/>
               </extension>
               <family value="Huisarts 1">
                  <extension url="http://hl7.org/fhir/StructureDefinition/humanname-own-name">
                     <valueString value="Huisarts 1"/>
                  </extension>
               </family>
            </name>
         </Practitioner>
      </resource>
      <search>
         <mode value="include"/>
      </search>
   </entry>
   <entry>
      <fullUrl value="urn:oid:2.16.528.1.1007.3.3.90000381"/>
      <resource>
         <Organization>
            <meta>
               <profile value="http://fhir.nl/fhir/StructureDefinition/nl-core-organization"/>
            </meta>
            <text>
               <status value="generated"/>
               <div xmlns="http://www.w3.org/1999/xhtml">
                  <table>
                     <caption>OrganisatieId: 90000381 (URA)</caption>
                     <tbody>
                        <tr>
                           <th>Naam</th>
                           <td>Tést Zorginstelling 04</td>
                        </tr>
                        <tr>
                           <th>Adres</th>
                           <td>Valkendael 45, 6245 HK Maastricht, Nederland (Werk)</td>
                        </tr>
                     </tbody>
                  </table>
               </div>
            </text>
            <identifier>
               <system value="http://fhir.nl/fhir/NamingSystem/ura"/>
               <value value="90000381"/>
            </identifier>
            <name value="Tést Zorginstelling 04"/>
            <address>
               <use value="work"/>
               <line value="Valkendael 45">
                  <extension url="http://hl7.org/fhir/StructureDefinition/iso21090-ADXP-streetName">
                     <valueString value="Valkendael 45"/>
                  </extension>
               </line>
               <city value="Maastricht"/>
               <postalCode value="6245 HK"/>
               <country value="Nederland"/>
            </address>
         </Organization>
      </resource>
      <search>
         <mode value="include"/>
      </search>
   </entry>
   <entry>
      <fullUrl value="urn:uuid:d21bfde8-8970-11ea-1629-020000000000"/>
      <resource>
         <PractitionerRole>
            <meta>
               <profile value="http://fhir.nl/fhir/StructureDefinition/nl-core-practitionerrole"/>
            </meta>
            <text>
               <status value="generated"/>
               <div xmlns="http://www.w3.org/1999/xhtml">
                  <table>
                     <caption>Zorgverlenerrol</caption>
                     <tbody>
                        <tr>
                           <th>Zorgverlener</th>
                           <td>
                              <div>Huisarts 1</div>
                              <div>Tést Zorginstelling 04</div>
                           </td>
                        </tr>
                        <tr>
                           <th>Specialisme</th>
                           <td>
                              <span title="Huisarts (01.015 - http://fhir.nl/fhir/NamingSystem/uzi-rolcode)">Huisarts</span>
                           </td>
                        </tr>
                     </tbody>
                  </table>
               </div>
            </text>
            <practitioner>
               <reference value="urn:oid:2.16.528.1.1007.3.1.900013866"/>
               <display value="Huisarts 1"/>
            </practitioner>
            <organization>
               <reference value="urn:oid:2.16.528.1.1007.3.3.90000381"/>
               <display value="Tést Zorginstelling 04"/>
            </organization>
            <specialty>
               <coding>
                  <system value="http://fhir.nl/fhir/NamingSystem/uzi-rolcode"/>
                  <code value="01.015"/>
                  <display value="Huisarts"/>
               </coding>
            </specialty>
         </PractitionerRole>
      </resource>
      <search>
         <mode value="include"/>
      </search>
   </entry>
   <entry>
      <fullUrl value="urn:oid:2.16.840.1.113883.2.4.4.10.43044"/>
      <resource>
         <Medication>
            <meta>
               <profile value="http://nictiz.nl/fhir/StructureDefinition/zib-Product"/>
            </meta>
            <code>
               <coding>
                  <system value="urn:oid:2.16.840.1.113883.2.4.4.10"/>
                  <code value="43044"/>
                  <display value="PANTOPRAZOL TABLET MSR 40MG"/>
                  <userSelected value="true"/>
               </coding>
               <coding>
                  <system value="urn:oid:2.16.840.1.113883.2.4.4.1"/>
                  <code value="96938"/>
                  <display value="PANTOPRAZOL TABLET MSR 40MG"/>
               </coding>
               <text value="PANTOPRAZOL TABLET MSR 40MG"/>
            </code>
         </Medication>
      </resource>
      <search>
         <mode value="include"/>
      </search>
   </entry>
   <entry>
      <fullUrl value="urn:oid:2.16.840.1.113883.2.4.4.10.67903"/>
      <resource>
         <Medication>
            <meta>
               <profile value="http://nictiz.nl/fhir/StructureDefinition/zib-Product"/>
            </meta>
            <code>
               <coding>
                  <system value="urn:oid:2.16.840.1.113883.2.4.4.10"/>
                  <code value="67903"/>
                  <display value="PARACETAMOL TABLET  500MG"/>
                  <userSelected value="true"/>
               </coding>
               <coding>
                  <system value="urn:oid:2.16.840.1.113883.2.4.4.1"/>
                  <code value="2194"/>
                  <display value="PARACETAMOL TABLET  500MG"/>
               </coding>
               <text value="PARACETAMOL TABLET  500MG"/>
            </code>
         </Medication>
      </resource>
      <search>
         <mode value="include"/>
      </search>
   </entry>
   <entry>
      <fullUrl value="urn:oid:2.16.840.1.113883.2.4.4.10.45632"/>
      <resource>
         <Medication>
            <meta>
               <profile value="http://nictiz.nl/fhir/StructureDefinition/zib-Product"/>
            </meta>
            <code>
               <coding>
                  <system value="urn:oid:2.16.840.1.113883.2.4.4.10"/>
                  <code value="45632"/>
                  <display value="FLUTICASON INHALATIEPOEDER 250UG/DO 60DO DISKUS"/>
                  <userSelected value="true"/>
               </coding>
               <coding>
                  <system value="urn:oid:2.16.840.1.113883.2.4.4.1"/>
                  <code value="92495"/>
                  <display value="FLUTICASON INHALATIEPOEDER 250UG/DO"/>
               </coding>
               <text value="FLUTICASON INHALATIEPOEDER 250UG/DO 60DO DISKUS"/>
            </code>
         </Medication>
      </resource>
      <search>
         <mode value="include"/>
      </search>
   </entry>
   <entry>
      <fullUrl value="urn:oid:2.16.840.1.113883.2.4.4.10.17809"/>
      <resource>
         <Medication>
            <meta>
               <profile value="http://nictiz.nl/fhir/StructureDefinition/zib-Product"/>
            </meta>
            <code>
               <coding>
                  <system value="urn:oid:2.16.840.1.113883.2.4.4.10"/>
                  <code value="17809"/>
                  <display value="AMOXICILLINE/CLAVULAANZUUR TABLET 500/125MG"/>
                  <userSelected value="true"/>
               </coding>
               <coding>
                  <system value="urn:oid:2.16.840.1.113883.2.4.4.1"/>
                  <code value="43079"/>
                  <display value="AMOXICILLINE/CLAVULAANZUUR TABLET 500/125MG"/>
               </coding>
               <text value="AMOXICILLINE/CLAVULAANZUUR TABLET 500/125MG"/>
            </code>
         </Medication>
      </resource>
      <search>
         <mode value="include"/>
      </search>
   </entry>
   <entry>
      <fullUrl value="urn:oid:2.16.840.1.113883.2.4.4.10.73040"/>
      <resource>
         <Medication>
            <meta>
               <profile value="http://nictiz.nl/fhir/StructureDefinition/zib-Product"/>
            </meta>
            <code>
               <coding>
                  <system value="urn:oid:2.16.840.1.113883.2.4.4.10"/>
                  <code value="73040"/>
                  <display value="SALBUTAMOL INHALATIEPOEDER 100UG/DO PATR 200DO"/>
                  <userSelected value="true"/>
               </coding>
               <coding>
                  <system value="urn:oid:2.16.840.1.113883.2.4.4.1"/>
                  <code value="99473"/>
                  <display value="SALBUTAMOL INHALATIEPOEDER 100UG/DO"/>
               </coding>
               <text value="SALBUTAMOL INHALATIEPOEDER 100UG/DO PATR 200DO"/>
            </code>
         </Medication>
      </resource>
      <search>
         <mode value="include"/>
      </search>
   </entry>
   <entry>
      <fullUrl value="urn:oid:2.16.840.1.113883.2.4.4.10.59021"/>
      <resource>
         <Medication>
            <meta>
               <profile value="http://nictiz.nl/fhir/StructureDefinition/zib-Product"/>
            </meta>
            <code>
               <coding>
                  <system value="urn:oid:2.16.840.1.113883.2.4.4.10"/>
                  <code value="59021"/>
                  <display value="DESLORATADINE TABLET 5MG"/>
                  <userSelected value="true"/>
               </coding>
               <coding>
                  <system value="urn:oid:2.16.840.1.113883.2.4.4.1"/>
                  <code value="113026"/>
                  <display value="DESLORATADINE TABLET 5MG"/>
               </coding>
               <text value="DESLORATADINE TABLET 5MG"/>
            </code>
         </Medication>
      </resource>
      <search>
         <mode value="include"/>
      </search>
   </entry>
   <entry>
      <fullUrl value="urn:oid:2.16.840.1.113883.2.4.4.10.52191"/>
      <resource>
         <Medication>
            <meta>
               <profile value="http://nictiz.nl/fhir/StructureDefinition/zib-Product"/>
            </meta>
            <code>
               <coding>
                  <system value="urn:oid:2.16.840.1.113883.2.4.4.10"/>
                  <code value="52191"/>
                  <display value="CARBASALAATCALCIUM BRUISTABLET 100MG"/>
                  <userSelected value="true"/>
               </coding>
               <coding>
                  <system value="urn:oid:2.16.840.1.113883.2.4.4.1"/>
                  <code value="106526"/>
                  <display value="CARBASALAATCALCIUM BRUISTABLET 100MG"/>
               </coding>
               <text value="CARBASALAATCALCIUM BRUISTABLET 100MG"/>
            </code>
         </Medication>
      </resource>
      <search>
         <mode value="include"/>
      </search>
   </entry>
   <entry>
      <fullUrl value="urn:uuid:d21bfdfc-8970-11ea-1629-020000000000"/>
      <resource>
         <Condition>
            <meta>
               <profile value="http://nictiz.nl/fhir/StructureDefinition/zib-Problem"/>
            </meta>
            <text>
               <status value="generated"/>
               <div xmlns="http://www.w3.org/1999/xhtml">
                  <table>
                     <caption>Aandoening. Subject: E. XXX_Zegers. Status: <i>onbekend (ontbrekend gegeven)</i>
                     </caption>
                     <tbody>
                        <tr>
                           <th>Code</th>
                           <td>
                              <span title="Maagpijn (D02 - sid/icpc-1-nl)">Maagpijn</span>
                           </td>
                        </tr>
                     </tbody>
                  </table>
               </div>
            </text>
            <clinicalStatus>
               <extension url="http://hl7.org/fhir/StructureDefinition/data-absent-reason">
                  <valueCode value="unknown"/>
               </extension>
            </clinicalStatus>
            <code>
               <coding>
                  <system value="http://hl7.org/fhir/sid/icpc-1-nl"/>
                  <code value="D02"/>
                  <display value="Maagpijn"/>
               </coding>
            </code>
            <subject>
               <reference value="urn:uuid:d21bf0c8-8970-11ea-1629-020000000000"/>
               <display value="E. XXX_Zegers"/>
            </subject>
         </Condition>
      </resource>
      <search>
         <mode value="include"/>
      </search>
   </entry>
   <entry>
      <fullUrl value="urn:uuid:d21c0b11-8970-11ea-1629-020000000000"/>
      <resource>
         <Condition>
            <meta>
               <profile value="http://nictiz.nl/fhir/StructureDefinition/zib-Problem"/>
            </meta>
            <text>
               <status value="generated"/>
               <div xmlns="http://www.w3.org/1999/xhtml">
                  <table>
                     <caption>Aandoening. Subject: E. XXX_Zegers. Status: <i>onbekend (ontbrekend gegeven)</i>
                     </caption>
                     <tbody>
                        <tr>
                           <th>Code</th>
                           <td>
                              <span title="Emfyseem/COPD (R95 - sid/icpc-1-nl)">Emfyseem/COPD</span>
                           </td>
                        </tr>
                     </tbody>
                  </table>
               </div>
            </text>
            <clinicalStatus>
               <extension url="http://hl7.org/fhir/StructureDefinition/data-absent-reason">
                  <valueCode value="unknown"/>
               </extension>
            </clinicalStatus>
            <code>
               <coding>
                  <system value="http://hl7.org/fhir/sid/icpc-1-nl"/>
                  <code value="R95"/>
                  <display value="Emfyseem/COPD"/>
               </coding>
            </code>
            <subject>
               <reference value="urn:uuid:d21bf0c8-8970-11ea-1629-020000000000"/>
               <display value="E. XXX_Zegers"/>
            </subject>
         </Condition>
      </resource>
      <search>
         <mode value="include"/>
      </search>
   </entry>
   <entry>
      <fullUrl value="urn:uuid:d21c0bdb-8970-11ea-1629-020000000000"/>
      <resource>
         <Condition>
            <meta>
               <profile value="http://nictiz.nl/fhir/StructureDefinition/zib-Problem"/>
            </meta>
            <text>
               <status value="generated"/>
               <div xmlns="http://www.w3.org/1999/xhtml">
                  <table>
                     <caption>Aandoening. Subject: E. XXX_Zegers. Status: <i>onbekend (ontbrekend gegeven)</i>
                     </caption>
                     <tbody>
                        <tr>
                           <th>Code</th>
                           <td>
                              <span title="Hooikoorts/allergische rhinitis (R97 - sid/icpc-1-nl)">Hooikoorts/allergische rhinitis</span>
                           </td>
                        </tr>
                     </tbody>
                  </table>
               </div>
            </text>
            <clinicalStatus>
               <extension url="http://hl7.org/fhir/StructureDefinition/data-absent-reason">
                  <valueCode value="unknown"/>
               </extension>
            </clinicalStatus>
            <code>
               <coding>
                  <system value="http://hl7.org/fhir/sid/icpc-1-nl"/>
                  <code value="R97"/>
                  <display value="Hooikoorts/allergische rhinitis"/>
               </coding>
            </code>
            <subject>
               <reference value="urn:uuid:d21bf0c8-8970-11ea-1629-020000000000"/>
               <display value="E. XXX_Zegers"/>
            </subject>
         </Condition>
      </resource>
      <search>
         <mode value="include"/>
      </search>
   </entry>
   <entry>
      <fullUrl value="urn:uuid:d21c0c0c-8970-11ea-1629-020000000000"/>
      <resource>
         <Condition>
            <meta>
               <profile value="http://nictiz.nl/fhir/StructureDefinition/zib-Problem"/>
            </meta>
            <text>
               <status value="generated"/>
               <div xmlns="http://www.w3.org/1999/xhtml">
                  <table>
                     <caption>Aandoening. Subject: E. XXX_Zegers. Status: <i>onbekend (ontbrekend gegeven)</i>
                     </caption>
                     <tbody>
                        <tr>
                           <th>Code</th>
                           <td>
                              <span title="Boezemfibrilleren/-fladderen (K78 - sid/icpc-1-nl)">Boezemfibrilleren/-fladderen</span>
                           </td>
                        </tr>
                     </tbody>
                  </table>
               </div>
            </text>
            <clinicalStatus>
               <extension url="http://hl7.org/fhir/StructureDefinition/data-absent-reason">
                  <valueCode value="unknown"/>
               </extension>
            </clinicalStatus>
            <code>
               <coding>
                  <system value="http://hl7.org/fhir/sid/icpc-1-nl"/>
                  <code value="K78"/>
                  <display value="Boezemfibrilleren/-fladderen"/>
               </coding>
            </code>
            <subject>
               <reference value="urn:uuid:d21bf0c8-8970-11ea-1629-020000000000"/>
               <display value="E. XXX_Zegers"/>
            </subject>
         </Condition>
      </resource>
      <search>
         <mode value="include"/>
      </search>
   </entry>
</Bundle>