<?xml-model href="http://hl7.org/fhir/STU3/bundle.sch" type="application/xml" schematypens="http://purl.oclc.org/dsdl/schematron"?><Bundle xmlns="http://hl7.org/fhir"
        xmlns:xsi="http://www.w3.org/2001/XMLSchema-instance"
        xsi:schemaLocation="http://hl7.org/fhir http://hl7.org/fhir/STU3/fhir-all.xsd">
   <id value="b11593b4-fe8e-11eb-1711-020000000000"/>
   <type value="searchset"/>
   <total value="5"/>
   <link>
      <relation value="self"/>
      <url value="http://dummy.nictiz.nl/dummyquery"/>
   </link>
   <entry>
      <fullUrl value="urn:uuid:b1158829-fe8e-11eb-1711-020000000000"/>
      <resource>
         <MedicationRequest>
            <meta>
               <profile value="http://nictiz.nl/fhir/StructureDefinition/zib-MedicationAgreement"/>
            </meta>
            <text>
               <status value="extensions"/>
               <div xmlns="http://www.w3.org/1999/xhtml">
                  <table>
                     <caption>Medicatieafspraak. Subject: J. XXX_Amaya. Id: MBH_513_1_MA_1 (urn:oid:2.16.840.1.113883.2.4.3.11.999.77.16076005.1), Categorie: <span title="Prescription (procedure) (16076005 - SNOMED CT)">Prescription (procedure)</span>, Status: foutieve invoer<span style="display: block;">Intentie: aanvraag</span>
                        <span style="display: block;">Aangevraagd door: Peter van Pulver || Huisartsen, niet nader gespecificeerd || Huisartsenpraktijk Pulver &amp; Partners</span>
                     </caption>
                     <tbody>
                        <tr>
                           <th>Medicamenteuze behandel-id</th>
                           <td>MBH_513_1 (urn:oid:2.16.840.1.113883.2.4.3.11.999.77.1.1)</td>
                        </tr>
                        <tr>
                           <th>Medicatie</th>
                           <td>ACETYLSALICYLZUUR TABLETMSR 100MG</td>
                        </tr>
                        <tr>
                           <th>Gemaakt</th>
                           <td>11:25:00, 2 september 2018</td>
                        </tr>
                        <tr>
                           <th>Gebruiksduur</th>
                           <td>
                              <ul>
                                 <li>Vanaf 00:00:00, 2 september 2018</li>
                                 <li>1 jaar</li>
                              </ul>
                           </td>
                        </tr>
                        <tr>
                           <th>Doseerinstructie</th>
                           <td>
                              <div>Volgnummer: 1</div>
                              <div>Tekst: Vanaf 2 sep 2018, gedurende 1 jaar, 10 maal per dag 1 stuk, oraal</div>
                              <div>Timing: <div>10 maal per dag</div>
                              </div>
                              <div>Toedieningsweg: <span title="Oraal (9 - G-Standaard thesaurus subtabel 0007)">Oraal</span>
                              </div>
                              <div>Dosering: 1 stuk</div>
                           </td>
                        </tr>
                     </tbody>
                  </table>
               </div>
            </text>
            <extension url="http://nictiz.nl/fhir/StructureDefinition/zib-Medication-PeriodOfUse">
               <valuePeriod>
                  <start value="2018-09-02T00:00:00+02:00"/>
               </valuePeriod>
            </extension>
            <extension url="http://nictiz.nl/fhir/StructureDefinition/zib-MedicationUse-Duration">
               <valueDuration>
                  <value value="1"/>
                  <unit value="jaar"/>
                  <system value="http://unitsofmeasure.org"/>
                  <code value="a"/>
               </valueDuration>
            </extension>
            <extension url="http://nictiz.nl/fhir/StructureDefinition/zib-Medication-MedicationTreatment">
               <valueIdentifier>
                  <system value="urn:oid:2.16.840.1.113883.2.4.3.11.999.77.1.1"/>
                  <value value="MBH_513_1"/>
               </valueIdentifier>
            </extension>
            <identifier>
               <system value="urn:oid:2.16.840.1.113883.2.4.3.11.999.77.16076005.1"/>
               <value value="MBH_513_1_MA_1"/>
            </identifier>
            <status value="entered-in-error"/>
            <intent value="order"/>
            <category>
               <coding>
                  <system value="http://snomed.info/sct"/>
                  <code value="16076005"/>
                  <display value="Prescription (procedure)"/>
               </coding>
               <text value="Medicatieafspraak"/>
            </category>
            <medicationReference>
               <reference value="urn:oid:2.16.840.1.113883.2.4.4.10.49484"/>
               <display value="ACETYLSALICYLZUUR TABLETMSR 100MG"/>
            </medicationReference>
            <subject>
               <reference value="urn:uuid:b11593b8-fe8e-11eb-1711-020000000000"/>
               <display value="J. XXX_Amaya"/>
            </subject>
            <authoredOn value="2018-09-02T11:25:00+02:00"/>
            <requester>
               <agent>
                  <extension url="http://nictiz.nl/fhir/StructureDefinition/practitionerrole-reference">
                     <valueReference>
                        <reference value="urn:uuid:b1158830-fe8e-11eb-1711-020000000000"/>
                        <display value="Peter van Pulver || Huisartsen, niet nader gespecificeerd || Huisartsenpraktijk Pulver &amp; Partners"/>
                     </valueReference>
                  </extension>
                  <reference value="urn:oid:2.16.528.1.1007.3.1.1111"/>
                  <display value="Peter van Pulver"/>
               </agent>
            </requester>
            <dosageInstruction>
               <sequence value="1"/>
               <text value="Vanaf 2 sep 2018, gedurende 1 jaar, 10 maal per dag 1 stuk, oraal"/>
               <timing>
                  <repeat>
                     <frequency value="10"/>
                     <period value="1"/>
                     <periodUnit value="d"/>
                  </repeat>
               </timing>
               <route>
                  <coding>
                     <system value="urn:oid:2.16.840.1.113883.2.4.4.9"/>
                     <code value="9"/>
                     <display value="Oraal"/>
                  </coding>
               </route>
               <doseQuantity>
                  <value value="1"/>
                  <unit value="stuk"/>
                  <system value="urn:oid:2.16.840.1.113883.2.4.4.1.900.2"/>
                  <code value="245"/>
               </doseQuantity>
            </dosageInstruction>
         </MedicationRequest>
      </resource>
      <search>
         <mode value="match"/>
      </search>
   </entry>
   <entry>
      <fullUrl value="urn:uuid:b1158858-fe8e-11eb-1711-020000000000"/>
      <resource>
         <MedicationRequest>
            <meta>
               <profile value="http://nictiz.nl/fhir/StructureDefinition/zib-MedicationAgreement"/>
            </meta>
            <text>
               <status value="extensions"/>
               <div xmlns="http://www.w3.org/1999/xhtml">
                  <table>
                     <caption>Medicatieafspraak. Subject: J. XXX_Amaya. Id: MBH_513_1_MA_2 (urn:oid:2.16.840.1.113883.2.4.3.11.999.77.16076005.1), Categorie: <span title="Prescription (procedure) (16076005 - SNOMED CT)">Prescription (procedure)</span>, <span style="display: block;">Intentie: aanvraag</span>
                        <span style="display: block;">Aangevraagd door: Bertine van Doorn || Huisartsen, niet nader gespecificeerd || Huisartsenpraktijk Pulver &amp; Partners</span>
                     </caption>
                     <tbody>
                        <tr>
                           <th>Medicamenteuze behandel-id</th>
                           <td>MBH_513_1 (urn:oid:2.16.840.1.113883.2.4.3.11.999.77.1.1)</td>
                        </tr>
                        <tr>
                           <th>Medicatie</th>
                           <td>ACETYLSALICYLZUUR TABLETMSR 100MG</td>
                        </tr>
                        <tr>
                           <th>Gemaakt</th>
                           <td>09:00:00, 3 september 2018</td>
                        </tr>
                        <tr>
                           <th>Gebruiksduur</th>
                           <td>
                              <ul>
                                 <li>Vanaf 00:00:00, 3 september 2018</li>
                                 <li>1 jaar</li>
                              </ul>
                           </td>
                        </tr>
                        <tr>
                           <th>Doseerinstructie</th>
                           <td>
                              <div>Volgnummer: 1</div>
                              <div>Tekst: Vanaf 3 sep 2018, gedurende 1 jaar, 1 maal per dag 1 stuk, oraal</div>
                              <div>Timing: <div>eenmalig per dag</div>
                              </div>
                              <div>Toedieningsweg: <span title="Oraal (9 - G-Standaard thesaurus subtabel 0007)">Oraal</span>
                              </div>
                              <div>Dosering: 1 stuk</div>
                           </td>
                        </tr>
                     </tbody>
                  </table>
               </div>
            </text>
            <extension url="http://nictiz.nl/fhir/StructureDefinition/zib-Medication-PeriodOfUse">
               <valuePeriod>
                  <start value="2018-09-03T00:00:00+02:00"/>
               </valuePeriod>
            </extension>
            <extension url="http://nictiz.nl/fhir/StructureDefinition/zib-MedicationUse-Duration">
               <valueDuration>
                  <value value="1"/>
                  <unit value="jaar"/>
                  <system value="http://unitsofmeasure.org"/>
                  <code value="a"/>
               </valueDuration>
            </extension>
            <extension url="http://nictiz.nl/fhir/StructureDefinition/zib-Medication-MedicationTreatment">
               <valueIdentifier>
                  <system value="urn:oid:2.16.840.1.113883.2.4.3.11.999.77.1.1"/>
                  <value value="MBH_513_1"/>
               </valueIdentifier>
            </extension>
            <identifier>
               <system value="urn:oid:2.16.840.1.113883.2.4.3.11.999.77.16076005.1"/>
               <value value="MBH_513_1_MA_2"/>
            </identifier>
            <intent value="order"/>
            <category>
               <coding>
                  <system value="http://snomed.info/sct"/>
                  <code value="16076005"/>
                  <display value="Prescription (procedure)"/>
               </coding>
               <text value="Medicatieafspraak"/>
            </category>
            <medicationReference>
               <reference value="urn:oid:2.16.840.1.113883.2.4.4.10.49484"/>
               <display value="ACETYLSALICYLZUUR TABLETMSR 100MG"/>
            </medicationReference>
            <subject>
               <reference value="urn:uuid:b11593b8-fe8e-11eb-1711-020000000000"/>
               <display value="J. XXX_Amaya"/>
            </subject>
            <authoredOn value="2018-09-03T09:00:00+02:00"/>
            <requester>
               <agent>
                  <extension url="http://nictiz.nl/fhir/StructureDefinition/practitionerrole-reference">
                     <valueReference>
                        <reference value="urn:uuid:b115885e-fe8e-11eb-1711-020000000000"/>
                        <display value="Bertine van Doorn || Huisartsen, niet nader gespecificeerd || Huisartsenpraktijk Pulver &amp; Partners"/>
                     </valueReference>
                  </extension>
                  <reference value="urn:oid:2.16.528.1.1007.3.1.1112"/>
                  <display value="Bertine van Doorn"/>
               </agent>
            </requester>
            <dosageInstruction>
               <sequence value="1"/>
               <text value="Vanaf 3 sep 2018, gedurende 1 jaar, 1 maal per dag 1 stuk, oraal"/>
               <timing>
                  <repeat>
                     <frequency value="1"/>
                     <period value="1"/>
                     <periodUnit value="d"/>
                  </repeat>
               </timing>
               <route>
                  <coding>
                     <system value="urn:oid:2.16.840.1.113883.2.4.4.9"/>
                     <code value="9"/>
                     <display value="Oraal"/>
                  </coding>
               </route>
               <doseQuantity>
                  <value value="1"/>
                  <unit value="stuk"/>
                  <system value="urn:oid:2.16.840.1.113883.2.4.4.1.900.2"/>
                  <code value="245"/>
               </doseQuantity>
            </dosageInstruction>
         </MedicationRequest>
      </resource>
      <search>
         <mode value="match"/>
      </search>
   </entry>
   <entry>
      <fullUrl value="urn:uuid:b11589b2-fe8e-11eb-1711-020000000000"/>
      <resource>
         <MedicationRequest>
            <meta>
               <profile value="http://nictiz.nl/fhir/StructureDefinition/zib-MedicationAgreement"/>
            </meta>
            <text>
               <status value="extensions"/>
               <div xmlns="http://www.w3.org/1999/xhtml">
                  <table>
                     <caption>Medicatieafspraak. Subject: J. XXX_Amaya. Id: MBH_513_2_MA_2 (urn:oid:2.16.840.1.113883.2.4.3.11.999.77.16076005.1), Categorie: <span title="Prescription (procedure) (16076005 - SNOMED CT)">Prescription (procedure)</span>, <span style="display: block;">Intentie: aanvraag</span>
                        <span style="display: block;">Aangevraagd door: Hans van Doorn || Medisch specialisten, inwendige geneeskunde || Ziekenhuis Stitswerd</span>
                     </caption>
                     <tfoot>
                        <tr>
                           <td colspan="2">Toedieningsafspraak van apotheker ontvangen, geen medicatieafspraak van voorschrijver ontvangen. Deze nieuwe medicatieafspraak is gebaseerd op de toedieningsafspraak: MBH_513_2_TA_1</td>
                        </tr>
                     </tfoot>
                     <tbody>
                        <tr>
                           <th>Medicamenteuze behandel-id</th>
                           <td>MBH_513_2 (urn:oid:2.16.840.1.113883.2.4.3.11.999.77.1.1)</td>
                        </tr>
                        <tr>
                           <th>Gebaseerd op</th>
                           <td>relatie naar toedieningsafspraak: MBH_513_2_TA_1 || 2.16.840.1.113883.2.4.3.11.999.77.422037009.1 (Id: MBH_513_2_TA_1 (urn:oid:2.16.840.1.113883.2.4.3.11.999.77.422037009.1))</td>
                        </tr>
                        <tr>
                           <th>Medicatie</th>
                           <td>FUROSEMIDE TABLET 40MG</td>
                        </tr>
                        <tr>
                           <th>Gemaakt</th>
                           <td>14:32:00, 3 september 2018</td>
                        </tr>
                        <tr>
                           <th>Reden</th>
                           <td>
                              <span title="Opname (305335007 - SNOMED CT)">Opname</span>
                           </td>
                        </tr>
                        <tr>
                           <th>Gebruiksduur</th>
                           <td>Vanaf 00:00:00, 3 september 2018</td>
                        </tr>
                        <tr>
                           <th>Doseerinstructie</th>
                           <td>
                              <div>Volgnummer: 1</div>
                              <div>Tekst: Vanaf 3 sep 2018, tot nader order, 1 maal daags 1 stuk, oraal</div>
                              <div>Timing: <div>eenmalig per dag</div>
                              </div>
                              <div>Toedieningsweg: <span title="Oraal (9 - G-Standaard thesaurus subtabel 0007)">Oraal</span>
                              </div>
                              <div>Dosering: 1 stuk</div>
                           </td>
                        </tr>
                     </tbody>
                  </table>
               </div>
            </text>
            <extension url="http://nictiz.nl/fhir/StructureDefinition/zib-Medication-PeriodOfUse">
               <valuePeriod>
                  <start value="2018-09-03T00:00:00+02:00"/>
               </valuePeriod>
            </extension>
            <extension url="http://nictiz.nl/fhir/StructureDefinition/zib-Medication-MedicationTreatment">
               <valueIdentifier>
                  <system value="urn:oid:2.16.840.1.113883.2.4.3.11.999.77.1.1"/>
                  <value value="MBH_513_2"/>
               </valueIdentifier>
            </extension>
            <extension url="http://nictiz.nl/fhir/StructureDefinition/zib-MedicationAgreement-BasedOnAgreementOrUse">
               <valueReference>
                  <identifier>
                     <system value="urn:oid:2.16.840.1.113883.2.4.3.11.999.77.422037009.1"/>
                     <value value="MBH_513_2_TA_1"/>
                  </identifier>
                  <display value="relatie naar toedieningsafspraak: MBH_513_2_TA_1 || 2.16.840.1.113883.2.4.3.11.999.77.422037009.1"/>
               </valueReference>
            </extension>
            <identifier>
               <system value="urn:oid:2.16.840.1.113883.2.4.3.11.999.77.16076005.1"/>
               <value value="MBH_513_2_MA_2"/>
            </identifier>
            <intent value="order"/>
            <category>
               <coding>
                  <system value="http://snomed.info/sct"/>
                  <code value="16076005"/>
                  <display value="Prescription (procedure)"/>
               </coding>
               <text value="Medicatieafspraak"/>
            </category>
            <medicationReference>
               <reference value="urn:oid:2.16.840.1.113883.2.4.4.10.5967"/>
               <display value="FUROSEMIDE TABLET 40MG"/>
            </medicationReference>
            <subject>
               <reference value="urn:uuid:b11593b8-fe8e-11eb-1711-020000000000"/>
               <display value="J. XXX_Amaya"/>
            </subject>
            <authoredOn value="2018-09-03T14:32:00+02:00"/>
            <requester>
               <agent>
                  <extension url="http://nictiz.nl/fhir/StructureDefinition/practitionerrole-reference">
                     <valueReference>
                        <reference value="urn:uuid:b11589ba-fe8e-11eb-1711-020000000000"/>
                        <display value="Hans van Doorn || Medisch specialisten, inwendige geneeskunde || Ziekenhuis Stitswerd"/>
                     </valueReference>
                  </extension>
                  <reference value="urn:oid:2.16.528.1.1007.3.1.999001112"/>
                  <display value="Hans van Doorn"/>
               </agent>
            </requester>
            <reasonCode>
               <coding>
                  <system value="http://snomed.info/sct"/>
                  <code value="305335007"/>
                  <display value="Opname"/>
               </coding>
            </reasonCode>
            <note>
               <text value="Toedieningsafspraak van apotheker ontvangen, geen medicatieafspraak van voorschrijver ontvangen. Deze nieuwe medicatieafspraak is gebaseerd op de toedieningsafspraak: MBH_513_2_TA_1"/>
            </note>
            <dosageInstruction>
               <sequence value="1"/>
               <text value="Vanaf 3 sep 2018, tot nader order, 1 maal daags 1 stuk, oraal"/>
               <timing>
                  <repeat>
                     <frequency value="1"/>
                     <period value="1"/>
                     <periodUnit value="d"/>
                  </repeat>
               </timing>
               <route>
                  <coding>
                     <system value="urn:oid:2.16.840.1.113883.2.4.4.9"/>
                     <code value="9"/>
                     <display value="Oraal"/>
                  </coding>
               </route>
               <doseQuantity>
                  <value value="1"/>
                  <unit value="stuk"/>
                  <system value="urn:oid:2.16.840.1.113883.2.4.4.1.900.2"/>
                  <code value="245"/>
               </doseQuantity>
            </dosageInstruction>
         </MedicationRequest>
      </resource>
      <search>
         <mode value="match"/>
      </search>
   </entry>
   <entry>
      <fullUrl value="urn:uuid:b11589e4-fe8e-11eb-1711-020000000000"/>
      <resource>
         <MedicationRequest>
            <meta>
               <profile value="http://nictiz.nl/fhir/StructureDefinition/zib-MedicationAgreement"/>
            </meta>
            <text>
               <status value="extensions"/>
               <div xmlns="http://www.w3.org/1999/xhtml">
                  <table>
                     <caption>Medicatieafspraak. Subject: J. XXX_Amaya. Id: MBH_513_3_MA_1 (urn:oid:2.16.840.1.113883.2.4.3.11.999.77.16076005.1), Categorie: <span title="Prescription (procedure) (16076005 - SNOMED CT)">Prescription (procedure)</span>, <span style="display: block;">Intentie: aanvraag</span>
                        <span style="display: block;">Aangevraagd door: Hans van Doorn || Medisch specialisten, inwendige geneeskunde || Ziekenhuis Stitswerd</span>
                     </caption>
                     <tbody>
                        <tr>
                           <th>Medicamenteuze behandel-id</th>
                           <td>MBH_513_3 (urn:oid:2.16.840.1.113883.2.4.3.11.999.77.1.1)</td>
                        </tr>
                        <tr>
                           <th>Gebaseerd op</th>
                           <td>relatie naar medicatiegebruik: MBH_513_3_MGB_1 || 2.16.840.1.113883.2.4.3.11.999.77.6.1 (Id: MBH_513_3_MGB_1 (urn:oid:2.16.840.1.113883.2.4.3.11.999.77.6.1))</td>
                        </tr>
                        <tr>
                           <th>Medicatie</th>
                           <td>METHOTREXAAT TABLET 2,5MG</td>
                        </tr>
                        <tr>
                           <th>Gemaakt</th>
                           <td>14:32:00, 3 september 2018</td>
                        </tr>
                        <tr>
                           <th>Reden</th>
                           <td>
                              <ul>
                                 <li>
                                    <span title="Opname (305335007 - SNOMED CT)">Opname</span>
                                 </li>
                                 <li>Andere maligniteit bloed/lymfestelsel</li>
                              </ul>
                           </td>
                        </tr>
                        <tr>
                           <th>Gebruiksduur</th>
                           <td>
                              <ul>
                                 <li>Vanaf 00:00:00, 3 september 2018</li>
                                 <li>28 dag</li>
                              </ul>
                           </td>
                        </tr>
                        <tr>
                           <th>Doseerinstructie</th>
                           <td>
                              <div>Volgnummer: 1</div>
                              <div>Tekst: Vanaf 3 sep 2018, gedurende 28 dagen, 1 maal per week 5 stuks, oraal</div>
                              <div>Timing: <div>eenmalig per week</div>
                              </div>
                              <div>Toedieningsweg: <span title="Oraal (9 - G-Standaard thesaurus subtabel 0007)">Oraal</span>
                              </div>
                              <div>Dosering: 5 stuk</div>
                           </td>
                        </tr>
                     </tbody>
                  </table>
               </div>
            </text>
            <extension url="http://nictiz.nl/fhir/StructureDefinition/zib-Medication-PeriodOfUse">
               <valuePeriod>
                  <start value="2018-09-03T00:00:00+02:00"/>
               </valuePeriod>
            </extension>
            <extension url="http://nictiz.nl/fhir/StructureDefinition/zib-MedicationUse-Duration">
               <valueDuration>
                  <value value="28"/>
                  <unit value="dag"/>
                  <system value="http://unitsofmeasure.org"/>
                  <code value="d"/>
               </valueDuration>
            </extension>
            <extension url="http://nictiz.nl/fhir/StructureDefinition/zib-Medication-MedicationTreatment">
               <valueIdentifier>
                  <system value="urn:oid:2.16.840.1.113883.2.4.3.11.999.77.1.1"/>
                  <value value="MBH_513_3"/>
               </valueIdentifier>
            </extension>
            <extension url="http://nictiz.nl/fhir/StructureDefinition/zib-MedicationAgreement-BasedOnAgreementOrUse">
               <valueReference>
                  <identifier>
                     <system value="urn:oid:2.16.840.1.113883.2.4.3.11.999.77.6.1"/>
                     <value value="MBH_513_3_MGB_1"/>
                  </identifier>
                  <display value="relatie naar medicatiegebruik: MBH_513_3_MGB_1 || 2.16.840.1.113883.2.4.3.11.999.77.6.1"/>
               </valueReference>
            </extension>
            <identifier>
               <system value="urn:oid:2.16.840.1.113883.2.4.3.11.999.77.16076005.1"/>
               <value value="MBH_513_3_MA_1"/>
            </identifier>
            <intent value="order"/>
            <category>
               <coding>
                  <system value="http://snomed.info/sct"/>
                  <code value="16076005"/>
                  <display value="Prescription (procedure)"/>
               </coding>
               <text value="Medicatieafspraak"/>
            </category>
            <medicationReference>
               <reference value="urn:oid:2.16.840.1.113883.2.4.4.10.6009"/>
               <display value="METHOTREXAAT TABLET 2,5MG"/>
            </medicationReference>
            <subject>
               <reference value="urn:uuid:b11593b8-fe8e-11eb-1711-020000000000"/>
               <display value="J. XXX_Amaya"/>
            </subject>
            <authoredOn value="2018-09-03T14:32:00+02:00"/>
            <requester>
               <agent>
                  <extension url="http://nictiz.nl/fhir/StructureDefinition/practitionerrole-reference">
                     <valueReference>
                        <reference value="urn:uuid:b11589ba-fe8e-11eb-1711-020000000000"/>
                        <display value="Hans van Doorn || Medisch specialisten, inwendige geneeskunde || Ziekenhuis Stitswerd"/>
                     </valueReference>
                  </extension>
                  <reference value="urn:oid:2.16.528.1.1007.3.1.999001112"/>
                  <display value="Hans van Doorn"/>
               </agent>
            </requester>
            <reasonCode>
               <coding>
                  <system value="http://snomed.info/sct"/>
                  <code value="305335007"/>
                  <display value="Opname"/>
               </coding>
            </reasonCode>
            <reasonReference>
               <reference value="urn:uuid:b1158a01-fe8e-11eb-1711-020000000000"/>
               <display value="Andere maligniteit bloed/lymfestelsel"/>
            </reasonReference>
            <dosageInstruction>
               <sequence value="1"/>
               <text value="Vanaf 3 sep 2018, gedurende 28 dagen, 1 maal per week 5 stuks, oraal"/>
               <timing>
                  <repeat>
                     <frequency value="1"/>
                     <period value="1"/>
                     <periodUnit value="wk"/>
                  </repeat>
               </timing>
               <route>
                  <coding>
                     <system value="urn:oid:2.16.840.1.113883.2.4.4.9"/>
                     <code value="9"/>
                     <display value="Oraal"/>
                  </coding>
               </route>
               <doseQuantity>
                  <value value="5"/>
                  <unit value="stuk"/>
                  <system value="urn:oid:2.16.840.1.113883.2.4.4.1.900.2"/>
                  <code value="245"/>
               </doseQuantity>
            </dosageInstruction>
         </MedicationRequest>
      </resource>
      <search>
         <mode value="match"/>
      </search>
   </entry>
   <entry>
      <fullUrl value="urn:uuid:b1158a18-fe8e-11eb-1711-020000000000"/>
      <resource>
         <MedicationRequest>
            <meta>
               <profile value="http://nictiz.nl/fhir/StructureDefinition/zib-MedicationAgreement"/>
            </meta>
            <text>
               <status value="extensions"/>
               <div xmlns="http://www.w3.org/1999/xhtml">
                  <table>
                     <caption>Medicatieafspraak. Subject: J. XXX_Amaya. Id: MBH_513_4_MA_1 (urn:oid:2.16.840.1.113883.2.4.3.11.999.77.16076005.1), Categorie: <span title="Prescription (procedure) (16076005 - SNOMED CT)">Prescription (procedure)</span>, <span style="display: block;">Intentie: aanvraag</span>
                        <span style="display: block;">Aangevraagd door: Peter van Pulver || Huisartsen, niet nader gespecificeerd || Huisartsenpraktijk Pulver &amp; Partners</span>
                     </caption>
                     <tfoot>
                        <tr>
                           <td colspan="2">In overleg met specialist</td>
                        </tr>
                     </tfoot>
                     <tbody>
                        <tr>
                           <th>Medicamenteuze behandel-id</th>
                           <td>MBH_513_4 (urn:oid:2.16.840.1.113883.2.4.3.11.999.77.1.1)</td>
                        </tr>
                        <tr>
                           <th>Medicatie</th>
                           <td>FENETICILLINE CAPSULE 500MG</td>
                        </tr>
                        <tr>
                           <th>Ondersteunende informatie</th>
                           <td>
                              <div>Lengte: 155 cm. Datum/tijd gemeten: 29 AUG, 2018 09:35</div>
                              <div>Gewicht: 54 kg. Datum/tijd gemeten: 29 AUG, 2018 09:35</div>
                              <div>
                                 <span title="Bewust hoge dosering (1 - 2.16.840.1.113883.2.4.3.11.60.20.77.5.2.14.2050)">Bewust hoge dosering</span>
                              </div>
                           </td>
                        </tr>
                        <tr>
                           <th>Gemaakt</th>
                           <td>09:35:00, 29 augustus 2018</td>
                        </tr>
                        <tr>
                           <th>Gebruiksduur</th>
                           <td>
                              <ul>
                                 <li>Vanaf 00:00:00, 29 augustus 2018</li>
                                 <li>10 dag</li>
                              </ul>
                           </td>
                        </tr>
                        <tr>
                           <th>Doseerinstructie</th>
                           <td>
                              <div>Volgnummer: 1</div>
                              <div>Tekst: Vanaf 29 aug 2018, gedurende 10 dagen, 3 maal per dag 1 stuk, oraal</div>
                              <div>Timing: <div>3 maal per dag</div>
                              </div>
                              <div>Toedieningsweg: <span title="Oraal (9 - G-Standaard thesaurus subtabel 0007)">Oraal</span>
                              </div>
                              <div>Dosering: 1 stuk</div>
                           </td>
                        </tr>
                     </tbody>
                  </table>
               </div>
            </text>
            <extension url="http://nictiz.nl/fhir/StructureDefinition/zib-Medication-PeriodOfUse">
               <valuePeriod>
                  <start value="2018-08-29T00:00:00+02:00"/>
               </valuePeriod>
            </extension>
            <extension url="http://nictiz.nl/fhir/StructureDefinition/zib-MedicationUse-Duration">
               <valueDuration>
                  <value value="10"/>
                  <unit value="dag"/>
                  <system value="http://unitsofmeasure.org"/>
                  <code value="d"/>
               </valueDuration>
            </extension>
            <extension url="http://nictiz.nl/fhir/StructureDefinition/zib-Medication-AdditionalInformation">
               <valueCodeableConcept>
                  <coding>
                     <system value="urn:oid:2.16.840.1.113883.2.4.3.11.60.20.77.5.2.14.2050"/>
                     <code value="1"/>
                     <display value="Bewust hoge dosering"/>
                  </coding>
               </valueCodeableConcept>
            </extension>
            <extension url="http://nictiz.nl/fhir/StructureDefinition/zib-Medication-MedicationTreatment">
               <valueIdentifier>
                  <system value="urn:oid:2.16.840.1.113883.2.4.3.11.999.77.1.1"/>
                  <value value="MBH_513_4"/>
               </valueIdentifier>
            </extension>
            <identifier>
               <system value="urn:oid:2.16.840.1.113883.2.4.3.11.999.77.16076005.1"/>
               <value value="MBH_513_4_MA_1"/>
            </identifier>
            <intent value="order"/>
            <category>
               <coding>
                  <system value="http://snomed.info/sct"/>
                  <code value="16076005"/>
                  <display value="Prescription (procedure)"/>
               </coding>
               <text value="Medicatieafspraak"/>
            </category>
            <medicationReference>
               <reference value="urn:oid:2.16.840.1.113883.2.4.4.10.17205"/>
               <display value="FENETICILLINE CAPSULE 500MG"/>
            </medicationReference>
            <subject>
               <reference value="urn:uuid:b11593b8-fe8e-11eb-1711-020000000000"/>
               <display value="J. XXX_Amaya"/>
            </subject>
            <supportingInformation>
               <reference value="urn:uuid:b1158a44-fe8e-11eb-1711-020000000000"/>
               <display value="Lengte: 155 cm. Datum/tijd gemeten: 29 AUG, 2018 09:35"/>
            </supportingInformation>
            <supportingInformation>
               <reference value="urn:uuid:b1158a47-fe8e-11eb-1711-020000000000"/>
               <display value="Gewicht: 54 kg. Datum/tijd gemeten: 29 AUG, 2018 09:35"/>
            </supportingInformation>
            <authoredOn value="2018-08-29T09:35:00+02:00"/>
            <requester>
               <agent>
                  <extension url="http://nictiz.nl/fhir/StructureDefinition/practitionerrole-reference">
                     <valueReference>
                        <reference value="urn:uuid:b1158830-fe8e-11eb-1711-020000000000"/>
                        <display value="Peter van Pulver || Huisartsen, niet nader gespecificeerd || Huisartsenpraktijk Pulver &amp; Partners"/>
                     </valueReference>
                  </extension>
                  <reference value="urn:oid:2.16.528.1.1007.3.1.1111"/>
                  <display value="Peter van Pulver"/>
               </agent>
            </requester>
            <note>
               <text value="In overleg met specialist"/>
            </note>
            <dosageInstruction>
               <sequence value="1"/>
               <text value="Vanaf 29 aug 2018, gedurende 10 dagen, 3 maal per dag 1 stuk, oraal"/>
               <timing>
                  <repeat>
                     <frequency value="3"/>
                     <period value="1"/>
                     <periodUnit value="d"/>
                  </repeat>
               </timing>
               <route>
                  <coding>
                     <system value="urn:oid:2.16.840.1.113883.2.4.4.9"/>
                     <code value="9"/>
                     <display value="Oraal"/>
                  </coding>
               </route>
               <doseQuantity>
                  <value value="1"/>
                  <unit value="stuk"/>
                  <system value="urn:oid:2.16.840.1.113883.2.4.4.1.900.2"/>
                  <code value="245"/>
               </doseQuantity>
            </dosageInstruction>
         </MedicationRequest>
      </resource>
      <search>
         <mode value="match"/>
      </search>
   </entry>
   <entry>
      <fullUrl value="urn:uuid:b11593b8-fe8e-11eb-1711-020000000000"/>
      <resource>
         <Patient>
            <meta>
               <profile value="http://fhir.nl/fhir/StructureDefinition/nl-core-patient"/>
            </meta>
            <text>
               <status value="extensions"/>
               <div xmlns="http://www.w3.org/1999/xhtml">
                  <div>Id <i>afgeschermd (ontbrekend gegeven)</i> (BSN), J. XXX_Amaya, Man, 6 augustus 1964</div>
               </div>
            </text>
            <identifier>
               <system value="http://fhir.nl/fhir/NamingSystem/bsn"/>
               <value>
                  <extension url="http://hl7.org/fhir/StructureDefinition/data-absent-reason">
                     <valueCode value="masked"/>
                  </extension>
               </value>
            </identifier>
            <name>
               <extension url="http://hl7.org/fhir/StructureDefinition/humanname-assembly-order">
                  <valueCode value="NL1"/>
               </extension>
               <family value="XXX_Amaya">
                  <extension url="http://hl7.org/fhir/StructureDefinition/humanname-own-name">
                     <valueString value="XXX_Amaya"/>
                  </extension>
               </family>
               <given value="J.">
                  <extension url="http://hl7.org/fhir/StructureDefinition/iso21090-EN-qualifier">
                     <valueCode value="IN"/>
                  </extension>
               </given>
            </name>
            <gender value="male">
               <extension url="http://nictiz.nl/fhir/StructureDefinition/code-specification">
                  <valueCodeableConcept>
                     <coding>
                        <system value="http://hl7.org/fhir/v3/AdministrativeGender"/>
                        <code value="M"/>
                        <display value="Man"/>
                     </coding>
                  </valueCodeableConcept>
               </extension>
            </gender>
            <birthDate value="1964-08-06"/>
         </Patient>
      </resource>
      <search>
         <mode value="include"/>
      </search>
   </entry>
   <entry>
      <fullUrl value="urn:oid:2.16.528.1.1007.3.1.1111"/>
      <resource>
         <Practitioner>
            <meta>
               <profile value="http://fhir.nl/fhir/StructureDefinition/nl-core-practitioner"/>
            </meta>
            <text>
               <status value="extensions"/>
               <div xmlns="http://www.w3.org/1999/xhtml">
                  <div>Id 000001111 (UZI-NR-PERS), Peter van Pulver</div>
               </div>
            </text>
            <identifier>
               <system value="http://fhir.nl/fhir/NamingSystem/uzi-nr-pers"/>
               <value value="000001111"/>
            </identifier>
            <name>
               <extension url="http://hl7.org/fhir/StructureDefinition/humanname-assembly-order">
                  <valueCode value="NL1"/>
               </extension>
               <family value="van Pulver">
                  <extension url="http://hl7.org/fhir/StructureDefinition/humanname-own-prefix">
                     <valueString value="van"/>
                  </extension>
                  <extension url="http://hl7.org/fhir/StructureDefinition/humanname-own-name">
                     <valueString value="Pulver"/>
                  </extension>
               </family>
               <given value="Peter">
                  <extension url="http://hl7.org/fhir/StructureDefinition/iso21090-EN-qualifier">
                     <valueCode value="BR"/>
                  </extension>
               </given>
            </name>
         </Practitioner>
      </resource>
      <search>
         <mode value="include"/>
      </search>
   </entry>
   <entry>
      <fullUrl value="urn:oid:2.16.528.1.1007.3.1.1112"/>
      <resource>
         <Practitioner>
            <meta>
               <profile value="http://fhir.nl/fhir/StructureDefinition/nl-core-practitioner"/>
            </meta>
            <text>
               <status value="extensions"/>
               <div xmlns="http://www.w3.org/1999/xhtml">
                  <div>Id 000001112 (UZI-NR-PERS), Bertine van Doorn</div>
               </div>
            </text>
            <identifier>
               <system value="http://fhir.nl/fhir/NamingSystem/uzi-nr-pers"/>
               <value value="000001112"/>
            </identifier>
            <name>
               <extension url="http://hl7.org/fhir/StructureDefinition/humanname-assembly-order">
                  <valueCode value="NL1"/>
               </extension>
               <family value="van Doorn">
                  <extension url="http://hl7.org/fhir/StructureDefinition/humanname-own-prefix">
                     <valueString value="van"/>
                  </extension>
                  <extension url="http://hl7.org/fhir/StructureDefinition/humanname-own-name">
                     <valueString value="Doorn"/>
                  </extension>
               </family>
               <given value="Bertine">
                  <extension url="http://hl7.org/fhir/StructureDefinition/iso21090-EN-qualifier">
                     <valueCode value="BR"/>
                  </extension>
               </given>
            </name>
         </Practitioner>
      </resource>
      <search>
         <mode value="include"/>
      </search>
   </entry>
   <entry>
      <fullUrl value="urn:oid:2.16.528.1.1007.3.1.999001112"/>
      <resource>
         <Practitioner>
            <meta>
               <profile value="http://fhir.nl/fhir/StructureDefinition/nl-core-practitioner"/>
            </meta>
            <text>
               <status value="extensions"/>
               <div xmlns="http://www.w3.org/1999/xhtml">
                  <div>Id 999001112 (UZI-NR-PERS), Hans van Doorn</div>
               </div>
            </text>
            <identifier>
               <system value="http://fhir.nl/fhir/NamingSystem/uzi-nr-pers"/>
               <value value="999001112"/>
            </identifier>
            <name>
               <extension url="http://hl7.org/fhir/StructureDefinition/humanname-assembly-order">
                  <valueCode value="NL1"/>
               </extension>
               <family value="van Doorn">
                  <extension url="http://hl7.org/fhir/StructureDefinition/humanname-own-prefix">
                     <valueString value="van"/>
                  </extension>
                  <extension url="http://hl7.org/fhir/StructureDefinition/humanname-own-name">
                     <valueString value="Doorn"/>
                  </extension>
               </family>
               <given value="Hans">
                  <extension url="http://hl7.org/fhir/StructureDefinition/iso21090-EN-qualifier">
                     <valueCode value="BR"/>
                  </extension>
               </given>
            </name>
         </Practitioner>
      </resource>
      <search>
         <mode value="include"/>
      </search>
   </entry>
   <entry>
      <fullUrl value="urn:oid:2.16.528.1.1007.3.3.1111"/>
      <resource>
         <Organization>
            <meta>
               <profile value="http://fhir.nl/fhir/StructureDefinition/nl-core-organization"/>
            </meta>
            <text>
               <status value="extensions"/>
               <div xmlns="http://www.w3.org/1999/xhtml">
                  <table>
                     <caption>Organisatie. Id: 00001111 (URA)</caption>
                     <tbody>
                        <tr>
                           <th>Naam</th>
                           <td>Huisartsenpraktijk Pulver &amp; Partners</td>
                        </tr>
                        <tr>
                           <th>Adres</th>
                           <td>Dorpsstraat 1, 1234AA Ons Dorp (WP)</td>
                        </tr>
                     </tbody>
                  </table>
               </div>
            </text>
            <identifier>
               <system value="http://fhir.nl/fhir/NamingSystem/ura"/>
               <value value="00001111"/>
            </identifier>
            <name value="Huisartsenpraktijk Pulver &amp; Partners"/>
            <address>
               <extension url="http://nictiz.nl/fhir/StructureDefinition/zib-AddressInformation-AddressType">
                  <valueCodeableConcept>
                     <coding>
                        <system value="http://hl7.org/fhir/v3/AddressUse"/>
                        <code value="WP"/>
                        <display value="Werkadres"/>
                     </coding>
                  </valueCodeableConcept>
               </extension>
               <use value="work"/>
               <line value="Dorpsstraat 1">
                  <extension url="http://hl7.org/fhir/StructureDefinition/iso21090-ADXP-streetName">
                     <valueString value="Dorpsstraat"/>
                  </extension>
                  <extension url="http://hl7.org/fhir/StructureDefinition/iso21090-ADXP-houseNumber">
                     <valueString value="1"/>
                  </extension>
               </line>
               <city value="Ons Dorp"/>
               <postalCode value="1234AA"/>
            </address>
         </Organization>
      </resource>
      <search>
         <mode value="include"/>
      </search>
   </entry>
   <entry>
      <fullUrl value="urn:oid:2.16.528.1.1007.3.3.99901111"/>
      <resource>
         <Organization>
            <meta>
               <profile value="http://fhir.nl/fhir/StructureDefinition/nl-core-organization"/>
            </meta>
            <text>
               <status value="extensions"/>
               <div xmlns="http://www.w3.org/1999/xhtml">
                  <table>
                     <caption>Organisatie. Id: 99901111 (URA)</caption>
                     <tbody>
                        <tr>
                           <th>Naam</th>
                           <td>Ziekenhuis Stitswerd</td>
                        </tr>
                        <tr>
                           <th>Adres</th>
                           <td>Dorpsstraat 1, 1234AA Ons Dorp (WP)</td>
                        </tr>
                     </tbody>
                  </table>
               </div>
            </text>
            <identifier>
               <system value="http://fhir.nl/fhir/NamingSystem/ura"/>
               <value value="99901111"/>
            </identifier>
            <name value="Ziekenhuis Stitswerd"/>
            <address>
               <extension url="http://nictiz.nl/fhir/StructureDefinition/zib-AddressInformation-AddressType">
                  <valueCodeableConcept>
                     <coding>
                        <system value="http://hl7.org/fhir/v3/AddressUse"/>
                        <code value="WP"/>
                        <display value="Werkadres"/>
                     </coding>
                  </valueCodeableConcept>
               </extension>
               <use value="work"/>
               <line value="Dorpsstraat 1">
                  <extension url="http://hl7.org/fhir/StructureDefinition/iso21090-ADXP-streetName">
                     <valueString value="Dorpsstraat"/>
                  </extension>
                  <extension url="http://hl7.org/fhir/StructureDefinition/iso21090-ADXP-houseNumber">
                     <valueString value="1"/>
                  </extension>
               </line>
               <city value="Ons Dorp"/>
               <postalCode value="1234AA"/>
            </address>
         </Organization>
      </resource>
      <search>
         <mode value="include"/>
      </search>
   </entry>
   <entry>
      <fullUrl value="urn:uuid:b1158830-fe8e-11eb-1711-020000000000"/>
      <resource>
         <PractitionerRole>
            <meta>
               <profile value="http://fhir.nl/fhir/StructureDefinition/nl-core-practitionerrole"/>
            </meta>
            <text>
               <status value="extensions"/>
               <div xmlns="http://www.w3.org/1999/xhtml">
                  <table>
                     <caption>Zorgverlenerrol. </caption>
                     <tbody>
                        <tr>
                           <th>Zorgverlener</th>
                           <td>
                              <div>Peter van Pulver</div>
                              <div>Huisartsenpraktijk Pulver &amp; Partners</div>
                           </td>
                        </tr>
                        <tr>
                           <th>Specialisme</th>
                           <td>
                              <span title="Huisartsen, niet nader gespecificeerd (0100 - AGB-medisch specialisme)">Huisartsen, niet nader gespecificeerd</span>
                           </td>
                        </tr>
                     </tbody>
                  </table>
               </div>
            </text>
            <practitioner>
               <reference value="urn:oid:2.16.528.1.1007.3.1.1111"/>
               <display value="Peter van Pulver"/>
            </practitioner>
            <organization>
               <reference value="urn:oid:2.16.528.1.1007.3.3.1111"/>
               <display value="Huisartsenpraktijk Pulver &amp; Partners"/>
            </organization>
            <specialty>
               <coding>
                  <system value="urn:oid:2.16.840.1.113883.2.4.6.7"/>
                  <code value="0100"/>
                  <display value="Huisartsen, niet nader gespecificeerd"/>
               </coding>
            </specialty>
         </PractitionerRole>
      </resource>
      <search>
         <mode value="include"/>
      </search>
   </entry>
   <entry>
      <fullUrl value="urn:uuid:b115885e-fe8e-11eb-1711-020000000000"/>
      <resource>
         <PractitionerRole>
            <meta>
               <profile value="http://fhir.nl/fhir/StructureDefinition/nl-core-practitionerrole"/>
            </meta>
            <text>
               <status value="extensions"/>
               <div xmlns="http://www.w3.org/1999/xhtml">
                  <table>
                     <caption>Zorgverlenerrol. </caption>
                     <tbody>
                        <tr>
                           <th>Zorgverlener</th>
                           <td>
                              <div>Bertine van Doorn</div>
                              <div>Huisartsenpraktijk Pulver &amp; Partners</div>
                           </td>
                        </tr>
                        <tr>
                           <th>Specialisme</th>
                           <td>
                              <span title="Huisartsen, niet nader gespecificeerd (0100 - AGB-medisch specialisme)">Huisartsen, niet nader gespecificeerd</span>
                           </td>
                        </tr>
                     </tbody>
                  </table>
               </div>
            </text>
            <practitioner>
               <reference value="urn:oid:2.16.528.1.1007.3.1.1112"/>
               <display value="Bertine van Doorn"/>
            </practitioner>
            <organization>
               <reference value="urn:oid:2.16.528.1.1007.3.3.1111"/>
               <display value="Huisartsenpraktijk Pulver &amp; Partners"/>
            </organization>
            <specialty>
               <coding>
                  <system value="urn:oid:2.16.840.1.113883.2.4.6.7"/>
                  <code value="0100"/>
                  <display value="Huisartsen, niet nader gespecificeerd"/>
               </coding>
            </specialty>
         </PractitionerRole>
      </resource>
      <search>
         <mode value="include"/>
      </search>
   </entry>
   <entry>
      <fullUrl value="urn:uuid:b11589ba-fe8e-11eb-1711-020000000000"/>
      <resource>
         <PractitionerRole>
            <meta>
               <profile value="http://fhir.nl/fhir/StructureDefinition/nl-core-practitionerrole"/>
            </meta>
            <text>
               <status value="extensions"/>
               <div xmlns="http://www.w3.org/1999/xhtml">
                  <table>
                     <caption>Zorgverlenerrol. </caption>
                     <tbody>
                        <tr>
                           <th>Zorgverlener</th>
                           <td>
                              <div>Hans van Doorn</div>
                              <div>Ziekenhuis Stitswerd</div>
                           </td>
                        </tr>
                        <tr>
                           <th>Specialisme</th>
                           <td>
                              <span title="Medisch specialisten, inwendige geneeskunde (0313 - AGB-medisch specialisme)">Medisch specialisten, inwendige geneeskunde</span>
                           </td>
                        </tr>
                     </tbody>
                  </table>
               </div>
            </text>
            <practitioner>
               <reference value="urn:oid:2.16.528.1.1007.3.1.999001112"/>
               <display value="Hans van Doorn"/>
            </practitioner>
            <organization>
               <reference value="urn:oid:2.16.528.1.1007.3.3.99901111"/>
               <display value="Ziekenhuis Stitswerd"/>
            </organization>
            <specialty>
               <coding>
                  <system value="urn:oid:2.16.840.1.113883.2.4.6.7"/>
                  <code value="0313"/>
                  <display value="Medisch specialisten, inwendige geneeskunde"/>
               </coding>
            </specialty>
         </PractitionerRole>
      </resource>
      <search>
         <mode value="include"/>
      </search>
   </entry>
   <entry>
      <fullUrl value="urn:oid:2.16.840.1.113883.2.4.4.10.49484"/>
      <resource>
         <Medication>
            <meta>
               <profile value="http://nictiz.nl/fhir/StructureDefinition/zib-Product"/>
            </meta>
            <text>
               <status value="extensions"/>
               <div xmlns="http://www.w3.org/1999/xhtml">
                  <table>
                     <tbody>
                        <tr>
                           <th>Code</th>
                           <td>
                              <span title="ACETYLSALICYLZUUR TABLETMSR 100MG (49484 - G-Standaard PRK)">ACETYLSALICYLZUUR TABLETMSR 100MG</span>
                           </td>
                        </tr>
                     </tbody>
                  </table>
               </div>
            </text>
            <code>
               <coding>
                  <system value="urn:oid:2.16.840.1.113883.2.4.4.10"/>
                  <code value="49484"/>
                  <display value="ACETYLSALICYLZUUR TABLETMSR 100MG"/>
                  <userSelected value="true"/>
               </coding>
               <coding>
                  <system value="urn:oid:2.16.840.1.113883.2.4.4.1"/>
                  <code value="103039"/>
                  <display value="ACETYLSALICYLZUUR TABLETMSR 100MG"/>
               </coding>
               <text value="ACETYLSALICYLZUUR TABLETMSR 100MG"/>
            </code>
         </Medication>
      </resource>
      <search>
         <mode value="include"/>
      </search>
   </entry>
   <entry>
      <fullUrl value="urn:oid:2.16.840.1.113883.2.4.4.10.5967"/>
      <resource>
         <Medication>
            <meta>
               <profile value="http://nictiz.nl/fhir/StructureDefinition/zib-Product"/>
            </meta>
            <text>
               <status value="extensions"/>
               <div xmlns="http://www.w3.org/1999/xhtml">
                  <table>
                     <tbody>
                        <tr>
                           <th>Code</th>
                           <td>
                              <span title="FUROSEMIDE TABLET 40MG (5967 - G-Standaard PRK)">FUROSEMIDE TABLET 40MG</span>
                           </td>
                        </tr>
                     </tbody>
                  </table>
               </div>
            </text>
            <code>
               <coding>
                  <system value="urn:oid:2.16.840.1.113883.2.4.4.10"/>
                  <code value="5967"/>
                  <display value="FUROSEMIDE TABLET 40MG"/>
                  <userSelected value="true"/>
               </coding>
               <coding>
                  <system value="urn:oid:2.16.840.1.113883.2.4.4.1"/>
                  <code value="16810"/>
                  <display value="FUROSEMIDE TABLET 40MG"/>
               </coding>
               <text value="FUROSEMIDE TABLET 40MG"/>
            </code>
         </Medication>
      </resource>
      <search>
         <mode value="include"/>
      </search>
   </entry>
   <entry>
      <fullUrl value="urn:oid:2.16.840.1.113883.2.4.4.10.6009"/>
      <resource>
         <Medication>
            <meta>
               <profile value="http://nictiz.nl/fhir/StructureDefinition/zib-Product"/>
            </meta>
            <text>
               <status value="extensions"/>
               <div xmlns="http://www.w3.org/1999/xhtml">
                  <table>
                     <tbody>
                        <tr>
                           <th>Code</th>
                           <td>
                              <span title="METHOTREXAAT TABLET 2,5MG (6009 - G-Standaard PRK)">METHOTREXAAT TABLET 2,5MG</span>
                           </td>
                        </tr>
                     </tbody>
                  </table>
               </div>
            </text>
            <code>
               <coding>
                  <system value="urn:oid:2.16.840.1.113883.2.4.4.10"/>
                  <code value="6009"/>
                  <display value="METHOTREXAAT TABLET 2,5MG"/>
                  <userSelected value="true"/>
               </coding>
               <coding>
                  <system value="urn:oid:2.16.840.1.113883.2.4.4.1"/>
                  <code value="42609"/>
                  <display value="METHOTREXAAT TABLET 2,5MG"/>
               </coding>
               <text value="METHOTREXAAT TABLET 2,5MG"/>
            </code>
         </Medication>
      </resource>
      <search>
         <mode value="include"/>
      </search>
   </entry>
   <entry>
      <fullUrl value="urn:oid:2.16.840.1.113883.2.4.4.10.17205"/>
      <resource>
         <Medication>
            <meta>
               <profile value="http://nictiz.nl/fhir/StructureDefinition/zib-Product"/>
            </meta>
            <text>
               <status value="extensions"/>
               <div xmlns="http://www.w3.org/1999/xhtml">
                  <table>
                     <tbody>
                        <tr>
                           <th>Code</th>
                           <td>
                              <span title="FENETICILLINE CAPSULE 500MG (17205 - G-Standaard PRK)">FENETICILLINE CAPSULE 500MG</span>
                           </td>
                        </tr>
                     </tbody>
                  </table>
               </div>
            </text>
            <code>
               <coding>
                  <system value="urn:oid:2.16.840.1.113883.2.4.4.10"/>
                  <code value="17205"/>
                  <display value="FENETICILLINE CAPSULE 500MG"/>
                  <userSelected value="true"/>
               </coding>
               <coding>
                  <system value="urn:oid:2.16.840.1.113883.2.4.4.1"/>
                  <code value="41092"/>
                  <display value="FENETICILLINE CAPSULE 500MG"/>
               </coding>
               <text value="FENETICILLINE CAPSULE 500MG"/>
            </code>
         </Medication>
      </resource>
      <search>
         <mode value="include"/>
      </search>
   </entry>
   <entry>
      <fullUrl value="urn:uuid:b1158a44-fe8e-11eb-1711-020000000000"/>
      <resource>
         <Observation>
            <meta>
               <profile value="http://nictiz.nl/fhir/StructureDefinition/zib-BodyHeight"/>
            </meta>
            <text>
               <status value="extensions"/>
               <div xmlns="http://www.w3.org/1999/xhtml">
                  <table>
                     <caption>Observatie/bepaling. Subject: J. XXX_Amaya. Categorie: <span title="Vital Signs (vital-signs - observation-category)">Vital Signs</span>, Status: definitief<span style="display: block;">Uitvoerende: onbekend</span>
                     </caption>
                     <tbody>
                        <tr>
                           <th>Bepalingdatum/tijd</th>
                           <td>09:35:00, 29 augustus 2018</td>
                        </tr>
                        <tr>
                           <th>Code</th>
                           <th>Waarde</th>
                        </tr>
                        <tr>
                           <td>
                              <span title="lichaamslengte (8302-2 - LOINC)">lichaamslengte</span>
                           </td>
                           <td>155 cm</td>
                        </tr>
                     </tbody>
                  </table>
               </div>
            </text>
            <status value="final"/>
            <category>
               <coding>
                  <system value="http://hl7.org/fhir/observation-category"/>
                  <code value="vital-signs"/>
                  <display value="Vital Signs"/>
               </coding>
            </category>
            <code>
               <coding>
                  <system value="http://loinc.org"/>
                  <code value="8302-2"/>
                  <display value="lichaamslengte"/>
               </coding>
            </code>
            <subject>
               <reference value="urn:uuid:b11593b8-fe8e-11eb-1711-020000000000"/>
               <display value="J. XXX_Amaya"/>
            </subject>
            <effectiveDateTime value="2018-08-29T09:35:00+02:00"/>
            <performer>
               <extension url="http://hl7.org/fhir/StructureDefinition/data-absent-reason">
                  <valueCode value="unknown"/>
               </extension>
               <display value="onbekend"/>
            </performer>
            <valueQuantity>
               <value value="155"/>
               <unit value="cm"/>
               <system value="http://unitsofmeasure.org"/>
               <code value="cm"/>
            </valueQuantity>
         </Observation>
      </resource>
      <search>
         <mode value="include"/>
      </search>
   </entry>
   <entry>
      <fullUrl value="urn:uuid:b1158a47-fe8e-11eb-1711-020000000000"/>
      <resource>
         <Observation>
            <meta>
               <profile value="http://nictiz.nl/fhir/StructureDefinition/zib-BodyWeight"/>
            </meta>
            <text>
               <status value="extensions"/>
               <div xmlns="http://www.w3.org/1999/xhtml">
                  <table>
                     <caption>Observatie/bepaling. Subject: J. XXX_Amaya. Categorie: <span title="Vital Signs (vital-signs - observation-category)">Vital Signs</span>, Status: definitief<span style="display: block;">Uitvoerende: onbekend</span>
                     </caption>
                     <tbody>
                        <tr>
                           <th>Bepalingdatum/tijd</th>
                           <td>09:35:00, 29 augustus 2018</td>
                        </tr>
                        <tr>
                           <th>Code</th>
                           <th>Waarde</th>
                        </tr>
                        <tr>
                           <td>
                              <span title="lichaamsgewicht (29463-7 - LOINC)">lichaamsgewicht</span>
                           </td>
                           <td>54 kg</td>
                        </tr>
                     </tbody>
                  </table>
               </div>
            </text>
            <status value="final"/>
            <category>
               <coding>
                  <system value="http://hl7.org/fhir/observation-category"/>
                  <code value="vital-signs"/>
                  <display value="Vital Signs"/>
               </coding>
            </category>
            <code>
               <coding>
                  <system value="http://loinc.org"/>
                  <code value="29463-7"/>
                  <display value="lichaamsgewicht"/>
               </coding>
            </code>
            <subject>
               <reference value="urn:uuid:b11593b8-fe8e-11eb-1711-020000000000"/>
               <display value="J. XXX_Amaya"/>
            </subject>
            <effectiveDateTime value="2018-08-29T09:35:00+02:00"/>
            <performer>
               <extension url="http://hl7.org/fhir/StructureDefinition/data-absent-reason">
                  <valueCode value="unknown"/>
               </extension>
               <display value="onbekend"/>
            </performer>
            <valueQuantity>
               <value value="54"/>
               <unit value="kg"/>
               <system value="http://unitsofmeasure.org"/>
               <code value="kg"/>
            </valueQuantity>
         </Observation>
      </resource>
      <search>
         <mode value="include"/>
      </search>
   </entry>
   <entry>
      <fullUrl value="urn:uuid:b1158a01-fe8e-11eb-1711-020000000000"/>
      <resource>
         <Condition>
            <meta>
               <profile value="http://nictiz.nl/fhir/StructureDefinition/zib-Problem"/>
            </meta>
            <text>
               <status value="extensions"/>
               <div xmlns="http://www.w3.org/1999/xhtml">
                  <table>
                     <caption>Aandoening. Subject: J. XXX_Amaya. Status: <i>onbekend (ontbrekend gegeven)</i>
                     </caption>
                     <tbody>
                        <tr>
                           <th>Code</th>
                           <td>
                              <span title="Andere maligniteit bloed/lymfestelsel (B74 - sid/icpc-1-nl)">Andere maligniteit bloed/lymfestelsel</span>
                           </td>
                        </tr>
                     </tbody>
                  </table>
               </div>
            </text>
            <clinicalStatus>
               <extension url="http://hl7.org/fhir/StructureDefinition/data-absent-reason">
                  <valueCode value="unknown"/>
               </extension>
            </clinicalStatus>
            <code>
               <coding>
                  <system value="http://hl7.org/fhir/sid/icpc-1-nl"/>
                  <code value="B74"/>
                  <display value="Andere maligniteit bloed/lymfestelsel"/>
               </coding>
            </code>
            <subject>
               <reference value="urn:uuid:b11593b8-fe8e-11eb-1711-020000000000"/>
               <display value="J. XXX_Amaya"/>
            </subject>
         </Condition>
      </resource>
      <search>
         <mode value="include"/>
      </search>
   </entry>
</Bundle>
