<Bundle xmlns="http://hl7.org/fhir">
   <id value="mgsets-mp-smg-kwal-TA-script3-v30"/>
   <type value="transaction"/>
   <entry>
      <fullUrl value="urn:uuid:d7caaf0d-6a97-11ec-0000-020000000000"/>
      <resource>
         <MedicationDispense>
            <meta>
               <profile value="http://nictiz.nl/fhir/StructureDefinition/mp-AdministrationAgreement"/>
            </meta>
            <extension url="http://nictiz.nl/fhir/StructureDefinition/ext-AdministrationAgreement.AdditionalInformation">
               <valueString value="Gebruiksinstructie gegeven"/>
            </extension>
            <extension url="http://nictiz.nl/fhir/StructureDefinition/ext-AdministrationAgreement.AdministrationAgreementDateTime">
               <valueDateTime value="${DATE, T, D, -5}T09:15:00+02:00"/>
            </extension>
            <extension url="http://nictiz.nl/fhir/StructureDefinition/ext-RenderedDosageInstruction">
               <valueString value="Vanaf T - 5 dagen, tot en met T + 15 dagen, Bij pijn 1 à 2 spray, 1-2 doses onder de tong, na 5-10 min herhalen, max. 3 opeenvolgende doses. . Bij onvoldoende effect na in totaal 3 doses direct contact opnemen met een arts., oromucosaal"/>
            </extension>
            <extension url="http://nictiz.nl/fhir/StructureDefinition/ext-TimeInterval.Period">
               <valuePeriod>
                  <start value="${DATE, T, D, -5}T00:00:00+02:00"/>
                  <end value="${DATE, T, D, +15}T23:59:00+02:00"/>
               </valuePeriod>
            </extension>
            <extension url="http://nictiz.nl/fhir/StructureDefinition/ext-PharmaceuticalTreatment.Identifier">
               <valueIdentifier>
                  <system value="urn:oid:2.16.840.1.113883.2.4.3.11.999.77.1.1"/>
                  <value value="MBH_300_script3"/>
               </valueIdentifier>
            </extension>
            <identifier>
               <system value="urn:oid:2.16.840.1.113883.2.4.3.11.999.77.422037009.1"/>
               <value value="MBH_300_script3_TA"/>
            </identifier>
            <status value="unknown"/>
            <category>
               <coding>
                  <system value="http://snomed.info/sct"/>
                  <code value="422037009"/>
                  <display value="toedieningsafspraak"/>
               </coding>
            </category>
            <medicationReference>
               <reference value="urn:uuid:d11cb91d-6b50-11ec-0000-020000000000"/>
               <type value="Medication"/>
               <display value="NITROGLYCERINE SDZ OROMUC SPRAY"/>
            </medicationReference>
            <subject>
               <reference value="urn:uuid:22f07e1e-6b17-11ec-0000-020000000000"/>
               <type value="Patient"/>
               <display value="Patient, H. XXX_Kerkhoff"/>
            </subject>
            <performer>
               <actor>
                  <reference value="urn:uuid:98d231d8-6b0c-11ec-0000-020000000000"/>
                  <type value="Organization"/>
                  <display value="Healthcare provider (organization), Apotheek De Gulle Gaper"/>
               </actor>
            </performer>
            <authorizingPrescription>
               <type value="MedicationRequest"/>
               <identifier>
                  <system value="urn:oid:2.16.840.1.113883.2.4.3.11.999.77.16076005.1"/>
                  <value value="MBH_300_script3_MA"/>
               </identifier>
               <display value="relatie naar medicatieafspraak met identificatie: MBH_300_script3_MA || 2.16.840.1.113883.2.4.3.11.999.77.16076005.1"/>
            </authorizingPrescription>
            <dosageInstruction>
               <additionalInstruction>
                  <coding>
                     <system value="http://terminology.hl7.org/CodeSystem/v3-NullFlavor"/>
                     <code value="OTH"/>
                     <display value="overig"/>
                  </coding>
                  <text value="1-2 doses onder de tong, na 5-10 min herhalen, max. 3 opeenvolgende doses. . Bij onvoldoende effect na in totaal 3 doses direct contact opnemen met een arts."/>
               </additionalInstruction>
               <asNeededCodeableConcept>
                  <coding>
                     <system value="https://referentiemodel.nhg.org/tabellen/nhg-tabel-25-gebruiksvoorschrift#aanvullend-numeriek"/>
                     <code value="1028"/>
                     <display value="Bij pijn"/>
                  </coding>
               </asNeededCodeableConcept>
               <route>
                  <coding>
                     <system value="urn:oid:2.16.840.1.113883.2.4.4.9"/>
                     <code value="34"/>
                     <display value="oromucosaal"/>
                  </coding>
               </route>
               <doseAndRate>
                  <doseRange>
                     <low>
                        <extension url="http://hl7.org/fhir/StructureDefinition/iso21090-PQ-translation">
                           <valueQuantity>
                              <value value="1"/>
                              <unit value="Spray"/>
                              <system value="urn:oid:2.16.840.1.113883.2.4.4.1.900.2"/>
                              <code value="303"/>
                           </valueQuantity>
                        </extension>
                        <value value="1"/>
                        <unit value="Spray"/>
                        <system value="http://unitsofmeasure.org"/>
                        <code value="[drp]"/>
                     </low>
                     <high>
                        <extension url="http://hl7.org/fhir/StructureDefinition/iso21090-PQ-translation">
                           <valueQuantity>
                              <value value="2"/>
                              <unit value="Spray"/>
                              <system value="urn:oid:2.16.840.1.113883.2.4.4.1.900.2"/>
                              <code value="303"/>
                           </valueQuantity>
                        </extension>
                        <value value="2"/>
                        <unit value="Spray"/>
                        <system value="http://unitsofmeasure.org"/>
                        <code value="[drp]"/>
                     </high>
                  </doseRange>
               </doseAndRate>
            </dosageInstruction>
         </MedicationDispense>
      </resource>
      <request>
         <method value="POST"/>
         <url value="MedicationDispense"/>
      </request>
   </entry>
   <entry>
      <fullUrl value="urn:uuid:22f07e1e-6b17-11ec-0000-020000000000"/>
      <resource>
         <Patient>
            <meta>
               <profile value="http://nictiz.nl/fhir/StructureDefinition/nl-core-Patient"/>
            </meta>
            <identifier>
               <system value="http://fhir.nl/fhir/NamingSystem/bsn"/>
               <value value="999900687"/>
            </identifier>
            <name>
               <extension url="http://hl7.org/fhir/StructureDefinition/humanname-assembly-order">
                  <valueCode value="NL1"/>
               </extension>
               <use value="official"/>
               <text value="H. XXX_Kerkhoff"/>
               <family value="XXX_Kerkhoff">
                  <extension url="http://hl7.org/fhir/StructureDefinition/humanname-own-name">
                     <valueString value="XXX_Kerkhoff"/>
                  </extension>
               </family>
               <given value="H.">
                  <extension url="http://hl7.org/fhir/StructureDefinition/iso21090-EN-qualifier">
                     <valueCode value="IN"/>
                  </extension>
               </given>
            </name>
            <gender value="male">
               <extension url="http://nictiz.nl/fhir/StructureDefinition/ext-CodeSpecification">
                  <valueCodeableConcept>
                     <coding>
                        <system value="http://terminology.hl7.org/CodeSystem/v3-AdministrativeGender"/>
                        <code value="M"/>
                        <display value="Man"/>
                     </coding>
                  </valueCodeableConcept>
               </extension>
            </gender>
            <birthDate value="1963-11-09"/>
         </Patient>
      </resource>
      <request>
         <method value="POST"/>
         <url value="Patient"/>
      </request>
   </entry>
   <entry>
      <fullUrl value="urn:uuid:98d231d8-6b0c-11ec-0000-020000000000"/>
      <resource>
         <Organization>
            <meta>
               <profile value="http://nictiz.nl/fhir/StructureDefinition/nl-core-HealthcareProvider-Organization"/>
            </meta>
            <identifier>
               <system value="http://fhir.nl/fhir/NamingSystem/ura"/>
               <value value="01236578"/>
            </identifier>
            <name value="Apotheek De Gulle Gaper"/>
         </Organization>
      </resource>
      <request>
         <method value="POST"/>
         <url value="Organization"/>
      </request>
   </entry>
   <entry>
      <fullUrl value="urn:uuid:d11cb91d-6b50-11ec-0000-020000000000"/>
      <resource>
         <Medication>
            <meta>
               <profile value="http://nictiz.nl/fhir/StructureDefinition/mp-PharmaceuticalProduct"/>
            </meta>
            <code>
               <coding>
                  <system value="urn:oid:2.16.840.1.113883.2.4.4.7"/>
                  <code value="1822454"/>
                  <display value="NITROGLYCERINE SDZ OROMUC SPRAY"/>
                  <userSelected value="true"/>
               </coding>
               <coding>
                  <system value="urn:oid:2.16.840.1.113883.2.4.4.10"/>
                  <code value="72206"/>
                  <display value="NITROGLYCERINE SPRAY SUBLING. 0,4MG/DO"/>
               </coding>
               <coding>
                  <system value="urn:oid:2.16.840.1.113883.2.4.4.1"/>
                  <code value="119431"/>
                  <display value="NITROGLYCERINE SPRAY SUBLING. 0,4MG/DO"/>
               </coding>
               <text value="NITROGLYCERINE SDZ OROMUC SPRAY"/>
            </code>
         </Medication>
      </resource>
      <request>
         <method value="POST"/>
         <url value="Medication"/>
      </request>
   </entry>
</Bundle>
