<Bundle xmlns="http://hl7.org/fhir">
   <id value="mgsets-mp-smg-kwal-MGB-script2-v30"/>
   <type value="transaction"/>
   <entry>
      <fullUrl value="urn:uuid:9aae13a6-6aaa-11ec-0000-020000000000"/>
      <resource>
         <MedicationStatement>
            <meta>
               <profile value="http://nictiz.nl/fhir/StructureDefinition/mp-MedicationUse2"/>
            </meta>
            <extension url="http://nictiz.nl/fhir/StructureDefinition/ext-RenderedDosageInstruction">
               <valueString value="Volgens schema trombosedienst, oraal"/>
            </extension>
            <extension url="http://nictiz.nl/fhir/StructureDefinition/ext-MedicationUse2.Prescriber">
               <valueReference>
                  <reference value="urn:uuid:36322824-6aed-11ec-0000-020000000000"/>
                  <type value="PractitionerRole"/>
                  <display value="Healthcare professional (role), Peter van Pulver, Huisartsen, niet nader gespecificeerd, Huisartsenpraktijk Pulver &amp; Partners"/>
               </valueReference>
            </extension>
            <extension url="http://nictiz.nl/fhir/StructureDefinition/ext-AsAgreedIndicator">
               <valueBoolean value="true"/>
            </extension>
            <extension url="http://nictiz.nl/fhir/StructureDefinition/ext-PharmaceuticalTreatment.Identifier">
               <valueIdentifier>
                  <system value="urn:oid:2.16.840.1.113883.2.4.3.11.999.77.1.1"/>
                  <value value="MBH_300_script2"/>
               </valueIdentifier>
            </extension>
            <extension url="http://nictiz.nl/fhir/StructureDefinition/ext-MedicationUse2.Author">
               <valueReference>
                  <reference value="urn:uuid:8d3d1824-6aeb-11ec-0000-020000000000"/>
                  <type value="PractitionerRole"/>
                  <display value="Healthcare professional (role), Tanja de Bakker, Trombosediensten, Trombosedienst Ons Dorp"/>
               </valueReference>
            </extension>
            <identifier>
               <system value="urn:oid:2.16.840.1.113883.2.4.3.11.999.77.6.1"/>
               <value value="MBH_300_script2_MGB1"/>
            </identifier>
            <status value="active"/>
            <category>
               <coding>
                  <system value="http://snomed.info/sct"/>
                  <code value="422979000"/>
                  <display value="bevinding betreffende gedrag met betrekking tot medicatieregime"/>
               </coding>
            </category>
            <medicationReference>
               <reference value="urn:uuid:d6d3451d-6ae0-11ec-0000-020000000000"/>
               <type value="Medication"/>
               <display value="ACENOCOUMAROL CF TABLET 1MG"/>
            </medicationReference>
            <subject>
               <reference value="urn:uuid:6db1ecb2-6aa7-11ec-0000-020000000000"/>
               <type value="Patient"/>
               <display value="Patient, M. van XXX_Noordman"/>
            </subject>
            <effectivePeriod>
               <start value="${DATE, T, D, -40}T00:00:00+02:00"/>
               <end value="${DATE, T, D, -37}T23:59:59+02:00"/>
            </effectivePeriod>
            <dateAsserted value="${DATE, T, D, -36}T14:25:00+02:00"/>
            <informationSource>
               <reference value="urn:uuid:1488fa9e-6b23-11ec-0000-020000000000"/>
               <type value="RelatedPerson"/>
               <display value="Contact person, Toos de Bakker"/>
            </informationSource>
            <derivedFrom>
               <extension url="http://nictiz.nl/fhir/StructureDefinition/ext-ResourceCategory">
                  <valueCodeableConcept>
                     <coding>
                        <system value="http://snomed.info/sct"/>
                        <code value="422037009"/>
                        <display value="toedieningsafspraak"/>
                     </coding>
                  </valueCodeableConcept>
               </extension>
               <type value="MedicationRequest"/>
               <identifier>
                  <system value="urn:oid:2.16.840.1.113883.2.4.3.11.999.77.422037009.1"/>
                  <value value="MBH_300_script2_TA"/>
               </identifier>
               <display value="relatie naar toedieningsafspraak"/>
            </derivedFrom>
            <dosage>
               <additionalInstruction>
                  <coding>
                     <system value="http://terminology.hl7.org/CodeSystem/v3-NullFlavor"/>
                     <code value="OTH"/>
                     <display value="overig"/>
                  </coding>
                  <text value="Volgens schema trombosedienst"/>
               </additionalInstruction>
               <route>
                  <coding>
                     <system value="urn:oid:2.16.840.1.113883.2.4.4.9"/>
                     <code value="9"/>
                     <display value="oraal"/>
                  </coding>
               </route>
            </dosage>
         </MedicationStatement>
      </resource>
      <request>
         <method value="POST"/>
         <url value="MedicationStatement"/>
      </request>
   </entry>
   <entry>
      <fullUrl value="urn:uuid:fb6fbba6-6b3e-11ec-0000-020000000000"/>
      <resource>
         <MedicationStatement>
            <meta>
               <profile value="http://nictiz.nl/fhir/StructureDefinition/mp-MedicationUse2"/>
            </meta>
            <extension url="http://nictiz.nl/fhir/StructureDefinition/ext-RenderedDosageInstruction">
               <valueString value="Volgens schema trombosedienst, oraal"/>
            </extension>
            <extension url="http://nictiz.nl/fhir/StructureDefinition/ext-MedicationUse2.Prescriber">
               <valueReference>
                  <reference value="urn:uuid:36322824-6aed-11ec-0000-020000000000"/>
                  <type value="PractitionerRole"/>
                  <display value="Healthcare professional (role), Peter van Pulver, Huisartsen, niet nader gespecificeerd, Huisartsenpraktijk Pulver &amp; Partners"/>
               </valueReference>
            </extension>
            <extension url="http://nictiz.nl/fhir/StructureDefinition/ext-AsAgreedIndicator">
               <valueBoolean value="true"/>
            </extension>
            <extension url="http://nictiz.nl/fhir/StructureDefinition/ext-PharmaceuticalTreatment.Identifier">
               <valueIdentifier>
                  <system value="urn:oid:2.16.840.1.113883.2.4.3.11.999.77.1.1"/>
                  <value value="MBH_300_script2"/>
               </valueIdentifier>
            </extension>
            <extension url="http://nictiz.nl/fhir/StructureDefinition/ext-MedicationUse2.Author">
               <valueReference>
                  <reference value="urn:uuid:8d3d1824-6aeb-11ec-0000-020000000000"/>
                  <type value="PractitionerRole"/>
                  <display value="Healthcare professional (role), Tanja de Bakker, Trombosediensten, Trombosedienst Ons Dorp"/>
               </valueReference>
            </extension>
            <identifier>
               <system value="urn:oid:2.16.840.1.113883.2.4.3.11.999.77.6.1"/>
               <value value="MBH_300_script2_MGB2"/>
            </identifier>
            <status value="active"/>
            <category>
               <coding>
                  <system value="http://snomed.info/sct"/>
                  <code value="422979000"/>
                  <display value="bevinding betreffende gedrag met betrekking tot medicatieregime"/>
               </coding>
            </category>
            <medicationReference>
               <reference value="urn:uuid:d6d3451d-6ae0-11ec-0000-020000000000"/>
               <type value="Medication"/>
               <display value="ACENOCOUMAROL CF TABLET 1MG"/>
            </medicationReference>
            <subject>
               <reference value="urn:uuid:6db1ecb2-6aa7-11ec-0000-020000000000"/>
               <type value="Patient"/>
               <display value="Patient, M. van XXX_Noordman"/>
            </subject>
            <effectivePeriod>
               <start value="${DATE, T, D, -36}T00:00:00+02:00"/>
               <end value="${DATE, T, D, -24}T23:59:59+02:00"/>
            </effectivePeriod>
            <dateAsserted value="${DATE, T, D, -20}T10:25:00+02:00"/>
            <informationSource>
               <reference value="urn:uuid:1488fa9e-6b23-11ec-0000-020000000000"/>
               <type value="RelatedPerson"/>
               <display value="Contact person, Toos de Bakker"/>
            </informationSource>
            <derivedFrom>
               <extension url="http://nictiz.nl/fhir/StructureDefinition/ext-ResourceCategory">
                  <valueCodeableConcept>
                     <coding>
                        <system value="http://snomed.info/sct"/>
                        <code value="422037009"/>
                        <display value="toedieningsafspraak"/>
                     </coding>
                  </valueCodeableConcept>
               </extension>
               <type value="MedicationRequest"/>
               <identifier>
                  <system value="urn:oid:2.16.840.1.113883.2.4.3.11.999.77.422037009.1"/>
                  <value value="MBH_300_script2_TA"/>
               </identifier>
               <display value="relatie naar toedieningsafspraak"/>
            </derivedFrom>
            <dosage>
               <additionalInstruction>
                  <coding>
                     <system value="http://terminology.hl7.org/CodeSystem/v3-NullFlavor"/>
                     <code value="OTH"/>
                     <display value="overig"/>
                  </coding>
                  <text value="Volgens schema trombosedienst"/>
               </additionalInstruction>
               <route>
                  <coding>
                     <system value="urn:oid:2.16.840.1.113883.2.4.4.9"/>
                     <code value="9"/>
                     <display value="oraal"/>
                  </coding>
               </route>
            </dosage>
         </MedicationStatement>
      </resource>
      <request>
         <method value="POST"/>
         <url value="MedicationStatement"/>
      </request>
   </entry>
   <entry>
      <fullUrl value="urn:uuid:6db1ecb2-6aa7-11ec-0000-020000000000"/>
      <resource>
         <Patient>
            <meta>
               <profile value="http://nictiz.nl/fhir/StructureDefinition/nl-core-Patient"/>
            </meta>
            <identifier>
               <system value="http://fhir.nl/fhir/NamingSystem/bsn"/>
               <value value="999900857"/>
            </identifier>
            <name>
               <extension url="http://hl7.org/fhir/StructureDefinition/humanname-assembly-order">
                  <valueCode value="NL1"/>
               </extension>
               <use value="official"/>
               <text value="M. van XXX_Noordman"/>
               <family value="van XXX_Noordman">
                  <extension url="http://hl7.org/fhir/StructureDefinition/humanname-own-prefix">
                     <valueString value="van"/>
                  </extension>
                  <extension url="http://hl7.org/fhir/StructureDefinition/humanname-own-name">
                     <valueString value="XXX_Noordman"/>
                  </extension>
               </family>
               <given value="M.">
                  <extension url="http://hl7.org/fhir/StructureDefinition/iso21090-EN-qualifier">
                     <valueCode value="IN"/>
                  </extension>
               </given>
            </name>
            <gender value="female">
               <extension url="http://nictiz.nl/fhir/StructureDefinition/ext-CodeSpecification">
                  <valueCodeableConcept>
                     <coding>
                        <system value="http://terminology.hl7.org/CodeSystem/v3-AdministrativeGender"/>
                        <code value="F"/>
                        <display value="Vrouw"/>
                     </coding>
                  </valueCodeableConcept>
               </extension>
            </gender>
            <birthDate value="1985-10-30"/>
            <address>
               <extension url="http://nictiz.nl/fhir/StructureDefinition/ext-AddressInformation.AddressType">
                  <valueCodeableConcept>
                     <coding>
                        <system value="http://terminology.hl7.org/CodeSystem/v3-AddressUse"/>
                        <code value="PST"/>
                        <display value="Postadres"/>
                     </coding>
                  </valueCodeableConcept>
               </extension>
               <type value="postal"/>
               <line value="Knolweg 1002">
                  <extension url="http://hl7.org/fhir/StructureDefinition/iso21090-ADXP-streetName">
                     <valueString value="Knolweg"/>
                  </extension>
                  <extension url="http://hl7.org/fhir/StructureDefinition/iso21090-ADXP-houseNumber">
                     <valueString value="1002"/>
                  </extension>
               </line>
               <city value="Stitswerd"/>
               <district value="STITSWERD"/>
               <postalCode value="9999ZZ"/>
               <country value="Nederland">
                  <extension url="http://nictiz.nl/fhir/StructureDefinition/ext-CodeSpecification">
                     <valueCodeableConcept>
                        <coding>
                           <system value="urn:iso:std:iso:3166"/>
                           <version value="2020-10-26T00:00:00"/>
                           <code value="NL"/>
                           <display value="Nederland"/>
                        </coding>
                     </valueCodeableConcept>
                  </extension>
               </country>
            </address>
         </Patient>
      </resource>
      <request>
         <method value="POST"/>
         <url value="Patient"/>
      </request>
   </entry>
   <entry>
      <fullUrl value="urn:uuid:1488fa9e-6b23-11ec-0000-020000000000"/>
      <resource>
         <RelatedPerson>
            <meta>
               <profile value="http://nictiz.nl/fhir/StructureDefinition/nl-core-ContactPerson"/>
            </meta>
            <patient>
               <reference value="urn:uuid:6db1ecb2-6aa7-11ec-0000-020000000000"/>
               <type value="Patient"/>
               <display value="Patient, M. van XXX_Noordman"/>
            </patient>
            <relationship>
               <coding>
                  <system value="urn:oid:2.16.840.1.113883.2.4.3.11.60.40.4.23.1"/>
                  <code value="100001"/>
                  <display value="Mantelzorger"/>
               </coding>
            </relationship>
            <name>
               <use value="official"/>
               <text value="Toos de Bakker"/>
               <family value="de Bakker">
                  <extension url="http://hl7.org/fhir/StructureDefinition/humanname-own-prefix">
                     <valueString value="de"/>
                  </extension>
                  <extension url="http://hl7.org/fhir/StructureDefinition/humanname-own-name">
                     <valueString value="Bakker"/>
                  </extension>
               </family>
               <given value="Toos">
                  <extension url="http://hl7.org/fhir/StructureDefinition/iso21090-EN-qualifier">
                     <valueCode value="BR"/>
                  </extension>
               </given>
            </name>
         </RelatedPerson>
      </resource>
      <request>
         <method value="POST"/>
         <url value="RelatedPerson"/>
      </request>
   </entry>
   <entry>
      <fullUrl value="urn:uuid:36322824-6aed-11ec-0000-020000000000"/>
      <resource>
         <PractitionerRole>
            <meta>
               <profile value="http://nictiz.nl/fhir/StructureDefinition/nl-core-HealthProfessional-PractitionerRole"/>
            </meta>
            <practitioner>
               <reference value="urn:uuid:4a573558-6ad5-11ec-0000-020000000000"/>
               <type value="Practitioner"/>
               <display value="Healthcare professional (person), Peter van Pulver"/>
            </practitioner>
            <organization>
               <reference value="urn:uuid:7fa869d8-6b44-11ec-0000-020000000000"/>
               <type value="Organization"/>
               <display value="Healthcare provider (organization), Huisartsenpraktijk Pulver &amp; Partners"/>
            </organization>
            <specialty>
               <coding>
                  <system value="urn:oid:2.16.840.1.113883.2.4.6.7"/>
                  <version value="2020-10-23T00:00:00"/>
                  <code value="0100"/>
                  <display value="Huisartsen, niet nader gespecificeerd"/>
               </coding>
            </specialty>
         </PractitionerRole>
      </resource>
      <request>
         <method value="POST"/>
         <url value="PractitionerRole"/>
      </request>
   </entry>
   <entry>
      <fullUrl value="urn:uuid:4a573558-6ad5-11ec-0000-020000000000"/>
      <resource>
         <Practitioner>
            <meta>
               <profile value="http://nictiz.nl/fhir/StructureDefinition/nl-core-HealthProfessional-Practitioner"/>
            </meta>
            <identifier>
               <system value="http://fhir.nl/fhir/NamingSystem/uzi-nr-pers"/>
               <value value="000001111"/>
            </identifier>
            <name>
               <use value="official"/>
               <text value="Peter van Pulver"/>
               <family value="van Pulver">
                  <extension url="http://hl7.org/fhir/StructureDefinition/humanname-own-prefix">
                     <valueString value="van"/>
                  </extension>
                  <extension url="http://hl7.org/fhir/StructureDefinition/humanname-own-name">
                     <valueString value="Pulver"/>
                  </extension>
               </family>
               <given value="Peter">
                  <extension url="http://hl7.org/fhir/StructureDefinition/iso21090-EN-qualifier">
                     <valueCode value="BR"/>
                  </extension>
               </given>
            </name>
         </Practitioner>
      </resource>
      <request>
         <method value="POST"/>
         <url value="Practitioner"/>
      </request>
   </entry>
   <entry>
      <fullUrl value="urn:uuid:8d3d1824-6aeb-11ec-0000-020000000000"/>
      <resource>
         <PractitionerRole>
            <meta>
               <profile value="http://nictiz.nl/fhir/StructureDefinition/nl-core-HealthProfessional-PractitionerRole"/>
            </meta>
            <practitioner>
               <reference value="urn:uuid:7cac7558-6b5d-11ec-0000-020000000000"/>
               <type value="Practitioner"/>
               <display value="Healthcare professional (person), Tanja de Bakker"/>
            </practitioner>
            <organization>
               <reference value="urn:uuid:5bc4856e-6b7b-11ec-0000-020000000000"/>
               <type value="Organization"/>
               <display value="Healthcare provider (organization), Trombosedienst Ons Dorp"/>
            </organization>
            <specialty>
               <coding>
                  <system value="urn:oid:2.16.840.1.113883.2.4.6.7"/>
                  <version value="2020-10-23T00:00:00"/>
                  <code value="3400"/>
                  <display value="Trombosediensten"/>
               </coding>
            </specialty>
         </PractitionerRole>
      </resource>
      <request>
         <method value="POST"/>
         <url value="PractitionerRole"/>
      </request>
   </entry>
   <entry>
      <fullUrl value="urn:uuid:7cac7558-6b5d-11ec-0000-020000000000"/>
      <resource>
         <Practitioner>
            <meta>
               <profile value="http://nictiz.nl/fhir/StructureDefinition/nl-core-HealthProfessional-Practitioner"/>
            </meta>
            <identifier>
               <system value="http://fhir.nl/fhir/NamingSystem/uzi-nr-pers"/>
               <value value="222221111"/>
            </identifier>
            <name>
               <use value="official"/>
               <text value="Tanja de Bakker"/>
               <family value="de Bakker">
                  <extension url="http://hl7.org/fhir/StructureDefinition/humanname-own-prefix">
                     <valueString value="de"/>
                  </extension>
                  <extension url="http://hl7.org/fhir/StructureDefinition/humanname-own-name">
                     <valueString value="Bakker"/>
                  </extension>
               </family>
               <given value="Tanja">
                  <extension url="http://hl7.org/fhir/StructureDefinition/iso21090-EN-qualifier">
                     <valueCode value="BR"/>
                  </extension>
               </given>
            </name>
         </Practitioner>
      </resource>
      <request>
         <method value="POST"/>
         <url value="Practitioner"/>
      </request>
   </entry>
   <entry>
      <fullUrl value="urn:uuid:7fa869d8-6b44-11ec-0000-020000000000"/>
      <resource>
         <Organization>
            <meta>
               <profile value="http://nictiz.nl/fhir/StructureDefinition/nl-core-HealthcareProvider-Organization"/>
            </meta>
            <identifier>
               <system value="http://fhir.nl/fhir/NamingSystem/ura"/>
               <value value="00001111"/>
            </identifier>
            <name value="Huisartsenpraktijk Pulver &amp; Partners"/>
            <address>
               <extension url="http://nictiz.nl/fhir/StructureDefinition/ext-AddressInformation.AddressType">
                  <valueCodeableConcept>
                     <coding>
                        <system value="http://terminology.hl7.org/CodeSystem/v3-AddressUse"/>
                        <code value="WP"/>
                        <display value="Werkadres"/>
                     </coding>
                  </valueCodeableConcept>
               </extension>
               <use value="work"/>
               <line value="Dorpsstraat 1">
                  <extension url="http://hl7.org/fhir/StructureDefinition/iso21090-ADXP-streetName">
                     <valueString value="Dorpsstraat"/>
                  </extension>
                  <extension url="http://hl7.org/fhir/StructureDefinition/iso21090-ADXP-houseNumber">
                     <valueString value="1"/>
                  </extension>
               </line>
               <city value="Ons Dorp"/>
               <postalCode value="1234AA"/>
            </address>
         </Organization>
      </resource>
      <request>
         <method value="POST"/>
         <url value="Organization"/>
      </request>
   </entry>
   <entry>
      <fullUrl value="urn:uuid:5bc4856e-6b7b-11ec-0000-020000000000"/>
      <resource>
         <Organization>
            <meta>
               <profile value="http://nictiz.nl/fhir/StructureDefinition/nl-core-HealthcareProvider-Organization"/>
            </meta>
            <identifier>
               <system value="http://fhir.nl/fhir/NamingSystem/ura"/>
               <value value="11112222"/>
            </identifier>
            <type>
               <coding>
                  <system value="urn:oid:2.16.840.1.113883.2.4.6.7"/>
                  <version value="2020-10-23T00:00:00"/>
                  <code value="3400"/>
                  <display value="Trombosediensten"/>
               </coding>
            </type>
            <name value="Trombosedienst Ons Dorp"/>
            <address>
               <extension url="http://nictiz.nl/fhir/StructureDefinition/ext-AddressInformation.AddressType">
                  <valueCodeableConcept>
                     <coding>
                        <system value="http://terminology.hl7.org/CodeSystem/v3-AddressUse"/>
                        <code value="WP"/>
                        <display value="Werkadres"/>
                     </coding>
                  </valueCodeableConcept>
               </extension>
               <use value="work"/>
               <line value="Kerkstraat 28 d">
                  <extension url="http://hl7.org/fhir/StructureDefinition/iso21090-ADXP-streetName">
                     <valueString value="Kerkstraat"/>
                  </extension>
                  <extension url="http://hl7.org/fhir/StructureDefinition/iso21090-ADXP-houseNumber">
                     <valueString value="28"/>
                  </extension>
                  <extension url="http://hl7.org/fhir/StructureDefinition/iso21090-ADXP-buildingNumberSuffix">
                     <valueString value="d"/>
                  </extension>
               </line>
               <city value="Ons Dorp"/>
               <postalCode value="1332GH"/>
            </address>
         </Organization>
      </resource>
      <request>
         <method value="POST"/>
         <url value="Organization"/>
      </request>
   </entry>
   <entry>
      <fullUrl value="urn:uuid:d6d3451d-6ae0-11ec-0000-020000000000"/>
      <resource>
         <Medication>
            <meta>
               <profile value="http://nictiz.nl/fhir/StructureDefinition/mp-PharmaceuticalProduct"/>
            </meta>
            <code>
               <coding>
                  <system value="urn:oid:2.16.840.1.113883.2.4.4.7"/>
                  <code value="856126"/>
                  <display value="ACENOCOUMAROL CF TABLET 1MG"/>
                  <userSelected value="true"/>
               </coding>
               <coding>
                  <system value="urn:oid:2.16.840.1.113883.2.4.4.10"/>
                  <code value="7323"/>
                  <display value="ACENOCOUMAROL TABLET 1MG"/>
               </coding>
               <coding>
                  <system value="urn:oid:2.16.840.1.113883.2.4.4.1"/>
                  <code value="20303"/>
                  <display value="ACENOCOUMAROL TABLET 1MG"/>
               </coding>
               <text value="ACENOCOUMAROL CF TABLET 1MG"/>
            </code>
         </Medication>
      </resource>
      <request>
         <method value="POST"/>
         <url value="Medication"/>
      </request>
   </entry>
</Bundle>