<?xml-model href="http://hl7.org/fhir/STU3/bundle.sch" type="application/xml" schematypens="http://purl.oclc.org/dsdl/schematron"?><Bundle xmlns="http://hl7.org/fhir"
        xmlns:xsi="http://www.w3.org/2001/XMLSchema-instance"
        xsi:schemaLocation="http://hl7.org/fhir http://hl7.org/fhir/STU3/bundle.xsd">
   <type value="searchset"/>
   <total value="1"/>
   <entry>
      <fullUrl value="urn:uuid:74b6aeaa-193f-11eb-1505-020000000000"/>
      <resource>
         <Flag>
            <meta>
               <profile value="http://nictiz.nl/fhir/StructureDefinition/zib-MedicationContraIndication"/>
            </meta>
            <text>
               <status value="extensions"/>
               <div xmlns="http://www.w3.org/1999/xhtml">
                  <table>
                     <caption>Attentievlag. Subject: M XXX_Strengers. Categorie: <span title="contra-indicatie met betrekking op medicatiebewaking (140401000146105 - SNOMED CT)">contra-indicatie met betrekking op medicatiebewaking</span>, Status: <i>onbekend (ontbrekend gegeven)</i>
                     </caption>
                     <tbody>
                        <tr>
                           <th>Code</th>
                           <td>
                              <span title="Zwangerschap (1320 - G-Standaard Tabel 40)">Zwangerschap</span>
                           </td>
                        </tr>
                     </tbody>
                  </table>
               </div>
            </text>
            <status>
               <extension url="http://hl7.org/fhir/StructureDefinition/data-absent-reason">
                  <valueCode value="unknown"/>
               </extension>
            </status>
            <category>
               <coding>
                  <system value="http://snomed.info/sct"/>
                  <code value="140401000146105"/>
                  <display value="contra-indicatie met betrekking op medicatiebewaking"/>
               </coding>
            </category>
            <code>
               <coding>
                  <system value="urn:oid:2.16.840.1.113883.2.4.4.1.902.40"/>
                  <code value="1320"/>
                  <display value="Zwangerschap"/>
               </coding>
            </code>
            <subject>
               <reference value="urn:uuid:74b6bab5-193f-11eb-1505-020000000000"/>
               <display value="M XXX_Strengers"/>
            </subject>
         </Flag>
      </resource>
      <search>
         <mode value="match"/>
      </search>
   </entry>
   <entry>
      <fullUrl value="urn:uuid:74b6bab5-193f-11eb-1505-020000000000"/>
      <resource>
         <Patient>
            <meta>
               <profile value="http://fhir.nl/fhir/StructureDefinition/nl-core-patient"/>
            </meta>
            <text>
               <status value="extensions"/>
               <div xmlns="http://www.w3.org/1999/xhtml">
                  <div>Id <i>afgeschermd (ontbrekend gegeven)</i> (BSN), M XXX_Strengers, Vrouw, 27 juli 1964</div>
                  <div>
                     <a href="tel:0612345678">0612345678</a> (Tel Mobiel), <a href="mailto:psdegraaf@ci.nl">psdegraaf@ci.nl</a> (E-mail Privé)</div>
                  <div>Knolweg 1001, 9999XA Enschede Stitswerd (Post)</div>
               </div>
            </text>
            <identifier>
               <system value="http://fhir.nl/fhir/NamingSystem/bsn"/>
               <value>
                  <extension url="http://hl7.org/fhir/StructureDefinition/data-absent-reason">
                     <valueCode value="masked"/>
                  </extension>
               </value>
            </identifier>
            <name>
               <family value="XXX_Strengers">
                  <extension url="http://hl7.org/fhir/StructureDefinition/humanname-own-name">
                     <valueString value="XXX_Strengers"/>
                  </extension>
               </family>
               <given value="M">
                  <extension url="http://hl7.org/fhir/StructureDefinition/iso21090-EN-qualifier">
                     <valueCode value="IN"/>
                  </extension>
               </given>
            </name>
            <telecom>
               <system value="phone">
                  <extension url="http://nictiz.nl/fhir/StructureDefinition/code-specification">
                     <valueCodeableConcept>
                        <coding>
                           <system value="http://hl7.org/fhir/v3/AddressUse"/>
                           <code value="MC"/>
                           <display value="Mobiel telefoonnummer"/>
                        </coding>
                     </valueCodeableConcept>
                  </extension>
               </system>
               <value value="0612345678"/>
               <use value="mobile">
                  <extension url="http://nictiz.nl/fhir/StructureDefinition/code-specification">
                     <valueCodeableConcept>
                        <coding>
                           <system value="http://hl7.org/fhir/v3/AddressUse"/>
                           <code value="WP"/>
                           <display value="Zakelijk telefoonnummer"/>
                        </coding>
                     </valueCodeableConcept>
                  </extension>
               </use>
            </telecom>
            <telecom>
               <system value="email"/>
               <value value="psdegraaf@ci.nl"/>
               <use value="home">
                  <extension url="http://nictiz.nl/fhir/StructureDefinition/code-specification">
                     <valueCodeableConcept>
                        <coding>
                           <system value="http://hl7.org/fhir/v3/AddressUse"/>
                           <code value="HP"/>
                           <display value="Privé e-mailadres"/>
                        </coding>
                     </valueCodeableConcept>
                  </extension>
               </use>
            </telecom>
            <gender value="female"/>
            <birthDate value="1964-07-27"/>
            <address>
               <extension url="http://hl7.org/fhir/StructureDefinition/iso21090-AD-use">
                  <valueCode value="PST"/>
               </extension>
               <type value="postal"/>
               <line value="Knolweg 1001">
                  <extension url="http://hl7.org/fhir/StructureDefinition/iso21090-ADXP-streetName">
                     <valueString value="Knolweg"/>
                  </extension>
                  <extension url="http://hl7.org/fhir/StructureDefinition/iso21090-ADXP-houseNumber">
                     <valueString value="1001"/>
                  </extension>
               </line>
               <city value="Enschede"/>
               <district value="Stitswerd"/>
               <postalCode value="9999XA"/>
            </address>
         </Patient>
      </resource>
      <search>
         <mode value="include"/>
      </search>
   </entry>
   <entry>
      <fullUrl value="urn:oid:2.16.528.1.1007.5.1.12345679"/>
      <resource>
         <Practitioner>
            <meta>
               <profile value="http://fhir.nl/fhir/StructureDefinition/nl-core-practitioner"/>
            </meta>
            <text>
               <status value="extensions"/>
               <div xmlns="http://www.w3.org/1999/xhtml">
                  <div>Id 12345679 (urn:oid:2.16.528.1.1007.5.1), D Bakker</div>
                  <div>Grootplein 1 A, 1234CC De stad Rotterdam (Werk)</div>
               </div>
            </text>
            <identifier>
               <system value="urn:oid:2.16.528.1.1007.5.1"/>
               <value value="12345679"/>
            </identifier>
            <name>
               <family value="Bakker">
                  <extension url="http://hl7.org/fhir/StructureDefinition/humanname-own-name">
                     <valueString value="Bakker"/>
                  </extension>
               </family>
               <given value="D">
                  <extension url="http://hl7.org/fhir/StructureDefinition/iso21090-EN-qualifier">
                     <valueCode value="IN"/>
                  </extension>
               </given>
            </name>
            <address>
               <use value="work"/>
               <line value="Grootplein 1 A">
                  <extension url="http://hl7.org/fhir/StructureDefinition/iso21090-ADXP-streetName">
                     <valueString value="Grootplein"/>
                  </extension>
                  <extension url="http://hl7.org/fhir/StructureDefinition/iso21090-ADXP-houseNumber">
                     <valueString value="1"/>
                  </extension>
                  <extension url="http://hl7.org/fhir/StructureDefinition/iso21090-ADXP-buildingNumberSuffix">
                     <valueString value="A"/>
                  </extension>
               </line>
               <city value="De stad"/>
               <district value="Rotterdam"/>
               <postalCode value="1234CC"/>
            </address>
         </Practitioner>
      </resource>
      <search>
         <mode value="include"/>
      </search>
   </entry>
   <entry>
      <fullUrl value="urn:oid:2.16.528.1.1007.3.3.123456789"/>
      <resource>
         <Organization>
            <meta>
               <profile value="http://fhir.nl/fhir/StructureDefinition/nl-core-organization"/>
            </meta>
            <text>
               <status value="extensions"/>
               <div xmlns="http://www.w3.org/1999/xhtml">
                  <table>
                     <caption>Organisatie. Id: 123456789 (URA)</caption>
                     <tbody>
                        <tr>
                           <th>Naam</th>
                           <td>Huisartsenpraktijk Bakker - Zuid</td>
                        </tr>
                        <tr>
                           <th>Type</th>
                           <td>
                              <div>
                                 <span title="Huisartsen, niet nader gespecificeerd (0100 - AGB-medisch specialisme)">Huisartsen, niet nader gespecificeerd</span>
                              </div>
                              <div>
                                 <span title="Huisartspraktijk (zelfstandig of groepspraktijk) (Z3 - organization-type)">Huisartspraktijk (zelfstandig of groepspraktijk)</span>
                              </div>
                           </td>
                        </tr>
                        <tr>
                           <th>Contactgegevens</th>
                           <td>
                              <a href="tel:0235739982">0235739982</a> (Tel Werk)br<a href="mailto:info@bakker.nl">info@bakker.nl</a> (E-mail Werk)br</td>
                        </tr>
                        <tr>
                           <th>Adres</th>
                           <td>Grootplein 1 A, 1234CC De Stad Rotterdam (Werk)</td>
                        </tr>
                     </tbody>
                  </table>
               </div>
            </text>
            <identifier>
               <system value="http://fhir.nl/fhir/NamingSystem/ura"/>
               <value value="123456789"/>
            </identifier>
            <type>
               <coding>
                  <system value="urn:oid:2.16.840.1.113883.2.4.6.7"/>
                  <version value="2017-12-14T00:00:00"/>
                  <code value="0100"/>
                  <display value="Huisartsen, niet nader gespecificeerd"/>
               </coding>
            </type>
            <type>
               <coding>
                  <system value="http://nictiz.nl/fhir/NamingSystem/organization-type"/>
                  <code value="Z3"/>
                  <display value="Huisartspraktijk (zelfstandig of groepspraktijk)"/>
               </coding>
            </type>
            <name value="Huisartsenpraktijk Bakker - Zuid"/>
            <telecom>
               <system value="phone">
                  <extension url="http://nictiz.nl/fhir/StructureDefinition/code-specification">
                     <valueCodeableConcept>
                        <coding>
                           <system value="urn:oid:2.16.840.1.113883.2.4.3.11.60.40.4.22.1"/>
                           <code value="LL"/>
                           <display value="Vast telefoonnummer"/>
                        </coding>
                     </valueCodeableConcept>
                  </extension>
               </system>
               <value value="0235739982"/>
               <use value="work">
                  <extension url="http://nictiz.nl/fhir/StructureDefinition/code-specification">
                     <valueCodeableConcept>
                        <coding>
                           <system value="http://hl7.org/fhir/v3/AddressUse"/>
                           <code value="WP"/>
                           <display value="Zakelijk telefoonnummer"/>
                        </coding>
                     </valueCodeableConcept>
                  </extension>
               </use>
            </telecom>
            <telecom>
               <system value="email"/>
               <value value="info@bakker.nl"/>
               <use value="work">
                  <extension url="http://nictiz.nl/fhir/StructureDefinition/code-specification">
                     <valueCodeableConcept>
                        <coding>
                           <system value="http://hl7.org/fhir/v3/AddressUse"/>
                           <code value="WP"/>
                           <display value="Zakelijk e-mailadres"/>
                        </coding>
                     </valueCodeableConcept>
                  </extension>
               </use>
            </telecom>
            <address>
               <use value="work"/>
               <line value="Grootplein 1 A">
                  <extension url="http://hl7.org/fhir/StructureDefinition/iso21090-ADXP-streetName">
                     <valueString value="Grootplein"/>
                  </extension>
                  <extension url="http://hl7.org/fhir/StructureDefinition/iso21090-ADXP-houseNumber">
                     <valueString value="1"/>
                  </extension>
                  <extension url="http://hl7.org/fhir/StructureDefinition/iso21090-ADXP-buildingNumberSuffix">
                     <valueString value="A"/>
                  </extension>
               </line>
               <city value="De Stad"/>
               <district value="Rotterdam"/>
               <postalCode value="1234CC"/>
            </address>
         </Organization>
      </resource>
      <search>
         <mode value="include"/>
      </search>
   </entry>
   <entry>
      <fullUrl value="urn:uuid:74b6aeb1-193f-11eb-1505-020000000000"/>
      <resource>
         <PractitionerRole>
            <meta>
               <profile value="http://fhir.nl/fhir/StructureDefinition/nl-core-practitionerrole"/>
            </meta>
            <text>
               <status value="extensions"/>
               <div xmlns="http://www.w3.org/1999/xhtml">
                  <table>
                     <caption>Zorgverlenerrol. </caption>
                     <tbody>
                        <tr>
                           <th>Zorgverlener</th>
                           <td>
                              <div>D Bakker</div>
                           </td>
                        </tr>
                        <tr>
                           <th>Specialisme</th>
                           <td>
                              <span title="Huisarts (01.015 - http://fhir.nl/fhir/NamingSystem/uzi-rolcode)">Huisarts</span>
                           </td>
                        </tr>
                        <tr>
                           <th>Contactgegevens</th>
                           <td>
                              <div>
                                 <a href="tel:0612345678">0612345678</a> (Tel Mobiel)</div>
                              <div>
                                 <a href="mailto:bakker@huisarts.nl">bakker@huisarts.nl</a> (E-mail)</div>
                           </td>
                        </tr>
                     </tbody>
                  </table>
               </div>
            </text>
            <practitioner>
               <reference value="urn:oid:2.16.528.1.1007.5.1.12345679"/>
               <display value="D Bakker"/>
            </practitioner>
            <specialty>
               <coding>
                  <system value="http://fhir.nl/fhir/NamingSystem/uzi-rolcode"/>
                  <version value="2020-04-01T00:00:00"/>
                  <code value="01.015"/>
                  <display value="Huisarts"/>
               </coding>
            </specialty>
            <telecom>
               <system value="phone">
                  <extension url="http://nictiz.nl/fhir/StructureDefinition/code-specification">
                     <valueCodeableConcept>
                        <coding>
                           <system value="http://hl7.org/fhir/v3/AddressUse"/>
                           <code value="MC"/>
                           <display value="Mobiel telefoonnummer"/>
                        </coding>
                     </valueCodeableConcept>
                  </extension>
               </system>
               <value value="0612345678"/>
               <use value="mobile">
                  <extension url="http://nictiz.nl/fhir/StructureDefinition/code-specification">
                     <valueCodeableConcept>
                        <coding>
                           <system value="http://hl7.org/fhir/v3/AddressUse"/>
                           <code value="WP"/>
                           <display value="Zakelijk telefoonnummer"/>
                        </coding>
                     </valueCodeableConcept>
                  </extension>
               </use>
            </telecom>
            <telecom>
               <system value="email"/>
               <value value="bakker@huisarts.nl"/>
            </telecom>
         </PractitionerRole>
      </resource>
      <search>
         <mode value="include"/>
      </search>
   </entry>
</Bundle>
