<?xml-model href="http://hl7.org/fhir/STU3/bundle.sch" type="application/xml" schematypens="http://purl.oclc.org/dsdl/schematron"?><Bundle xmlns="http://hl7.org/fhir"
        xmlns:xsi="http://www.w3.org/2001/XMLSchema-instance"
        xsi:schemaLocation="http://hl7.org/fhir http://hl7.org/fhir/STU3/bundle.xsd">
   <type value="searchset"/>
   <total value="5"/>
   <entry>
      <fullUrl value="urn:uuid:74c26326-193f-11eb-7612-020000000000"/>
      <resource>
         <Flag>
            <meta>
               <profile value="http://nictiz.nl/fhir/StructureDefinition/zib-MedicationContraIndication"/>
            </meta>
            <text>
               <status value="extensions"/>
               <div xmlns="http://www.w3.org/1999/xhtml">
                  <table>
                     <caption>Attentievlag. Subject: M XXX_Brekelmans. Categorie: <span title="contra-indicatie met betrekking op medicatiebewaking (140401000146105 - SNOMED CT)">contra-indicatie met betrekking op medicatiebewaking</span>, Status: <i>onbekend (ontbrekend gegeven)</i>
                        <span style="display: block;">Auteur: R Brunk || Huisarts || Huisartsenpraktijk Brunk</span>
                     </caption>
                     <tbody>
                        <tr>
                           <th>Code</th>
                           <td>
                              <span title="Sportbeoefening (0210 - G-Standaard Tabel 40)">Sportbeoefening</span>
                           </td>
                        </tr>
                        <tr>
                           <th>Periode</th>
                           <td>Vanaf 1 augustus 2015</td>
                        </tr>
                     </tbody>
                  </table>
               </div>
            </text>
            <extension url="http://nictiz.nl/fhir/StructureDefinition/Comment">
               <valueString value="Handboogschieten"/>
            </extension>
            <extension url="http://nictiz.nl/fhir/StructureDefinition/zib-MedicationContraIndication-ReasonClosure">
               <valueString value="Handboogschieten"/>
            </extension>
            <status>
               <extension url="http://hl7.org/fhir/StructureDefinition/data-absent-reason">
                  <valueCode value="unknown"/>
               </extension>
            </status>
            <category>
               <coding>
                  <system value="http://snomed.info/sct"/>
                  <code value="140401000146105"/>
                  <display value="contra-indicatie met betrekking op medicatiebewaking"/>
               </coding>
            </category>
            <code>
               <coding>
                  <system value="urn:oid:2.16.840.1.113883.2.4.4.1.902.40"/>
                  <code value="0210"/>
                  <display value="Sportbeoefening"/>
               </coding>
            </code>
            <subject>
               <reference value="urn:uuid:74c25e0b-193f-11eb-7612-020000000000"/>
               <display value="M XXX_Brekelmans"/>
            </subject>
            <period>
               <start value="2015-08-01"/>
            </period>
            <author>
               <extension url="http://nictiz.nl/fhir/StructureDefinition/practitionerrole-reference">
                  <valueReference>
                     <reference value="urn:uuid:74c26d2a-193f-11eb-7612-020000000000"/>
                     <display value="R Brunk || Huisarts || Huisartsenpraktijk Brunk"/>
                  </valueReference>
               </extension>
               <display value="R Brunk || Huisarts || Huisartsenpraktijk Brunk"/>
            </author>
         </Flag>
      </resource>
      <search>
         <mode value="match"/>
      </search>
   </entry>
   <entry>
      <fullUrl value="urn:uuid:74c26334-193f-11eb-7612-020000000000"/>
      <resource>
         <Flag>
            <meta>
               <profile value="http://nictiz.nl/fhir/StructureDefinition/zib-MedicationContraIndication"/>
            </meta>
            <text>
               <status value="extensions"/>
               <div xmlns="http://www.w3.org/1999/xhtml">
                  <table>
                     <caption>Attentievlag. Subject: M XXX_Brekelmans. Categorie: <span title="contra-indicatie met betrekking op medicatiebewaking (140401000146105 - SNOMED CT)">contra-indicatie met betrekking op medicatiebewaking</span>, Status: <i>onbekend (ontbrekend gegeven)</i>
                        <span style="display: block;">Auteur: R Brunk || Huisarts || Huisartsenpraktijk Brunk</span>
                     </caption>
                     <tbody>
                        <tr>
                           <th>Code</th>
                           <td>
                              <span title="Morbide obesitas (113 - G-Standaard Tabel 40)">Morbide obesitas</span>
                           </td>
                        </tr>
                        <tr>
                           <th>Periode</th>
                           <td>31 december 2016 - 21 september 2019</td>
                        </tr>
                     </tbody>
                  </table>
               </div>
            </text>
            <status>
               <extension url="http://hl7.org/fhir/StructureDefinition/data-absent-reason">
                  <valueCode value="unknown"/>
               </extension>
            </status>
            <category>
               <coding>
                  <system value="http://snomed.info/sct"/>
                  <code value="140401000146105"/>
                  <display value="contra-indicatie met betrekking op medicatiebewaking"/>
               </coding>
            </category>
            <code>
               <coding>
                  <system value="urn:oid:2.16.840.1.113883.2.4.4.1.902.40"/>
                  <code value="113"/>
                  <display value="Morbide obesitas"/>
               </coding>
            </code>
            <subject>
               <reference value="urn:uuid:74c25e0b-193f-11eb-7612-020000000000"/>
               <display value="M XXX_Brekelmans"/>
            </subject>
            <period>
               <start value="2016-12-31"/>
               <end value="2019-09-21"/>
            </period>
            <author>
               <extension url="http://nictiz.nl/fhir/StructureDefinition/practitionerrole-reference">
                  <valueReference>
                     <reference value="urn:uuid:74c26d2a-193f-11eb-7612-020000000000"/>
                     <display value="R Brunk || Huisarts || Huisartsenpraktijk Brunk"/>
                  </valueReference>
               </extension>
               <display value="R Brunk || Huisarts || Huisartsenpraktijk Brunk"/>
            </author>
         </Flag>
      </resource>
      <search>
         <mode value="match"/>
      </search>
   </entry>
   <entry>
      <fullUrl value="urn:uuid:74c26344-193f-11eb-7612-020000000000"/>
      <resource>
         <Flag>
            <meta>
               <profile value="http://nictiz.nl/fhir/StructureDefinition/zib-MedicationContraIndication"/>
            </meta>
            <text>
               <status value="extensions"/>
               <div xmlns="http://www.w3.org/1999/xhtml">
                  <table>
                     <caption>Attentievlag. Subject: M XXX_Brekelmans. Categorie: <span title="contra-indicatie met betrekking op medicatiebewaking (140401000146105 - SNOMED CT)">contra-indicatie met betrekking op medicatiebewaking</span>, Status: <i>onbekend (ontbrekend gegeven)</i>
                        <span style="display: block;">Auteur: R Brunk || Huisarts || Huisartsenpraktijk Brunk</span>
                     </caption>
                     <tbody>
                        <tr>
                           <th>Code</th>
                           <td>
                              <span title="Bariatrische chirurgie (1355 - G-Standaard Tabel 40)">Bariatrische chirurgie</span>
                           </td>
                        </tr>
                        <tr>
                           <th>Periode</th>
                           <td>Vanaf 10 april 2019</td>
                        </tr>
                     </tbody>
                  </table>
               </div>
            </text>
            <status>
               <extension url="http://hl7.org/fhir/StructureDefinition/data-absent-reason">
                  <valueCode value="unknown"/>
               </extension>
            </status>
            <category>
               <coding>
                  <system value="http://snomed.info/sct"/>
                  <code value="140401000146105"/>
                  <display value="contra-indicatie met betrekking op medicatiebewaking"/>
               </coding>
            </category>
            <code>
               <coding>
                  <system value="urn:oid:2.16.840.1.113883.2.4.4.1.902.40"/>
                  <code value="1355"/>
                  <display value="Bariatrische chirurgie"/>
               </coding>
            </code>
            <subject>
               <reference value="urn:uuid:74c25e0b-193f-11eb-7612-020000000000"/>
               <display value="M XXX_Brekelmans"/>
            </subject>
            <period>
               <start value="2019-04-10"/>
            </period>
            <author>
               <extension url="http://nictiz.nl/fhir/StructureDefinition/practitionerrole-reference">
                  <valueReference>
                     <reference value="urn:uuid:74c26d2a-193f-11eb-7612-020000000000"/>
                     <display value="R Brunk || Huisarts || Huisartsenpraktijk Brunk"/>
                  </valueReference>
               </extension>
               <display value="R Brunk || Huisarts || Huisartsenpraktijk Brunk"/>
            </author>
         </Flag>
      </resource>
      <search>
         <mode value="match"/>
      </search>
   </entry>
   <entry>
      <fullUrl value="urn:uuid:74c26d14-193f-11eb-7612-020000000000"/>
      <resource>
         <Flag>
            <meta>
               <profile value="http://nictiz.nl/fhir/StructureDefinition/zib-MedicationContraIndication"/>
            </meta>
            <text>
               <status value="extensions"/>
               <div xmlns="http://www.w3.org/1999/xhtml">
                  <table>
                     <caption>Attentievlag. Subject: M XXX_Brekelmans. Categorie: <span title="contra-indicatie met betrekking op medicatiebewaking (140401000146105 - SNOMED CT)">contra-indicatie met betrekking op medicatiebewaking</span>, Status: <i>onbekend (ontbrekend gegeven)</i>
                        <span style="display: block;">Auteur: R Brunk || Huisarts || Huisartsenpraktijk Brunk</span>
                     </caption>
                     <tbody>
                        <tr>
                           <th>Code</th>
                           <td>
                              <span title="Zwangerschap (1320 - G-Standaard Tabel 40)">Zwangerschap</span>
                           </td>
                        </tr>
                        <tr>
                           <th>Periode</th>
                           <td>8 juni 2020 - 8 april 2021</td>
                        </tr>
                     </tbody>
                  </table>
               </div>
            </text>
            <status>
               <extension url="http://hl7.org/fhir/StructureDefinition/data-absent-reason">
                  <valueCode value="unknown"/>
               </extension>
            </status>
            <category>
               <coding>
                  <system value="http://snomed.info/sct"/>
                  <code value="140401000146105"/>
                  <display value="contra-indicatie met betrekking op medicatiebewaking"/>
               </coding>
            </category>
            <code>
               <coding>
                  <system value="urn:oid:2.16.840.1.113883.2.4.4.1.902.40"/>
                  <code value="1320"/>
                  <display value="Zwangerschap"/>
               </coding>
            </code>
            <subject>
               <reference value="urn:uuid:74c25e0b-193f-11eb-7612-020000000000"/>
               <display value="M XXX_Brekelmans"/>
            </subject>
            <period>
               <start value="2020-06-08"/>
               <end value="2021-04-08"/>
            </period>
            <author>
               <extension url="http://nictiz.nl/fhir/StructureDefinition/practitionerrole-reference">
                  <valueReference>
                     <reference value="urn:uuid:74c26d2a-193f-11eb-7612-020000000000"/>
                     <display value="R Brunk || Huisarts || Huisartsenpraktijk Brunk"/>
                  </valueReference>
               </extension>
               <display value="R Brunk || Huisarts || Huisartsenpraktijk Brunk"/>
            </author>
         </Flag>
      </resource>
      <search>
         <mode value="match"/>
      </search>
   </entry>
   <entry>
      <fullUrl value="urn:uuid:74c26d23-193f-11eb-7612-020000000000"/>
      <resource>
         <Flag>
            <meta>
               <profile value="http://nictiz.nl/fhir/StructureDefinition/zib-MedicationContraIndication"/>
            </meta>
            <text>
               <status value="extensions"/>
               <div xmlns="http://www.w3.org/1999/xhtml">
                  <table>
                     <caption>Attentievlag. Subject: M XXX_Brekelmans. Categorie: <span title="contra-indicatie met betrekking op medicatiebewaking (140401000146105 - SNOMED CT)">contra-indicatie met betrekking op medicatiebewaking</span>, Status: <i>onbekend (ontbrekend gegeven)</i>
                     </caption>
                     <tbody>
                        <tr>
                           <th>Code</th>
                           <td>
                              <span title="Epilepsie (42 - G-Standaard Tabel 40)">Epilepsie</span>
                           </td>
                        </tr>
                     </tbody>
                  </table>
               </div>
            </text>
            <status>
               <extension url="http://hl7.org/fhir/StructureDefinition/data-absent-reason">
                  <valueCode value="unknown"/>
               </extension>
            </status>
            <category>
               <coding>
                  <system value="http://snomed.info/sct"/>
                  <code value="140401000146105"/>
                  <display value="contra-indicatie met betrekking op medicatiebewaking"/>
               </coding>
            </category>
            <code>
               <coding>
                  <system value="urn:oid:2.16.840.1.113883.2.4.4.1.902.40"/>
                  <code value="42"/>
                  <display value="Epilepsie"/>
               </coding>
            </code>
            <subject>
               <reference value="urn:uuid:74c25e0b-193f-11eb-7612-020000000000"/>
               <display value="M XXX_Brekelmans"/>
            </subject>
         </Flag>
      </resource>
      <search>
         <mode value="match"/>
      </search>
   </entry>
   <entry>
      <fullUrl value="urn:uuid:74c25e0b-193f-11eb-7612-020000000000"/>
      <resource>
         <Patient>
            <meta>
               <profile value="http://fhir.nl/fhir/StructureDefinition/nl-core-patient"/>
            </meta>
            <text>
               <status value="extensions"/>
               <div xmlns="http://www.w3.org/1999/xhtml">
                  <div>Id <i>afgeschermd (ontbrekend gegeven)</i> (BSN), M XXX_Brekelmans, Vrouw, 29 juli 1964</div>
                  <div>
                     <a href="tel:0612344444">0612344444</a> (Tel Mobiel), <a href="mailto:Bergen@ci.nl">Bergen@ci.nl</a> (E-mail Privé)</div>
                  <div>Knolweg 1003, 9999ZA Enschede Stitswerd (Post)</div>
               </div>
            </text>
            <identifier>
               <system value="http://fhir.nl/fhir/NamingSystem/bsn"/>
               <value>
                  <extension url="http://hl7.org/fhir/StructureDefinition/data-absent-reason">
                     <valueCode value="masked"/>
                  </extension>
               </value>
            </identifier>
            <name>
               <family value="XXX_Brekelmans">
                  <extension url="http://hl7.org/fhir/StructureDefinition/humanname-own-name">
                     <valueString value="XXX_Brekelmans"/>
                  </extension>
               </family>
               <given value="M">
                  <extension url="http://hl7.org/fhir/StructureDefinition/iso21090-EN-qualifier">
                     <valueCode value="IN"/>
                  </extension>
               </given>
            </name>
            <telecom>
               <system value="phone">
                  <extension url="http://nictiz.nl/fhir/StructureDefinition/code-specification">
                     <valueCodeableConcept>
                        <coding>
                           <system value="http://hl7.org/fhir/v3/AddressUse"/>
                           <code value="MC"/>
                           <display value="Mobiel telefoonnummer"/>
                        </coding>
                     </valueCodeableConcept>
                  </extension>
               </system>
               <value value="0612344444"/>
               <use value="mobile">
                  <extension url="http://nictiz.nl/fhir/StructureDefinition/code-specification">
                     <valueCodeableConcept>
                        <coding>
                           <system value="http://hl7.org/fhir/v3/AddressUse"/>
                           <code value="WP"/>
                           <display value="Zakelijk telefoonnummer"/>
                        </coding>
                     </valueCodeableConcept>
                  </extension>
               </use>
            </telecom>
            <telecom>
               <system value="email"/>
               <value value="Bergen@ci.nl"/>
               <use value="home">
                  <extension url="http://nictiz.nl/fhir/StructureDefinition/code-specification">
                     <valueCodeableConcept>
                        <coding>
                           <system value="http://hl7.org/fhir/v3/AddressUse"/>
                           <code value="HP"/>
                           <display value="Privé e-mailadres"/>
                        </coding>
                     </valueCodeableConcept>
                  </extension>
               </use>
            </telecom>
            <gender value="female"/>
            <birthDate value="1964-07-29"/>
            <address>
               <extension url="http://hl7.org/fhir/StructureDefinition/iso21090-AD-use">
                  <valueCode value="PST"/>
               </extension>
               <type value="postal"/>
               <line value="Knolweg 1003">
                  <extension url="http://hl7.org/fhir/StructureDefinition/iso21090-ADXP-streetName">
                     <valueString value="Knolweg"/>
                  </extension>
                  <extension url="http://hl7.org/fhir/StructureDefinition/iso21090-ADXP-houseNumber">
                     <valueString value="1003"/>
                  </extension>
               </line>
               <city value="Enschede"/>
               <district value="Stitswerd"/>
               <postalCode value="9999ZA"/>
            </address>
         </Patient>
      </resource>
      <search>
         <mode value="include"/>
      </search>
   </entry>
   <entry>
      <fullUrl value="urn:oid:2.16.528.1.1007.5.1.12344444"/>
      <resource>
         <Practitioner>
            <meta>
               <profile value="http://fhir.nl/fhir/StructureDefinition/nl-core-practitioner"/>
            </meta>
            <text>
               <status value="extensions"/>
               <div xmlns="http://www.w3.org/1999/xhtml">
                  <div>Id 12344444 (urn:oid:2.16.528.1.1007.5.1), R Brunk</div>
                  <div>Dorpsstraat 44 T, 1222HH Dorpje Zaandam (Werk)</div>
               </div>
            </text>
            <identifier>
               <system value="urn:oid:2.16.528.1.1007.5.1"/>
               <value value="12344444"/>
            </identifier>
            <name>
               <family value="Brunk">
                  <extension url="http://hl7.org/fhir/StructureDefinition/humanname-own-name">
                     <valueString value="Brunk"/>
                  </extension>
               </family>
               <given value="R">
                  <extension url="http://hl7.org/fhir/StructureDefinition/iso21090-EN-qualifier">
                     <valueCode value="IN"/>
                  </extension>
               </given>
            </name>
            <address>
               <use value="work"/>
               <line value="Dorpsstraat 44 T">
                  <extension url="http://hl7.org/fhir/StructureDefinition/iso21090-ADXP-streetName">
                     <valueString value="Dorpsstraat"/>
                  </extension>
                  <extension url="http://hl7.org/fhir/StructureDefinition/iso21090-ADXP-houseNumber">
                     <valueString value="44"/>
                  </extension>
                  <extension url="http://hl7.org/fhir/StructureDefinition/iso21090-ADXP-buildingNumberSuffix">
                     <valueString value="T"/>
                  </extension>
               </line>
               <city value="Dorpje"/>
               <district value="Zaandam"/>
               <postalCode value="1222HH"/>
            </address>
         </Practitioner>
      </resource>
      <search>
         <mode value="include"/>
      </search>
   </entry>
   <entry>
      <fullUrl value="urn:oid:2.16.528.1.1007.3.3.123456744"/>
      <resource>
         <Organization>
            <meta>
               <profile value="http://fhir.nl/fhir/StructureDefinition/nl-core-organization"/>
            </meta>
            <text>
               <status value="extensions"/>
               <div xmlns="http://www.w3.org/1999/xhtml">
                  <table>
                     <caption>Organisatie. Id: 123456744 (URA)</caption>
                     <tbody>
                        <tr>
                           <th>Naam</th>
                           <td>Huisartsenpraktijk Brunk</td>
                        </tr>
                        <tr>
                           <th>Type</th>
                           <td>
                              <div>
                                 <span title="Huisartsen, niet nader gespecificeerd (0100 - AGB-medisch specialisme)">Huisartsen, niet nader gespecificeerd</span>
                              </div>
                              <div>
                                 <span title="Huisartspraktijk (zelfstandig of groepspraktijk) (Z3 - organization-type)">Huisartspraktijk (zelfstandig of groepspraktijk)</span>
                              </div>
                           </td>
                        </tr>
                        <tr>
                           <th>Contactgegevens</th>
                           <td>
                              <a href="tel:0235739744">0235739744</a> (Tel Werk)br<a href="mailto:info@huisartsenpraktijkbunk.nl">info@huisartsenpraktijkbunk.nl</a> (E-mail Werk)br</td>
                        </tr>
                        <tr>
                           <th>Adres</th>
                           <td>Dorpstraat 44 T, 1222HH Dorpje Zaandam (Werk)</td>
                        </tr>
                     </tbody>
                  </table>
               </div>
            </text>
            <identifier>
               <system value="http://fhir.nl/fhir/NamingSystem/ura"/>
               <value value="123456744"/>
            </identifier>
            <type>
               <coding>
                  <system value="urn:oid:2.16.840.1.113883.2.4.6.7"/>
                  <version value="2017-12-14T00:00:00"/>
                  <code value="0100"/>
                  <display value="Huisartsen, niet nader gespecificeerd"/>
               </coding>
            </type>
            <type>
               <coding>
                  <system value="http://nictiz.nl/fhir/NamingSystem/organization-type"/>
                  <code value="Z3"/>
                  <display value="Huisartspraktijk (zelfstandig of groepspraktijk)"/>
               </coding>
            </type>
            <name value="Huisartsenpraktijk Brunk"/>
            <telecom>
               <system value="phone">
                  <extension url="http://nictiz.nl/fhir/StructureDefinition/code-specification">
                     <valueCodeableConcept>
                        <coding>
                           <system value="urn:oid:2.16.840.1.113883.2.4.3.11.60.40.4.22.1"/>
                           <code value="LL"/>
                           <display value="Vast telefoonnummer"/>
                        </coding>
                     </valueCodeableConcept>
                  </extension>
               </system>
               <value value="0235739744"/>
               <use value="work">
                  <extension url="http://nictiz.nl/fhir/StructureDefinition/code-specification">
                     <valueCodeableConcept>
                        <coding>
                           <system value="http://hl7.org/fhir/v3/AddressUse"/>
                           <code value="WP"/>
                           <display value="Zakelijk telefoonnummer"/>
                        </coding>
                     </valueCodeableConcept>
                  </extension>
               </use>
            </telecom>
            <telecom>
               <system value="email"/>
               <value value="info@huisartsenpraktijkbunk.nl"/>
               <use value="work">
                  <extension url="http://nictiz.nl/fhir/StructureDefinition/code-specification">
                     <valueCodeableConcept>
                        <coding>
                           <system value="http://hl7.org/fhir/v3/AddressUse"/>
                           <code value="WP"/>
                           <display value="Zakelijk e-mailadres"/>
                        </coding>
                     </valueCodeableConcept>
                  </extension>
               </use>
            </telecom>
            <address>
               <use value="work"/>
               <line value="Dorpstraat 44 T">
                  <extension url="http://hl7.org/fhir/StructureDefinition/iso21090-ADXP-streetName">
                     <valueString value="Dorpstraat"/>
                  </extension>
                  <extension url="http://hl7.org/fhir/StructureDefinition/iso21090-ADXP-houseNumber">
                     <valueString value="44"/>
                  </extension>
                  <extension url="http://hl7.org/fhir/StructureDefinition/iso21090-ADXP-buildingNumberSuffix">
                     <valueString value="T"/>
                  </extension>
               </line>
               <city value="Dorpje"/>
               <district value="Zaandam"/>
               <postalCode value="1222HH"/>
            </address>
         </Organization>
      </resource>
      <search>
         <mode value="include"/>
      </search>
   </entry>
   <entry>
      <fullUrl value="urn:uuid:74c26d2a-193f-11eb-7612-020000000000"/>
      <resource>
         <PractitionerRole>
            <meta>
               <profile value="http://fhir.nl/fhir/StructureDefinition/nl-core-practitionerrole"/>
            </meta>
            <text>
               <status value="extensions"/>
               <div xmlns="http://www.w3.org/1999/xhtml">
                  <table>
                     <caption>Zorgverlenerrol. </caption>
                     <tbody>
                        <tr>
                           <th>Zorgverlener</th>
                           <td>
                              <div>R Brunk</div>
                              <div>Huisartsenpraktijk Brunk</div>
                           </td>
                        </tr>
                        <tr>
                           <th>Specialisme</th>
                           <td>
                              <span title="Huisarts (01.015 - http://fhir.nl/fhir/NamingSystem/uzi-rolcode)">Huisarts</span>
                           </td>
                        </tr>
                        <tr>
                           <th>Contactgegevens</th>
                           <td>
                              <div>
                                 <a href="tel:0612345744">0612345744</a> (Tel Mobiel)</div>
                              <div>
                                 <a href="mailto:info@huisartsbrunk.nl">info@huisartsbrunk.nl</a> (E-mail Werk)</div>
                           </td>
                        </tr>
                     </tbody>
                  </table>
               </div>
            </text>
            <practitioner>
               <reference value="urn:oid:2.16.528.1.1007.5.1.12344444"/>
               <display value="R Brunk"/>
            </practitioner>
            <organization>
               <reference value="urn:oid:2.16.528.1.1007.3.3.123456744"/>
               <display value="Huisartsenpraktijk Brunk"/>
            </organization>
            <specialty>
               <coding>
                  <system value="http://fhir.nl/fhir/NamingSystem/uzi-rolcode"/>
                  <version value="2020-04-01T00:00:00"/>
                  <code value="01.015"/>
                  <display value="Huisarts"/>
               </coding>
            </specialty>
            <telecom>
               <system value="phone">
                  <extension url="http://nictiz.nl/fhir/StructureDefinition/code-specification">
                     <valueCodeableConcept>
                        <coding>
                           <system value="http://hl7.org/fhir/v3/AddressUse"/>
                           <code value="MC"/>
                           <display value="Mobiel telefoonnummer"/>
                        </coding>
                     </valueCodeableConcept>
                  </extension>
               </system>
               <value value="0612345744"/>
               <use value="mobile">
                  <extension url="http://nictiz.nl/fhir/StructureDefinition/code-specification">
                     <valueCodeableConcept>
                        <coding>
                           <system value="http://hl7.org/fhir/v3/AddressUse"/>
                           <code value="WP"/>
                           <display value="Zakelijk telefoonnummer"/>
                        </coding>
                     </valueCodeableConcept>
                  </extension>
               </use>
            </telecom>
            <telecom>
               <system value="email"/>
               <value value="info@huisartsbrunk.nl"/>
               <use value="work">
                  <extension url="http://nictiz.nl/fhir/StructureDefinition/code-specification">
                     <valueCodeableConcept>
                        <coding>
                           <system value="http://hl7.org/fhir/v3/AddressUse"/>
                           <code value="WP"/>
                           <display value="Zakelijk e-mailadres"/>
                        </coding>
                     </valueCodeableConcept>
                  </extension>
               </use>
            </telecom>
         </PractitionerRole>
      </resource>
      <search>
         <mode value="include"/>
      </search>
   </entry>
</Bundle>
