<Bundle xmlns="http://hl7.org/fhir">
   <id value="av-mp-va-kwal-script8-stop-v30"/>
   <meta>
      <profile value="http://nictiz.nl/fhir/StructureDefinition/mp-MedicationPrescriptionProcessing-Bundle"/>
   </meta>
   <type value="transaction"/>
   <entry>
      <fullUrl value="urn:uuid:786ba9a8-6b17-11ec-0000-020000000000"/>
      <resource>
         <MedicationDispense>
            <meta>
               <profile value="http://nictiz.nl/fhir/StructureDefinition/mp-AdministrationAgreement"/>
               <tag>
                  <system value="http://terminology.hl7.org/CodeSystem/common-tags"/>
                  <code value="actionable"/>
               </tag>
            </meta>
            <extension url="http://nictiz.nl/fhir/StructureDefinition/ext-RegistrationDateTime">
               <valueDateTime value="${DATE, T, D, +0}T09:10:00+02:00"/>
            </extension>
            <extension url="http://nictiz.nl/fhir/StructureDefinition/ext-RenderedDosageInstruction">
               <valueString value="elke dag om 12:00 0.6 ml, subcutaan"/>
            </extension>
            <extension url="http://nictiz.nl/fhir/StructureDefinition/ext-TimeInterval.Period">
               <valuePeriod>
                  <start value="${DATE, T, D, -1}T00:00:00+02:00"/>
                  <end value="${DATE, T, D, +0}T23:59:59+02:00"/>
               </valuePeriod>
            </extension>
            <extension url="http://nictiz.nl/fhir/StructureDefinition/ext-PharmaceuticalTreatment.Identifier">
               <valueIdentifier>
                  <system value="urn:oid:2.16.840.1.113883.2.4.3.11.999.77.1.1"/>
                  <value value="MBH_300_SCRIPT8"/>
               </valueIdentifier>
            </extension>
            <extension url="http://nictiz.nl/fhir/StructureDefinition/ext-RelationAdministrationAgreement">
               <valueReference>
                  <type value="MedicationDispense"/>
                  <identifier>
                     <system value="urn:oid:2.16.840.1.113883.2.4.3.11.999.77.422037009.1"/>
                     <value value="MBH_300_SCRIPT8_TA"/>
                  </identifier>
                  <display value="relatie naar toedieningsafspraak met identificatie: MBH_300_SCRIPT8_TA || 2.16.840.1.113883.2.4.3.11.999.77.422037009.1"/>
               </valueReference>
            </extension>
            <modifierExtension url="http://nictiz.nl/fhir/StructureDefinition/ext-StopType">
               <valueCodeableConcept>
                  <coding>
                     <system value="http://snomed.info/sct"/>
                     <code value="410546004"/>
                     <display value="stopgezet"/>
                  </coding>
               </valueCodeableConcept>
            </modifierExtension>
            <identifier>
               <system value="urn:oid:2.16.840.1.113883.2.4.3.11.999.77.422037009.1"/>
               <value value="MBH_300_SCRIPT8_TA_STAKEN"/>
            </identifier>
            <status value="unknown"/>
            <category>
               <coding>
                  <system value="http://snomed.info/sct"/>
                  <code value="422037009"/>
                  <display value="toedieningsafspraak"/>
               </coding>
            </category>
            <medicationReference>
               <reference value="urn:uuid:119dd11d-6abe-11ec-0000-020000000000"/>
               <type value="Medication"/>
               <display value="FRAXIPARINE FORTE INJV 11400IE/0,6ML(19000IE/ML)WW"/>
            </medicationReference>
            <subject>
               <reference value="urn:uuid:ab71cf1e-6b3e-11ec-0000-020000000000"/>
               <type value="Patient"/>
               <display value="Patient, J. XXX_Laan"/>
            </subject>
            <performer>
               <actor>
                  <reference value="urn:uuid:10079464-6b64-11ec-0000-020000000000"/>
                  <type value="Organization"/>
                  <display value="Healthcare provider (organization), Apotheek De Gulle Gaper"/>
               </actor>
            </performer>
            <authorizingPrescription>
               <type value="MedicationRequest"/>
               <identifier>
                  <system value="urn:oid:2.16.840.1.113883.2.4.3.11.999.77.16076005.1"/>
                  <value value="MBH_300_SCRIPT8_MA_STAKEN"/>
               </identifier>
               <display value="relatie naar medicatieafspraak met identificatie: MBH_300_SCRIPT8_MA_STAKEN || 2.16.840.1.113883.2.4.3.11.999.77.16076005.1"/>
            </authorizingPrescription>
            <dosageInstruction>
               <timing>
                  <repeat>
                     <timeOfDay value="12:00:00"/>
                  </repeat>
               </timing>
               <route>
                  <coding>
                     <system value="urn:oid:2.16.840.1.113883.2.4.4.9"/>
                     <code value="21"/>
                     <display value="subcutaan"/>
                  </coding>
               </route>
               <doseAndRate>
                  <doseQuantity>
                     <extension url="http://hl7.org/fhir/StructureDefinition/iso21090-PQ-translation">
                        <valueQuantity>
                           <value value="0.6"/>
                           <unit value="milliliter"/>
                           <system value="urn:oid:2.16.840.1.113883.2.4.4.1.900.2"/>
                           <code value="233"/>
                        </valueQuantity>
                     </extension>
                     <value value="0.6"/>
                     <unit value="milliliter"/>
                     <system value="http://unitsofmeasure.org"/>
                     <code value="ml"/>
                  </doseQuantity>
               </doseAndRate>
            </dosageInstruction>
         </MedicationDispense>
      </resource>
      <request>
         <method value="POST"/>
         <url value="MedicationDispense"/>
      </request>
   </entry>
   <entry>
      <fullUrl value="urn:uuid:ab71cf1e-6b3e-11ec-0000-020000000000"/>
      <resource>
         <Patient>
            <meta>
               <profile value="http://nictiz.nl/fhir/StructureDefinition/nl-core-Patient"/>
            </meta>
            <identifier>
               <system value="http://fhir.nl/fhir/NamingSystem/bsn"/>
               <value value="999900742"/>
            </identifier>
            <name>
               <extension url="http://hl7.org/fhir/StructureDefinition/humanname-assembly-order">
                  <valueCode value="NL1"/>
               </extension>
               <use value="official"/>
               <text value="J. XXX_Laan"/>
               <family value="XXX_Laan">
                  <extension url="http://hl7.org/fhir/StructureDefinition/humanname-own-name">
                     <valueString value="XXX_Laan"/>
                  </extension>
               </family>
               <given value="J.">
                  <extension url="http://hl7.org/fhir/StructureDefinition/iso21090-EN-qualifier">
                     <valueCode value="IN"/>
                  </extension>
               </given>
            </name>
            <gender value="male">
               <extension url="http://nictiz.nl/fhir/StructureDefinition/ext-CodeSpecification">
                  <valueCodeableConcept>
                     <coding>
                        <system value="http://terminology.hl7.org/CodeSystem/v3-AdministrativeGender"/>
                        <code value="M"/>
                        <display value="Man"/>
                     </coding>
                  </valueCodeableConcept>
               </extension>
            </gender>
            <birthDate value="1985-10-21"/>
         </Patient>
      </resource>
      <request>
         <method value="POST"/>
         <url value="Patient"/>
      </request>
   </entry>
   <entry>
      <fullUrl value="urn:uuid:10079464-6b64-11ec-0000-020000000000"/>
      <resource>
         <Organization>
            <meta>
               <profile value="http://nictiz.nl/fhir/StructureDefinition/nl-core-HealthcareProvider-Organization"/>
            </meta>
            <identifier>
               <system value="http://fhir.nl/fhir/NamingSystem/ura"/>
               <value value="01236578"/>
            </identifier>
            <name value="Apotheek De Gulle Gaper"/>
            <address>
               <extension url="http://nictiz.nl/fhir/StructureDefinition/ext-AddressInformation.AddressType">
                  <valueCodeableConcept>
                     <coding>
                        <system value="http://terminology.hl7.org/CodeSystem/v3-AddressUse"/>
                        <code value="WP"/>
                        <display value="Werkadres"/>
                     </coding>
                  </valueCodeableConcept>
               </extension>
               <use value="work"/>
               <line value="Dorpsstraat 12 A">
                  <extension url="http://hl7.org/fhir/StructureDefinition/iso21090-ADXP-streetName">
                     <valueString value="Dorpsstraat"/>
                  </extension>
                  <extension url="http://hl7.org/fhir/StructureDefinition/iso21090-ADXP-houseNumber">
                     <valueString value="12"/>
                  </extension>
                  <extension url="http://hl7.org/fhir/StructureDefinition/iso21090-ADXP-buildingNumberSuffix">
                     <valueString value="A"/>
                  </extension>
               </line>
               <city value="Ons Dorp"/>
               <postalCode value="1234AA"/>
            </address>
         </Organization>
      </resource>
      <request>
         <method value="POST"/>
         <url value="Organization"/>
      </request>
   </entry>
   <entry>
      <fullUrl value="urn:uuid:119dd11d-6abe-11ec-0000-020000000000"/>
      <resource>
         <Medication>
            <meta>
               <profile value="http://nictiz.nl/fhir/StructureDefinition/mp-PharmaceuticalProduct"/>
            </meta>
            <code>
               <coding>
                  <system value="urn:oid:2.16.840.1.113883.2.4.4.7"/>
                  <code value="1184601"/>
                  <display value="FRAXIPARINE FORTE INJV 11400IE/0,6ML(19000IE/ML)WW"/>
                  <userSelected value="true"/>
               </coding>
               <coding>
                  <system value="urn:oid:2.16.840.1.113883.2.4.4.10"/>
                  <code value="53821"/>
                  <display value="NADROPARINE INJVL WWSP 11400IE=0,6ML (19000IE/ML)"/>
               </coding>
               <coding>
                  <system value="urn:oid:2.16.840.1.113883.2.4.4.1"/>
                  <code value="108278"/>
                  <display value="NADROPARINE INJVLST 19000IE/ML"/>
               </coding>
               <text value="FRAXIPARINE FORTE INJV 11400IE/0,6ML(19000IE/ML)WW"/>
            </code>
         </Medication>
      </resource>
      <request>
         <method value="POST"/>
         <url value="Medication"/>
      </request>
   </entry>
</Bundle>