<Bundle xmlns="http://hl7.org/fhir">
   <id value="a13da2fb-d4db-11ef-1281-020000000000"/>
   <type value="transaction"/>
   <entry>
      <fullUrl value="urn:uuid:a13da37c-d4db-11ef-1281-020000000000"/>
      <resource>
         <MedicationDispense>
            <meta>
               <profile value="http://nictiz.nl/fhir/StructureDefinition/mp-AdministrationAgreement"/>
            </meta>
            <extension url="http://nictiz.nl/fhir/StructureDefinition/ext-RegistrationDateTime">
               <valueDateTime value="2023-01-01T13:00:00+01:00"/>
            </extension>
            <extension url="http://nictiz.nl/fhir/StructureDefinition/ext-RenderedDosageInstruction">
               <valueString value="Zo nodig, cutaan"/>
            </extension>
            <extension url="http://nictiz.nl/fhir/StructureDefinition/ext-TimeInterval.Period">
               <valuePeriod>
                  <start value="2023-01-01T00:00:00+01:00"/>
                  <end value="2023-02-01T23:59:59+01:00"/>
               </valuePeriod>
            </extension>
            <extension url="http://nictiz.nl/fhir/StructureDefinition/ext-PharmaceuticalTreatment.Identifier">
               <valueIdentifier>
                  <system value="urn:oid:2.16.840.1.113883.2.4.3.11.999.77.1.1"/>
                  <value value="MBH_300_magistraalalleingredienten"/>
               </valueIdentifier>
            </extension>
            <identifier>
               <system value="urn:oid:2.16.840.1.113883.2.4.3.11.999.77.422037009.1"/>
               <value value="MBH_300_magistraalalleingredienten_TA"/>
            </identifier>
            <status value="unknown"/>
            <category>
               <coding>
                  <system value="http://snomed.info/sct"/>
                  <code value="422037009"/>
                  <display value="toedieningsafspraak"/>
               </coding>
            </category>
            <medicationReference>
               <reference value="urn:uuid:a13da3cc-d4db-11ef-1281-020000000000"/>
               <type value="Medication"/>
               <display value="Ureum 10% in eucerine cum aqua 100gr"/>
            </medicationReference>
            <subject>
               <reference value="urn:uuid:a13da32c-d4db-11ef-1281-020000000000"/>
               <type value="Patient"/>
               <display value="Patient, G. XXX_Hess"/>
            </subject>
            <performer>
               <actor>
                  <reference value="urn:uuid:a13da354-d4db-11ef-1281-020000000000"/>
                  <type value="Organization"/>
                  <display value="Healthcare provider (organization), Apotheek De Gulle Gaper"/>
               </actor>
            </performer>
            <authorizingPrescription>
               <type value="MedicationRequest"/>
               <identifier>
                  <system value="urn:oid:2.16.840.1.113883.2.4.3.11.999.77.16076005.1"/>
                  <value value="MBH_300_magistraalalleingredienten_MA"/>
               </identifier>
               <display value="relatie naar medicatieafspraak met identificatie: MBH_300_magistraalalleingredienten_MA || 2.16.840.1.113883.2.4.3.11.999.77.16076005.1"/>
            </authorizingPrescription>
            <dosageInstruction>
               <asNeededCodeableConcept>
                  <coding>
                     <system value="https://referentiemodel.nhg.org/tabellen/nhg-tabel-25-gebruiksvoorschrift#aanvullend-numeriek"/>
                     <code value="1137"/>
                     <display value="Zo nodig"/>
                  </coding>
               </asNeededCodeableConcept>
               <route>
                  <coding>
                     <system value="urn:oid:2.16.840.1.113883.2.4.4.9"/>
                     <code value="53"/>
                     <display value="cutaan"/>
                  </coding>
               </route>
            </dosageInstruction>
         </MedicationDispense>
      </resource>
      <request>
         <method value="POST"/>
         <url value="MedicationDispense"/>
      </request>
   </entry>
   <entry>
      <fullUrl value="urn:uuid:a13da390-d4db-11ef-1281-020000000000"/>
      <resource>
         <MedicationDispense>
            <meta>
               <profile value="http://nictiz.nl/fhir/StructureDefinition/mp-AdministrationAgreement"/>
            </meta>
            <extension url="http://nictiz.nl/fhir/StructureDefinition/ext-RegistrationDateTime">
               <valueDateTime value="2023-01-01T13:05:00+01:00"/>
            </extension>
            <extension url="http://nictiz.nl/fhir/StructureDefinition/ext-RenderedDosageInstruction">
               <valueString value="1 maal per dag, cutaan"/>
            </extension>
            <extension url="http://nictiz.nl/fhir/StructureDefinition/ext-TimeInterval.Period">
               <valuePeriod>
                  <start value="2023-01-02T00:00:00+01:00"/>
                  <end value="2023-03-12T23:59:59+01:00"/>
               </valuePeriod>
            </extension>
            <extension url="http://nictiz.nl/fhir/StructureDefinition/ext-PharmaceuticalTreatment.Identifier">
               <valueIdentifier>
                  <system value="urn:oid:2.16.840.1.113883.2.4.3.11.999.77.1.1"/>
                  <value value="MBH_300_magistraalactieveingredient"/>
               </valueIdentifier>
            </extension>
            <identifier>
               <system value="urn:oid:2.16.840.1.113883.2.4.3.11.999.77.422037009.1"/>
               <value value="MBH_300_magistraalactieveingredient_TA"/>
            </identifier>
            <status value="unknown"/>
            <category>
               <coding>
                  <system value="http://snomed.info/sct"/>
                  <code value="422037009"/>
                  <display value="toedieningsafspraak"/>
               </coding>
            </category>
            <medicationReference>
               <reference value="urn:uuid:a13da3e0-d4db-11ef-1281-020000000000"/>
               <type value="Medication"/>
               <display value="Vaseline 20% in cetomacrogolcrème FNA"/>
            </medicationReference>
            <subject>
               <reference value="urn:uuid:a13da32c-d4db-11ef-1281-020000000000"/>
               <type value="Patient"/>
               <display value="Patient, G. XXX_Hess"/>
            </subject>
            <performer>
               <actor>
                  <reference value="urn:uuid:a13da354-d4db-11ef-1281-020000000000"/>
                  <type value="Organization"/>
                  <display value="Healthcare provider (organization), Apotheek De Gulle Gaper"/>
               </actor>
            </performer>
            <authorizingPrescription>
               <type value="MedicationRequest"/>
               <identifier>
                  <system value="urn:oid:2.16.840.1.113883.2.4.3.11.999.77.16076005.1"/>
                  <value value="MBH_300_magistraalactieveingredient_MA"/>
               </identifier>
               <display value="relatie naar medicatieafspraak met identificatie: MBH_300_magistraalactieveingredient_MA || 2.16.840.1.113883.2.4.3.11.999.77.16076005.1"/>
            </authorizingPrescription>
            <dosageInstruction>
               <timing>
                  <repeat>
                     <frequency value="1"/>
                     <period value="1"/>
                     <periodUnit value="d"/>
                  </repeat>
               </timing>
               <route>
                  <coding>
                     <system value="urn:oid:2.16.840.1.113883.2.4.4.9"/>
                     <code value="53"/>
                     <display value="cutaan"/>
                  </coding>
               </route>
            </dosageInstruction>
         </MedicationDispense>
      </resource>
      <request>
         <method value="POST"/>
         <url value="MedicationDispense"/>
      </request>
   </entry>
   <entry>
      <fullUrl value="urn:uuid:a13da3a4-d4db-11ef-1281-020000000000"/>
      <resource>
         <MedicationDispense>
            <meta>
               <profile value="http://nictiz.nl/fhir/StructureDefinition/mp-AdministrationAgreement"/>
            </meta>
            <extension url="http://nictiz.nl/fhir/StructureDefinition/ext-RegistrationDateTime">
               <valueDateTime value="2023-01-01T13:08:00+01:00"/>
            </extension>
            <extension url="http://nictiz.nl/fhir/StructureDefinition/ext-RenderedDosageInstruction">
               <valueString value="1 maal per dag, cutaan"/>
            </extension>
            <extension url="http://nictiz.nl/fhir/StructureDefinition/ext-TimeInterval.Period">
               <valuePeriod>
                  <start value="2023-01-01T00:00:00+01:00"/>
                  <end value="2023-01-31T23:59:59+01:00"/>
               </valuePeriod>
            </extension>
            <extension url="http://nictiz.nl/fhir/StructureDefinition/ext-PharmaceuticalTreatment.Identifier">
               <valueIdentifier>
                  <system value="urn:oid:2.16.840.1.113883.2.4.3.11.999.77.1.1"/>
                  <value value="MBH_300_magistraal90miljoennr"/>
               </valueIdentifier>
            </extension>
            <identifier>
               <system value="urn:oid:2.16.840.1.113883.2.4.3.11.999.77.422037009.1"/>
               <value value="MBH_300_magistraal90miljoennr_TA"/>
            </identifier>
            <status value="unknown"/>
            <category>
               <coding>
                  <system value="http://snomed.info/sct"/>
                  <code value="422037009"/>
                  <display value="toedieningsafspraak"/>
               </coding>
            </category>
            <medicationReference>
               <reference value="urn:uuid:a13da3f4-d4db-11ef-1281-020000000000"/>
               <type value="Medication"/>
               <display value="Eigen artikel: ureumzalf"/>
            </medicationReference>
            <subject>
               <reference value="urn:uuid:a13da32c-d4db-11ef-1281-020000000000"/>
               <type value="Patient"/>
               <display value="Patient, G. XXX_Hess"/>
            </subject>
            <performer>
               <actor>
                  <reference value="urn:uuid:a13da354-d4db-11ef-1281-020000000000"/>
                  <type value="Organization"/>
                  <display value="Healthcare provider (organization), Apotheek De Gulle Gaper"/>
               </actor>
            </performer>
            <authorizingPrescription>
               <type value="MedicationRequest"/>
               <identifier>
                  <system value="urn:oid:2.16.840.1.113883.2.4.3.11.999.77.16076005.1"/>
                  <value value="MBH_300_magistraal90miljoennr_MA"/>
               </identifier>
               <display value="relatie naar medicatieafspraak met identificatie: MBH_300_magistraal90miljoennr_MA || 2.16.840.1.113883.2.4.3.11.999.77.16076005.1"/>
            </authorizingPrescription>
            <dosageInstruction>
               <timing>
                  <repeat>
                     <frequency value="1"/>
                     <period value="1"/>
                     <periodUnit value="d"/>
                  </repeat>
               </timing>
               <route>
                  <coding>
                     <system value="urn:oid:2.16.840.1.113883.2.4.4.9"/>
                     <code value="53"/>
                     <display value="cutaan"/>
                  </coding>
               </route>
            </dosageInstruction>
         </MedicationDispense>
      </resource>
      <request>
         <method value="POST"/>
         <url value="MedicationDispense"/>
      </request>
   </entry>
   <entry>
      <fullUrl value="urn:uuid:a13da3b8-d4db-11ef-1281-020000000000"/>
      <resource>
         <MedicationDispense>
            <meta>
               <profile value="http://nictiz.nl/fhir/StructureDefinition/mp-AdministrationAgreement"/>
            </meta>
            <extension url="http://nictiz.nl/fhir/StructureDefinition/ext-RegistrationDateTime">
               <valueDateTime value="2022-12-31T15:50:00+01:00"/>
            </extension>
            <extension url="http://nictiz.nl/fhir/StructureDefinition/ext-RenderedDosageInstruction">
               <valueString value="1 maal per 3 weken 1 stuk, Intraveneus"/>
            </extension>
            <extension url="http://nictiz.nl/fhir/StructureDefinition/ext-TimeInterval.Period">
               <valuePeriod>
                  <extension url="http://nictiz.nl/fhir/StructureDefinition/ext-TimeInterval.Duration">
                     <valueDuration>
                        <value value="12"/>
                        <unit value="week"/>
                        <system value="http://unitsofmeasure.org"/>
                        <code value="wk"/>
                     </valueDuration>
                  </extension>
                  <start value="2022-12-31T00:00:00+01:00"/>
               </valuePeriod>
            </extension>
            <extension url="http://nictiz.nl/fhir/StructureDefinition/ext-PharmaceuticalTreatment.Identifier">
               <valueIdentifier>
                  <system value="urn:oid:2.16.840.1.113883.2.4.3.11.999.77.1.1"/>
                  <value value="MBH_300_vrijetekstproduct"/>
               </valueIdentifier>
            </extension>
            <identifier>
               <system value="urn:oid:2.16.840.1.113883.2.4.3.11.999.77.422037009.1"/>
               <value value="MBH_300_vrijetekstproduct_TA"/>
            </identifier>
            <status value="unknown"/>
            <category>
               <coding>
                  <system value="http://snomed.info/sct"/>
                  <code value="422037009"/>
                  <display value="toedieningsafspraak"/>
               </coding>
            </category>
            <medicationReference>
               <reference value="urn:uuid:a13da408-d4db-11ef-1281-020000000000"/>
               <type value="Medication"/>
               <display value="Jemperli 500 mg/ 10 mL"/>
            </medicationReference>
            <subject>
               <reference value="urn:uuid:a13da32c-d4db-11ef-1281-020000000000"/>
               <type value="Patient"/>
               <display value="Patient, G. XXX_Hess"/>
            </subject>
            <performer>
               <actor>
                  <reference value="urn:uuid:a13da354-d4db-11ef-1281-020000000000"/>
                  <type value="Organization"/>
                  <display value="Healthcare provider (organization), Apotheek De Gulle Gaper"/>
               </actor>
            </performer>
            <authorizingPrescription>
               <type value="MedicationRequest"/>
               <identifier>
                  <system value="urn:oid:2.16.840.1.113883.2.4.3.11.999.77.16076005.1"/>
                  <value value="MBH_300_vrijetekstproduct_MA"/>
               </identifier>
               <display value="relatie naar medicatieafspraak met identificatie: MBH_300_vrijetekstproduct_MA || 2.16.840.1.113883.2.4.3.11.999.77.16076005.1"/>
            </authorizingPrescription>
            <dosageInstruction>
               <timing>
                  <repeat>
                     <frequency value="1"/>
                     <period value="3"/>
                     <periodUnit value="wk"/>
                  </repeat>
               </timing>
               <route>
                  <coding>
                     <system value="urn:oid:2.16.840.1.113883.2.4.4.9"/>
                     <code value="5"/>
                     <display value="Intraveneus"/>
                  </coding>
               </route>
               <doseAndRate>
                  <doseQuantity>
                     <extension url="http://hl7.org/fhir/StructureDefinition/iso21090-PQ-translation">
                        <valueQuantity>
                           <value value="1"/>
                           <unit value="stuk"/>
                           <system value="urn:oid:2.16.840.1.113883.2.4.4.1.900.2"/>
                           <code value="245"/>
                        </valueQuantity>
                     </extension>
                     <value value="1"/>
                     <unit value="stuk"/>
                     <system value="http://unitsofmeasure.org"/>
                     <code value="1"/>
                  </doseQuantity>
               </doseAndRate>
            </dosageInstruction>
         </MedicationDispense>
      </resource>
      <request>
         <method value="POST"/>
         <url value="MedicationDispense"/>
      </request>
   </entry>
   <entry>
      <fullUrl value="urn:uuid:a13da32c-d4db-11ef-1281-020000000000"/>
      <resource>
         <Patient>
            <meta>
               <profile value="http://nictiz.nl/fhir/StructureDefinition/nl-core-Patient"/>
            </meta>
            <identifier>
               <system value="http://fhir.nl/fhir/NamingSystem/bsn"/>
               <value value="999900614"/>
            </identifier>
            <name>
               <extension url="http://hl7.org/fhir/StructureDefinition/humanname-assembly-order">
                  <valueCode value="NL1"/>
               </extension>
               <use value="official"/>
               <text value="G. XXX_Hess"/>
               <family value="XXX_Hess">
                  <extension url="http://hl7.org/fhir/StructureDefinition/humanname-own-name">
                     <valueString value="XXX_Hess"/>
                  </extension>
               </family>
               <given value="G.">
                  <extension url="http://hl7.org/fhir/StructureDefinition/iso21090-EN-qualifier">
                     <valueCode value="IN"/>
                  </extension>
               </given>
            </name>
            <gender value="male">
               <extension url="http://nictiz.nl/fhir/StructureDefinition/ext-CodeSpecification">
                  <valueCodeableConcept>
                     <coding>
                        <system value="http://terminology.hl7.org/CodeSystem/v3-AdministrativeGender"/>
                        <code value="M"/>
                        <display value="Man"/>
                     </coding>
                  </valueCodeableConcept>
               </extension>
            </gender>
            <birthDate value="1963-11-03"/>
         </Patient>
      </resource>
      <request>
         <method value="POST"/>
         <url value="Patient"/>
      </request>
   </entry>
   <entry>
      <fullUrl value="urn:uuid:a13da354-d4db-11ef-1281-020000000000"/>
      <resource>
         <Organization>
            <meta>
               <profile value="http://nictiz.nl/fhir/StructureDefinition/nl-core-HealthcareProvider-Organization"/>
            </meta>
            <identifier>
               <system value="http://fhir.nl/fhir/NamingSystem/ura"/>
               <value value="01236578"/>
            </identifier>
            <name value="Apotheek De Gulle Gaper"/>
            <address>
               <extension url="http://nictiz.nl/fhir/StructureDefinition/ext-AddressInformation.AddressType">
                  <valueCodeableConcept>
                     <coding>
                        <system value="http://terminology.hl7.org/CodeSystem/v3-AddressUse"/>
                        <code value="WP"/>
                        <display value="Werkadres"/>
                     </coding>
                  </valueCodeableConcept>
               </extension>
               <use value="work"/>
               <line value="Dorpsstraat 12 A">
                  <extension url="http://hl7.org/fhir/StructureDefinition/iso21090-ADXP-streetName">
                     <valueString value="Dorpsstraat"/>
                  </extension>
                  <extension url="http://hl7.org/fhir/StructureDefinition/iso21090-ADXP-houseNumber">
                     <valueString value="12"/>
                  </extension>
                  <extension url="http://hl7.org/fhir/StructureDefinition/iso21090-ADXP-buildingNumberSuffix">
                     <valueString value="A"/>
                  </extension>
               </line>
               <city value="Ons Dorp"/>
               <postalCode value="1234AA"/>
            </address>
         </Organization>
      </resource>
      <request>
         <method value="POST"/>
         <url value="Organization"/>
      </request>
   </entry>
   <entry>
      <fullUrl value="urn:uuid:a13da3cc-d4db-11ef-1281-020000000000"/>
      <resource>
         <Medication>
            <meta>
               <profile value="http://nictiz.nl/fhir/StructureDefinition/mp-PharmaceuticalProduct"/>
            </meta>
            <extension url="http://nictiz.nl/fhir/StructureDefinition/ext-PharmaceuticalProduct.Description">
               <valueString value="Titel: Ureum 10% in eucerine cum aqua 100gr           Regel: UREUM 10gr           Regel: EUCERINE MET WATER FAGRON ad 100gr"/>
            </extension>
            <code>
               <coding>
                  <system value="http://terminology.hl7.org/CodeSystem/v3-NullFlavor"/>
                  <code value="OTH"/>
                  <display value="overig"/>
               </coding>
               <text value="Ureum 10% in eucerine cum aqua 100gr"/>
            </code>
            <ingredient>
               <itemCodeableConcept>
                  <coding>
                     <system value="urn:oid:2.16.840.1.113883.2.4.4.7"/>
                     <code value="1042467"/>
                     <display value="UREUM ZALF 10% FAGRON"/>
                  </coding>
               </itemCodeableConcept>
               <strength>
                  <numerator>
                     <extension url="http://hl7.org/fhir/StructureDefinition/iso21090-PQ-translation">
                        <valueQuantity>
                           <value value="10"/>
                           <unit value="gram"/>
                           <system value="urn:oid:2.16.840.1.113883.2.4.4.1.900.2"/>
                           <code value="215"/>
                        </valueQuantity>
                     </extension>
                     <value value="10"/>
                     <unit value="gram"/>
                     <system value="http://unitsofmeasure.org"/>
                     <code value="g"/>
                  </numerator>
                  <denominator>
                     <extension url="http://hl7.org/fhir/StructureDefinition/iso21090-PQ-translation">
                        <valueQuantity>
                           <value value="100"/>
                           <unit value="gram"/>
                           <system value="urn:oid:2.16.840.1.113883.2.4.4.1.900.2"/>
                           <code value="215"/>
                        </valueQuantity>
                     </extension>
                     <value value="100"/>
                     <unit value="gram"/>
                     <system value="http://unitsofmeasure.org"/>
                     <code value="g"/>
                  </denominator>
               </strength>
            </ingredient>
            <ingredient>
               <itemCodeableConcept>
                  <coding>
                     <system value="urn:oid:2.16.840.1.113883.2.4.4.7"/>
                     <code value="1516981"/>
                     <display value="EUCERINE MET WATER FAGRON"/>
                  </coding>
               </itemCodeableConcept>
               <strength>
                  <numerator>
                     <extension url="http://hl7.org/fhir/StructureDefinition/iso21090-PQ-translation">
                        <valueQuantity>
                           <value value="90"/>
                           <unit value="gram"/>
                           <system value="urn:oid:2.16.840.1.113883.2.4.4.1.900.2"/>
                           <code value="215"/>
                        </valueQuantity>
                     </extension>
                     <value value="90"/>
                     <unit value="gram"/>
                     <system value="http://unitsofmeasure.org"/>
                     <code value="g"/>
                  </numerator>
                  <denominator>
                     <extension url="http://hl7.org/fhir/StructureDefinition/iso21090-PQ-translation">
                        <valueQuantity>
                           <value value="100"/>
                           <unit value="gram"/>
                           <system value="urn:oid:2.16.840.1.113883.2.4.4.1.900.2"/>
                           <code value="215"/>
                        </valueQuantity>
                     </extension>
                     <value value="100"/>
                     <unit value="gram"/>
                     <system value="http://unitsofmeasure.org"/>
                     <code value="g"/>
                  </denominator>
               </strength>
            </ingredient>
         </Medication>
      </resource>
      <request>
         <method value="POST"/>
         <url value="Medication"/>
      </request>
   </entry>
   <entry>
      <fullUrl value="urn:uuid:a13da3e0-d4db-11ef-1281-020000000000"/>
      <resource>
         <Medication>
            <meta>
               <profile value="http://nictiz.nl/fhir/StructureDefinition/mp-PharmaceuticalProduct"/>
            </meta>
            <extension url="http://nictiz.nl/fhir/StructureDefinition/ext-PharmaceuticalProduct.Description">
               <valueString value="Titel: Vaseline 20% in cetomacrogolcrème FNA Regel 1: cetomacrogolcreme 80 gr"/>
            </extension>
            <code>
               <coding>
                  <system value="http://terminology.hl7.org/CodeSystem/v3-NullFlavor"/>
                  <code value="OTH"/>
                  <display value="overig"/>
               </coding>
               <text value="Vaseline 20% in cetomacrogolcrème FNA"/>
            </code>
            <ingredient>
               <itemCodeableConcept>
                  <coding>
                     <system value="urn:oid:2.16.840.1.113883.2.4.4.7"/>
                     <code value="457590"/>
                     <display value="CETOMACROGOLCREME FNA"/>
                  </coding>
               </itemCodeableConcept>
               <strength>
                  <numerator>
                     <extension url="http://hl7.org/fhir/StructureDefinition/iso21090-PQ-translation">
                        <valueQuantity>
                           <value value="80"/>
                           <unit value="gram"/>
                           <system value="urn:oid:2.16.840.1.113883.2.4.4.1.900.2"/>
                           <code value="215"/>
                        </valueQuantity>
                     </extension>
                     <value value="80"/>
                     <unit value="gram"/>
                     <system value="http://unitsofmeasure.org"/>
                     <code value="g"/>
                  </numerator>
                  <denominator>
                     <extension url="http://hl7.org/fhir/StructureDefinition/iso21090-PQ-translation">
                        <valueQuantity>
                           <value value="100"/>
                           <unit value="gram"/>
                           <system value="urn:oid:2.16.840.1.113883.2.4.4.1.900.2"/>
                           <code value="215"/>
                        </valueQuantity>
                     </extension>
                     <value value="100"/>
                     <unit value="gram"/>
                     <system value="http://unitsofmeasure.org"/>
                     <code value="g"/>
                  </denominator>
               </strength>
            </ingredient>
         </Medication>
      </resource>
      <request>
         <method value="POST"/>
         <url value="Medication"/>
      </request>
   </entry>
   <entry>
      <fullUrl value="urn:uuid:a13da3f4-d4db-11ef-1281-020000000000"/>
      <resource>
         <Medication>
            <meta>
               <profile value="http://nictiz.nl/fhir/StructureDefinition/mp-PharmaceuticalProduct"/>
            </meta>
            <extension url="http://nictiz.nl/fhir/StructureDefinition/ext-PharmaceuticalProduct.Description">
               <valueString value="Titel: Ureum 10% in eucerine cum aqua 100gr           Regel: UREUM 10gr           Regel: EUCERINE MET WATER FAGRON ad 100gr"/>
            </extension>
            <code>
               <coding>
                  <system value="urn:oid:2.16.840.1.113883.2.4.3.11.9999.77.90000000.1.1111"/>
                  <code value="90000001"/>
                  <display value="Eigen artikel: ureumzalf"/>
               </coding>
               <text value="Ureum 10% in eucerine cum aqua 100gr"/>
            </code>
            <ingredient>
               <itemCodeableConcept>
                  <coding>
                     <system value="urn:oid:2.16.840.1.113883.2.4.4.7"/>
                     <code value="1042467"/>
                     <display value="UREUM ZALF 10% FAGRON"/>
                  </coding>
               </itemCodeableConcept>
               <strength>
                  <numerator>
                     <extension url="http://hl7.org/fhir/StructureDefinition/iso21090-PQ-translation">
                        <valueQuantity>
                           <value value="10"/>
                           <unit value="gram"/>
                           <system value="urn:oid:2.16.840.1.113883.2.4.4.1.900.2"/>
                           <code value="215"/>
                        </valueQuantity>
                     </extension>
                     <value value="10"/>
                     <unit value="gram"/>
                     <system value="http://unitsofmeasure.org"/>
                     <code value="g"/>
                  </numerator>
                  <denominator>
                     <extension url="http://hl7.org/fhir/StructureDefinition/iso21090-PQ-translation">
                        <valueQuantity>
                           <value value="100"/>
                           <unit value="gram"/>
                           <system value="urn:oid:2.16.840.1.113883.2.4.4.1.900.2"/>
                           <code value="215"/>
                        </valueQuantity>
                     </extension>
                     <value value="100"/>
                     <unit value="gram"/>
                     <system value="http://unitsofmeasure.org"/>
                     <code value="g"/>
                  </denominator>
               </strength>
            </ingredient>
         </Medication>
      </resource>
      <request>
         <method value="POST"/>
         <url value="Medication"/>
      </request>
   </entry>
   <entry>
      <fullUrl value="urn:uuid:a13da408-d4db-11ef-1281-020000000000"/>
      <resource>
         <Medication>
            <meta>
               <profile value="http://nictiz.nl/fhir/StructureDefinition/mp-PharmaceuticalProduct"/>
            </meta>
            <extension url="http://nictiz.nl/fhir/StructureDefinition/ext-PharmaceuticalProduct.Description">
               <valueString value="Titel: Jemperli (Dostarlimab-gxly) 500 mg/10 mL"/>
            </extension>
            <code>
               <coding>
                  <system value="http://terminology.hl7.org/CodeSystem/v3-NullFlavor"/>
                  <code value="OTH"/>
                  <display value="anders"/>
               </coding>
               <text value="Jemperli 500 mg/ 10 mL"/>
            </code>
         </Medication>
      </resource>
      <request>
         <method value="POST"/>
         <url value="Medication"/>
      </request>
   </entry>
</Bundle>