<Bundle xmlns="http://hl7.org/fhir">
   <id value="mp-vv-tst-zorgverlener-is-auteur-v20"/>
   <meta>
      <profile value="http://nictiz.nl/fhir/StructureDefinition/mp-ProposalDispenseRequest-Bundle"/>
   </meta>
   <type value="transaction"/>
   <entry>
<<<<<<< HEAD
      <fullUrl value="urn:uuid:c33f0de8-6a95-11ec-0000-020000000000"/>
      <resource>
         <MedicationRequest>
            <id value="mp-DspReq-mp9-c33f077d-6a95-11ec-0000-020000000000"/>
=======
      <fullUrl value="urn:uuid:c33f0d0c-6a95-11ec-0000-020000000000"/>
      <resource>
         <MedicationRequest>
>>>>>>> origin/master
            <meta>
               <profile value="http://nictiz.nl/fhir/StructureDefinition/mp-DispenseRequest"/>
               <tag>
                  <system value="http://terminology.hl7.org/CodeSystem/common-tags"/>
                  <code value="actionable"/>
               </tag>
            </meta>
            <extension url="http://nictiz.nl/fhir/StructureDefinition/ext-PharmaceuticalTreatment.Identifier">
               <valueIdentifier>
                  <system value="urn:oid:2.16.840.1.113883.2.4.3.11.999.77.16076005.1"/>
                  <value value="MBH_200_start_eind"/>
               </valueIdentifier>
            </extension>
            <extension url="http://nictiz.nl/fhir/StructureDefinition/ext-Comment">
               <valueString value="Te weinig voorraad voor het komende weekend"/>
            </extension>
            <identifier>
               <system value="urn:oid:2.16.840.1.113883.2.4.3.11.999.77.52711000146108.2"/>
               <value value="MBH_200_start_eind_VVV"/>
            </identifier>
            <status value="active"/>
            <intent value="plan"/>
            <category>
               <coding>
                  <system value="http://snomed.info/sct"/>
                  <code value="52711000146108"/>
                  <display value="verstrekkingsverzoek"/>
               </coding>
            </category>
            <medicationReference>
<<<<<<< HEAD
               <reference value="urn:uuid:c33f0e06-6a95-11ec-0000-020000000000"/>
=======
               <reference value="urn:uuid:c33f0d2a-6a95-11ec-0000-020000000000"/>
>>>>>>> origin/master
               <type value="Medication"/>
               <display value="METOCLOPRAMIDE HCL PCH TABLET 10MG"/>
            </medicationReference>
            <subject>
<<<<<<< HEAD
               <reference value="urn:uuid:c33f0cf8-6a95-11ec-0000-020000000000"/>
=======
               <reference value="urn:uuid:c33f0cb2-6a95-11ec-0000-020000000000"/>
>>>>>>> origin/master
               <type value="Patient"/>
               <display value="Patient, C. van de XXX_Brugge"/>
            </subject>
            <authoredOn value="${DATE, T, D, +0}T13:24:00+02:00"/>
            <requester>
<<<<<<< HEAD
               <reference value="urn:uuid:c33f0d20-6a95-11ec-0000-020000000000"/>
=======
               <reference value="urn:uuid:c33f0cd0-6a95-11ec-0000-020000000000"/>
>>>>>>> origin/master
               <type value="PractitionerRole"/>
               <display value="Healthcare professional (role), Johan van Vliet, Verpleegkundigen, niet nader gespecificeerd, Thuiszorg Samen Uit"/>
            </requester>
            <performer>
<<<<<<< HEAD
               <reference value="urn:uuid:c33f0d70-6a95-11ec-0000-020000000000"/>
=======
               <reference value="urn:uuid:c33f0d48-6a95-11ec-0000-020000000000"/>
>>>>>>> origin/master
               <type value="Organization"/>
               <display value="Healthcare provider (organization), Apotheek De Gulle Gaper"/>
            </performer>
            <basedOn>
               <type value="MedicationRequest"/>
               <identifier>
                  <system value="urn:oid:2.16.840.1.113883.2.4.3.11.999.77.16076005.1"/>
                  <value value="MBH_200_start_eind_MA"/>
               </identifier>
               <display value="relatie naar medicatieafspraak  met identificatie: MBH_200_start_eind_MA || 2.16.840.1.113883.2.4.3.11.999.77.16076005.1"/>
            </basedOn>
            <dispenseRequest>
               <quantity>
                  <extension url="http://hl7.org/fhir/StructureDefinition/iso21090-PQ-translation">
                     <valueQuantity>
                        <value value="5"/>
                        <unit value="stuk"/>
                        <system value="urn:oid:2.16.840.1.113883.2.4.4.1.900.2"/>
                        <code value="245"/>
                     </valueQuantity>
                  </extension>
                  <value value="5"/>
                  <unit value="stuk"/>
                  <system value="http://unitsofmeasure.org"/>
                  <code value="1"/>
               </quantity>
            </dispenseRequest>
         </MedicationRequest>
      </resource>
      <request>
         <method value="POST"/>
         <url value="MedicationRequest"/>
      </request>
   </entry>
   <entry>
<<<<<<< HEAD
      <fullUrl value="urn:uuid:c33f0cf8-6a95-11ec-0000-020000000000"/>
=======
      <fullUrl value="urn:uuid:c33f0cb2-6a95-11ec-0000-020000000000"/>
>>>>>>> origin/master
      <resource>
         <Patient>
            <meta>
               <profile value="http://nictiz.nl/fhir/StructureDefinition/nl-core-Patient"/>
            </meta>
            <identifier>
               <system value="http://fhir.nl/fhir/NamingSystem/bsn"/>
               <value value="999900419"/>
            </identifier>
            <name>
               <extension url="http://hl7.org/fhir/StructureDefinition/humanname-assembly-order">
                  <valueCode value="NL1"/>
               </extension>
               <use value="official"/>
               <text value="C. van de XXX_Brugge"/>
               <family value="van de XXX_Brugge">
                  <extension url="http://hl7.org/fhir/StructureDefinition/humanname-own-prefix">
                     <valueString value="van de"/>
                  </extension>
                  <extension url="http://hl7.org/fhir/StructureDefinition/humanname-own-name">
                     <valueString value="XXX_Brugge"/>
                  </extension>
               </family>
               <given value="C.">
                  <extension url="http://hl7.org/fhir/StructureDefinition/iso21090-EN-qualifier">
                     <valueCode value="IN"/>
                  </extension>
               </given>
            </name>
            <gender value="male">
               <extension url="http://nictiz.nl/fhir/StructureDefinition/ext-CodeSpecification">
                  <valueCodeableConcept>
                     <coding>
                        <system value="http://terminology.hl7.org/CodeSystem/v3-AdministrativeGender"/>
                        <code value="M"/>
                        <display value="Man"/>
                     </coding>
                  </valueCodeableConcept>
               </extension>
            </gender>
            <birthDate value="1963-10-16"/>
         </Patient>
      </resource>
      <request>
         <method value="POST"/>
         <url value="Patient"/>
      </request>
   </entry>
   <entry>
<<<<<<< HEAD
      <fullUrl value="urn:uuid:c33f0d20-6a95-11ec-0000-020000000000"/>
      <resource>
         <PractitionerRole>
            <id value="nl-core-HPrf-PracRol-mp9-PrcRol-2165281100731-987654321"/>
=======
      <fullUrl value="urn:uuid:c33f0cd0-6a95-11ec-0000-020000000000"/>
      <resource>
         <PractitionerRole>
>>>>>>> origin/master
            <meta>
               <profile value="http://nictiz.nl/fhir/StructureDefinition/nl-core-HealthProfessional-PractitionerRole"/>
            </meta>
            <practitioner>
<<<<<<< HEAD
               <reference value="urn:uuid:c33f0d48-6a95-11ec-0000-020000000000"/>
=======
               <reference value="urn:uuid:c33f0cee-6a95-11ec-0000-020000000000"/>
>>>>>>> origin/master
               <type value="Practitioner"/>
               <display value="Healthcare professional (person), Johan van Vliet"/>
            </practitioner>
            <organization>
<<<<<<< HEAD
               <reference value="urn:uuid:c33f0dac-6a95-11ec-0000-020000000000"/>
=======
               <reference value="urn:uuid:c33f0d84-6a95-11ec-0000-020000000000"/>
>>>>>>> origin/master
               <type value="Organization"/>
               <display value="Healthcare provider (organization), Thuiszorg Samen Uit"/>
            </organization>
            <specialty>
               <coding>
                  <system value="urn:oid:2.16.840.1.113883.2.4.6.7"/>
                  <version value="2020-10-23T00:00:00"/>
                  <code value="9100"/>
                  <display value="Verpleegkundigen, niet nader gespecificeerd"/>
               </coding>
            </specialty>
         </PractitionerRole>
      </resource>
      <request>
         <method value="POST"/>
         <url value="PractitionerRole"/>
      </request>
   </entry>
   <entry>
<<<<<<< HEAD
      <fullUrl value="urn:uuid:c33f0d48-6a95-11ec-0000-020000000000"/>
=======
      <fullUrl value="urn:uuid:c33f0cee-6a95-11ec-0000-020000000000"/>
>>>>>>> origin/master
      <resource>
         <Practitioner>
            <meta>
               <profile value="http://nictiz.nl/fhir/StructureDefinition/nl-core-HealthProfessional-Practitioner"/>
            </meta>
            <identifier>
               <system value="http://fhir.nl/fhir/NamingSystem/uzi-nr-pers"/>
               <value value="987654321"/>
            </identifier>
            <name>
               <use value="official"/>
               <text value="Johan van Vliet"/>
               <family value="van Vliet">
                  <extension url="http://hl7.org/fhir/StructureDefinition/humanname-own-prefix">
                     <valueString value="van"/>
                  </extension>
                  <extension url="http://hl7.org/fhir/StructureDefinition/humanname-own-name">
                     <valueString value="Vliet"/>
                  </extension>
               </family>
               <given value="Johan">
                  <extension url="http://hl7.org/fhir/StructureDefinition/iso21090-EN-qualifier">
                     <valueCode value="BR"/>
                  </extension>
               </given>
            </name>
         </Practitioner>
      </resource>
      <request>
         <method value="POST"/>
         <url value="Practitioner"/>
      </request>
   </entry>
   <entry>
<<<<<<< HEAD
      <fullUrl value="urn:uuid:c33f0d70-6a95-11ec-0000-020000000000"/>
      <resource>
         <Organization>
            <id value="nl-core-HPrv-Org-mp9-Org-2165281100733-01236578"/>
=======
      <fullUrl value="urn:uuid:c33f0d48-6a95-11ec-0000-020000000000"/>
      <resource>
         <Organization>
>>>>>>> origin/master
            <meta>
               <profile value="http://nictiz.nl/fhir/StructureDefinition/nl-core-HealthcareProvider-Organization"/>
            </meta>
            <identifier>
               <system value="http://fhir.nl/fhir/NamingSystem/ura"/>
               <value value="01236578"/>
            </identifier>
            <name value="Apotheek De Gulle Gaper"/>
         </Organization>
      </resource>
      <request>
         <method value="POST"/>
         <url value="Organization"/>
      </request>
   </entry>
   <entry>
<<<<<<< HEAD
      <fullUrl value="urn:uuid:c33f0dac-6a95-11ec-0000-020000000000"/>
      <resource>
         <Organization>
            <id value="nl-core-HPrv-Org-mp9-Org-2165281100733-87654321"/>
=======
      <fullUrl value="urn:uuid:c33f0d84-6a95-11ec-0000-020000000000"/>
      <resource>
         <Organization>
>>>>>>> origin/master
            <meta>
               <profile value="http://nictiz.nl/fhir/StructureDefinition/nl-core-HealthcareProvider-Organization"/>
            </meta>
            <identifier>
               <system value="http://fhir.nl/fhir/NamingSystem/ura"/>
               <value value="87654321"/>
            </identifier>
            <name value="Thuiszorg Samen Uit"/>
         </Organization>
      </resource>
      <request>
         <method value="POST"/>
         <url value="Organization"/>
      </request>
   </entry>
   <entry>
<<<<<<< HEAD
      <fullUrl value="urn:uuid:c33f0e06-6a95-11ec-0000-020000000000"/>
=======
      <fullUrl value="urn:uuid:c33f0d2a-6a95-11ec-0000-020000000000"/>
>>>>>>> origin/master
      <resource>
         <Medication>
            <meta>
               <profile value="http://nictiz.nl/fhir/StructureDefinition/nl-core-PharmaceuticalProduct"/>
            </meta>
            <code>
               <coding>
                  <system value="urn:oid:2.16.840.1.113883.2.4.4.10"/>
                  <code value="6947"/>
                  <display value="METOCLOPRAMIDE TABLET 10MG"/>
               </coding>
               <coding>
                  <system value="urn:oid:2.16.840.1.113883.2.4.4.1"/>
                  <code value="19429"/>
                  <display value="METOCLOPRAMIDE TABLET 10MG"/>
               </coding>
               <coding>
                  <system value="urn:oid:2.16.840.1.113883.2.4.4.7"/>
                  <code value="560308"/>
                  <display value="METOCLOPRAMIDE HCL PCH TABLET 10MG"/>
                  <userSelected value="true"/>
               </coding>
               <text value="METOCLOPRAMIDE HCL PCH TABLET 10MG"/>
            </code>
         </Medication>
      </resource>
      <request>
         <method value="POST"/>
         <url value="Medication"/>
      </request>
   </entry>
</Bundle>
