<?xml version="1.0" encoding="UTF-8"?>
<?xml-model href="http://hl7.org/fhir/STU3/bundle.sch" type="application/xml" schematypens="http://purl.oclc.org/dsdl/schematron"?>
<Bundle xmlns="http://hl7.org/fhir"
        xmlns:xsi="http://www.w3.org/2001/XMLSchema-instance"
        xsi:schemaLocation="http://hl7.org/fhir http://hl7.org/fhir/STU3/bundle.xsd">
   <type value="searchset"/>
   <total value="3"/>
   <entry>
      <fullUrl value="urn:uuid:e01eb2dd-d2c1-11e9-1717-28f10e481d92"/>
      <resource>
         <Patient>
            <meta>
               <profile value="http://fhir.nl/fhir/StructureDefinition/nl-core-patient"/>
            </meta>
            <identifier>
               <system value="http://fhir.nl/fhir/NamingSystem/bsn"/>
               <value value="999911351"/>
            </identifier>
            <identifier>
               <system value="urn:oid:2.16.840.1.113883.2.4.3.11.999.77.19829.1"/>
               <value value="13103"/>
            </identifier>
            <name>
               <extension url="http://hl7.org/fhir/StructureDefinition/humanname-assembly-order">
                  <valueCode value="NL1"/>
               </extension>
               <family value="XXX_Ruys">
                  <extension url="http://hl7.org/fhir/StructureDefinition/humanname-own-name">
                     <valueString value="XXX_Ruys"/>
                  </extension>
               </family>
               <given value="R.">
                  <extension url="http://hl7.org/fhir/StructureDefinition/iso21090-EN-qualifier">
                     <valueCode value="IN"/>
                  </extension>
               </given>
            </name>
            <gender value="male"/>
            <birthDate value="1964-08-01"/>
         </Patient>
      </resource>
      <search>
         <mode value="include"/>
      </search>
   </entry>
   <entry>
      <fullUrl value="urn:uuid:e01eb72d-d2c1-11e9-1717-28f10e481d92"/>
      <resource>
         <PractitionerRole>
            <meta>
               <profile value="http://fhir.nl/fhir/StructureDefinition/nl-core-practitionerrole"/>
            </meta>
         </PractitionerRole>
      </resource>
      <search>
         <mode value="include"/>
      </search>
   </entry>
   <entry>
      <fullUrl value="urn:uuid:e01eb71f-d2c1-11e9-1717-28f10e481d92"/>
      <resource>
         <Task>
            <meta>
               <profile value="http://nictiz.nl/fhir/StructureDefinition/QuestionnaireReferenceTask"/>
            </meta>
            <identifier>
               <system value="urn:oid:2.16.840.1.113883.2.4.3.11.999.56.1"/>
               <value value="1d6f9800-6c10-11e9-b475-0800200c9a66"/>
            </identifier>
            <status value="ready"/>
            <intent value="order"/>
            <priority value="routine"/>
            <code>
               <coding>
                  <system value="http://loinc.org"/>
                  <code value="74468-0"/>
                  <display value="Questionnaire form definition Document"/>
               </coding>
            </code>
            <description value="Vul de vragenlijst van Arianne in"/>
            <focus>
               <reference value="http://dummy.questionnaire.nl"/>
               <display value="Test vragenlijst Arianne"/>
            </focus>
            <for>
               <reference value="urn:uuid:e01eb2dd-d2c1-11e9-1717-28f10e481d92"/>
               <display value="R. XXX_Ruys"/>
            </for>
            <authoredOn value="2019-05-01T00:00:00+02:00"/>
            <lastModified value="2019-05-01T00:00:00+02:00"/>
            <requester>
               <agent>
                  <reference value="urn:uuid:e01eb72d-d2c1-11e9-1717-28f10e481d92"/>
                  <display value="Peter van Pulver"/>
               </agent>
            </requester>
            <owner>
               <reference value="urn:uuid:e01eb2dd-d2c1-11e9-1717-28f10e481d92"/>
               <display value="R. XXX_Ruys"/>
            </owner>
            <restriction>
               <period>
                  <start value="2019-05-01T00:00:00+02:00"/>
                  <end value="2019-05-31T23:59:59+02:00"/>
               </period>
            </restriction>
         </Task>
      </resource>
   </entry>
</Bundle>
